Recv_Timestamp,Device_Name,Acc_X,Acc_Y,Acc_Z,Gyro_X,Gyro_Y,Gyro_Z,Roll,Pitch,Yaw,Quat_x,Quat_y,Quat_z,Quat_w
1777530624.4786396,Trunk,-7.1921,-0.6269,-6.4456,0.8545,0.1221,-0.4883,-174.4464,47.84,68.0219,-0.7459,0.527,-0.3109,0.2632
1777530624.4786396,L_Femur,0.0,0.0,0.0,0.0,0.0,0.0,0.0,0.0,0.0,0.0,0.0,0.0,1.0
1777530624.4786396,L_Tibia,0.0,0.0,0.0,0.0,0.0,0.0,0.0,0.0,0.0,0.0,0.0,0.0,1.0
1777530624.4786396,L_Foot,0.0,0.0,0.0,0.0,0.0,0.0,0.0,0.0,0.0,0.0,0.0,0.0,1.0
1777530624.4786396,R_Femur,0.0,0.0,0.0,0.0,0.0,0.0,0.0,0.0,0.0,0.0,0.0,0.0,1.0
1777530624.4786396,R_Tibia,0.0,0.0,0.0,0.0,0.0,0.0,0.0,0.0,0.0,0.0,0.0,0.0,1.0
1777530624.4786396,R_Foot,0.0,0.0,0.0,0.0,0.0,0.0,0.0,0.0,0.0,0.0,0.0,0.0,1.0
1777530624.4786396,Trunk,-7.1921,-0.6269,-6.4456,0.8545,0.1221,-0.4883,-174.4464,47.84,68.0219,-0.7459,0.527,-0.3109,0.2632
1777530624.4786396,L_Femur,0.5981,9.6852,-0.6029,0.3052,-0.4883,-0.1831,93.5541,-3.5101,35.4199,0.6875,-0.2415,0.187,0.6589
1777530624.4786396,L_Tibia,0.0,0.0,0.0,0.0,0.0,0.0,0.0,0.0,0.0,0.0,0.0,0.0,1.0
1777530624.4786396,L_Foot,0.0,0.0,0.0,0.0,0.0,0.0,0.0,0.0,0.0,0.0,0.0,0.0,1.0
1777530624.4786396,R_Femur,0.0,0.0,0.0,0.0,0.0,0.0,0.0,0.0,0.0,0.0,0.0,0.0,1.0
1777530624.4786396,R_Tibia,0.0,0.0,0.0,0.0,0.0,0.0,0.0,0.0,0.0,0.0,0.0,0.0,1.0
1777530624.4786396,R_Foot,0.0,0.0,0.0,0.0,0.0,0.0,0.0,0.0,0.0,0.0,0.0,0.0,1.0
1777530624.4786396,Trunk,-7.1921,-0.6269,-6.4456,0.8545,0.1221,-0.4883,-174.4464,47.84,68.0219,-0.7459,0.527,-0.3109,0.2632
1777530624.4786396,L_Femur,0.5981,9.6852,-0.6029,0.3052,-0.4883,-0.1831,93.5541,-3.5101,35.4199,0.6875,-0.2415,0.187,0.6589
1777530624.4786396,L_Tibia,-0.2153,-8.7473,-4.1583,-0.3052,-0.3052,0.4883,-115.4279,1.2799,-141.7676,-0.2825,-0.7968,-0.5078,0.166
1777530624.4786396,L_Foot,0.0,0.0,0.0,0.0,0.0,0.0,0.0,0.0,0.0,0.0,0.0,0.0,1.0
1777530624.4786396,R_Femur,0.0,0.0,0.0,0.0,0.0,0.0,0.0,0.0,0.0,0.0,0.0,0.0,1.0
1777530624.4786396,R_Tibia,0.0,0.0,0.0,0.0,0.0,0.0,0.0,0.0,0.0,0.0,0.0,0.0,1.0
1777530624.4786396,R_Foot,0.0,0.0,0.0,0.0,0.0,0.0,0.0,0.0,0.0,0.0,0.0,0.0,1.0
1777530624.4796462,Trunk,-7.1921,-0.6269,-6.4456,0.8545,0.1221,-0.4883,-174.4464,47.84,68.0219,-0.7459,0.527,-0.3109,0.2632
1777530624.4796462,L_Femur,0.5981,9.6852,-0.6029,0.3052,-0.4883,-0.1831,93.5541,-3.5101,35.4199,0.6875,-0.2415,0.187,0.6589
1777530624.4796462,L_Tibia,-0.2153,-8.7473,-4.1583,-0.3052,-0.3052,0.4883,-115.4279,1.2799,-141.7676,-0.2825,-0.7968,-0.5078,0.166
1777530624.4796462,L_Foot,-1.0192,-0.1148,10.001,-0.6714,-0.2441,0.3662,-0.6702,5.8173,107.3969,0.0374,0.0347,0.8047,0.5915
1777530624.4796462,R_Femur,0.0,0.0,0.0,0.0,0.0,0.0,0.0,0.0,0.0,0.0,0.0,0.0,1.0
1777530624.4796462,R_Tibia,0.0,0.0,0.0,0.0,0.0,0.0,0.0,0.0,0.0,0.0,0.0,0.0,1.0
1777530624.4796462,R_Foot,0.0,0.0,0.0,0.0,0.0,0.0,0.0,0.0,0.0,0.0,0.0,0.0,1.0
1777530624.4796462,Trunk,-7.1921,-0.6029,-6.4647,0.9766,-0.3052,-0.7324,-174.4464,47.8455,68.0219,-0.7458,0.527,-0.311,0.2633
1777530624.4796462,L_Femur,0.5981,9.6852,-0.6029,0.3052,-0.4883,-0.1831,93.5541,-3.5101,35.4199,0.6875,-0.2415,0.187,0.6589
1777530624.4796462,L_Tibia,-0.2153,-8.7473,-4.1583,-0.3052,-0.3052,0.4883,-115.4279,1.2799,-141.7676,-0.2825,-0.7968,-0.5078,0.166
1777530624.4796462,L_Foot,-1.0192,-0.1148,10.001,-0.6714,-0.2441,0.3662,-0.6702,5.8173,107.3969,0.0374,0.0347,0.8047,0.5915
1777530624.4796462,R_Femur,0.0,0.0,0.0,0.0,0.0,0.0,0.0,0.0,0.0,0.0,0.0,0.0,1.0
1777530624.4796462,R_Tibia,0.0,0.0,0.0,0.0,0.0,0.0,0.0,0.0,0.0,0.0,0.0,0.0,1.0
1777530624.4796462,R_Foot,0.0,0.0,0.0,0.0,0.0,0.0,0.0,0.0,0.0,0.0,0.0,0.0,1.0
1777530624.4796462,Trunk,-7.1921,-0.6029,-6.4647,0.9766,-0.3052,-0.7324,-174.4464,47.8455,68.0219,-0.7458,0.527,-0.311,0.2633
1777530624.4796462,L_Femur,0.5981,9.6899,-0.6029,0.2441,-0.4272,-0.061,93.5541,-3.5101,35.4199,0.6875,-0.2415,0.187,0.6589
1777530624.4796462,L_Tibia,-0.2153,-8.7473,-4.1583,-0.3052,-0.3052,0.4883,-115.4279,1.2799,-141.7676,-0.2825,-0.7968,-0.5078,0.166
1777530624.4796462,L_Foot,-1.0192,-0.1148,10.001,-0.6714,-0.2441,0.3662,-0.6702,5.8173,107.3969,0.0374,0.0347,0.8047,0.5915
1777530624.4796462,R_Femur,0.0,0.0,0.0,0.0,0.0,0.0,0.0,0.0,0.0,0.0,0.0,0.0,1.0
1777530624.4796462,R_Tibia,0.0,0.0,0.0,0.0,0.0,0.0,0.0,0.0,0.0,0.0,0.0,0.0,1.0
1777530624.4796462,R_Foot,0.0,0.0,0.0,0.0,0.0,0.0,0.0,0.0,0.0,0.0,0.0,0.0,1.0
1777530624.4796462,Trunk,-7.1921,-0.6029,-6.4647,0.9766,-0.3052,-0.7324,-174.4464,47.8455,68.0219,-0.7458,0.527,-0.311,0.2633
1777530624.4796462,L_Femur,0.5981,9.6899,-0.6029,0.2441,-0.4272,-0.061,93.5541,-3.5101,35.4199,0.6875,-0.2415,0.187,0.6589
1777530624.4796462,L_Tibia,-0.2201,-8.7425,-4.1583,-0.1831,-0.3052,0.4883,-115.4279,1.2799,-141.7676,-0.2825,-0.7968,-0.5078,0.166
1777530624.4796462,L_Foot,-1.0192,-0.1148,10.001,-0.6714,-0.2441,0.3662,-0.6702,5.8173,107.3969,0.0374,0.0347,0.8047,0.5915
1777530624.4796462,R_Femur,0.0,0.0,0.0,0.0,0.0,0.0,0.0,0.0,0.0,0.0,0.0,0.0,1.0
1777530624.4796462,R_Tibia,0.0,0.0,0.0,0.0,0.0,0.0,0.0,0.0,0.0,0.0,0.0,0.0,1.0
1777530624.4796462,R_Foot,0.0,0.0,0.0,0.0,0.0,0.0,0.0,0.0,0.0,0.0,0.0,0.0,1.0
1777530624.4796462,Trunk,-7.1921,-0.6029,-6.4647,0.9766,-0.3052,-0.7324,-174.4464,47.8455,68.0219,-0.7458,0.527,-0.311,0.2633
1777530624.4796462,L_Femur,0.5981,9.6899,-0.6029,0.2441,-0.4272,-0.061,93.5541,-3.5101,35.4199,0.6875,-0.2415,0.187,0.6589
1777530624.4796462,L_Tibia,-0.2201,-8.7425,-4.1583,-0.1831,-0.3052,0.4883,-115.4279,1.2799,-141.7676,-0.2825,-0.7968,-0.5078,0.166
1777530624.4796462,L_Foot,-1.0192,-0.1148,10.001,-0.6714,-0.2441,0.3052,-0.6702,5.8173,107.3969,0.0374,0.0347,0.8047,0.5915
1777530624.4796462,R_Femur,0.0,0.0,0.0,0.0,0.0,0.0,0.0,0.0,0.0,0.0,0.0,0.0,1.0
1777530624.4796462,R_Tibia,0.0,0.0,0.0,0.0,0.0,0.0,0.0,0.0,0.0,0.0,0.0,0.0,1.0
1777530624.4796462,R_Foot,0.0,0.0,0.0,0.0,0.0,0.0,0.0,0.0,0.0,0.0,0.0,0.0,1.0
1777530624.4806435,Trunk,-7.1921,-0.6029,-6.4647,0.9766,-0.3052,-0.7324,-174.4464,47.8455,68.0219,-0.7458,0.527,-0.311,0.2633
1777530624.4806435,L_Femur,0.5981,9.6899,-0.6029,0.2441,-0.4272,-0.061,93.5541,-3.5101,35.4199,0.6875,-0.2415,0.187,0.6589
1777530624.4806435,L_Tibia,-0.2201,-8.7425,-4.1583,-0.1831,-0.3052,0.4883,-115.4279,1.2799,-141.7676,-0.2825,-0.7968,-0.5078,0.166
1777530624.4806435,L_Foot,-1.0192,-0.1148,10.001,-0.6714,-0.2441,0.3052,-0.6702,5.8173,107.3969,0.0374,0.0347,0.8047,0.5915
1777530624.4806435,R_Femur,0.0,0.0,0.0,0.0,0.0,0.0,0.0,0.0,0.0,0.0,0.0,0.0,1.0
1777530624.4806435,R_Tibia,-0.0957,-9.4746,2.4883,0.2441,-0.1831,0.3662,-75.2783,0.5658,-112.7417,-0.3415,-0.5063,-0.661,0.436
1777530624.4806435,R_Foot,0.0,0.0,0.0,0.0,0.0,0.0,0.0,0.0,0.0,0.0,0.0,0.0,1.0
1777530624.4806435,Trunk,-7.1921,-0.6029,-6.4647,0.9766,-0.3052,-0.7324,-174.4464,47.8455,68.0219,-0.7458,0.527,-0.311,0.2633
1777530624.4806435,L_Femur,0.5981,9.6899,-0.6029,0.2441,-0.4272,-0.061,93.5541,-3.5101,35.4199,0.6875,-0.2415,0.187,0.6589
1777530624.4806435,L_Tibia,-0.2201,-8.7425,-4.1583,-0.1831,-0.3052,0.4883,-115.4279,1.2799,-141.7676,-0.2825,-0.7968,-0.5078,0.166
1777530624.4806435,L_Foot,-1.0192,-0.1148,10.001,-0.6714,-0.2441,0.3052,-0.6702,5.8173,107.3969,0.0374,0.0347,0.8047,0.5915
1777530624.4806435,R_Femur,0.0,0.0,0.0,0.0,0.0,0.0,0.0,0.0,0.0,0.0,0.0,0.0,1.0
1777530624.4806435,R_Tibia,-0.0957,-9.4746,2.4883,0.2441,-0.1831,0.3662,-75.2783,0.5658,-112.7417,-0.3415,-0.5063,-0.661,0.436
1777530624.4806435,R_Foot,0.8565,1.225,9.8909,0.4272,0.0,-0.061,7.0807,-4.9164,4.5538,0.0599,-0.0452,0.037,0.9965
1777530624.4811485,Trunk,-7.1873,-0.5934,-6.4552,0.9155,0.061,-0.4883,-174.4464,47.8455,68.0219,-0.7458,0.527,-0.311,0.2633
1777530624.4811485,L_Femur,0.5981,9.6899,-0.6029,0.2441,-0.4272,-0.061,93.5541,-3.5101,35.4199,0.6875,-0.2415,0.187,0.6589
1777530624.4811485,L_Tibia,-0.2201,-8.7425,-4.1583,-0.1831,-0.3052,0.4883,-115.4279,1.2799,-141.7676,-0.2825,-0.7968,-0.5078,0.166
1777530624.4811485,L_Foot,-1.0192,-0.1148,10.001,-0.6714,-0.2441,0.3052,-0.6702,5.8173,107.3969,0.0374,0.0347,0.8047,0.5915
1777530624.4811485,R_Femur,0.0,0.0,0.0,0.0,0.0,0.0,0.0,0.0,0.0,0.0,0.0,0.0,1.0
1777530624.4811485,R_Tibia,-0.0957,-9.4746,2.4883,0.2441,-0.1831,0.3662,-75.2783,0.5658,-112.7417,-0.3415,-0.5063,-0.661,0.436
1777530624.4811485,R_Foot,0.8565,1.225,9.8909,0.4272,0.0,-0.061,7.0807,-4.9164,4.5538,0.0599,-0.0452,0.037,0.9965
1777530624.4811485,Trunk,-7.1873,-0.5934,-6.4552,0.9155,0.061,-0.4883,-174.4464,47.8455,68.0219,-0.7458,0.527,-0.311,0.2633
1777530624.4811485,L_Femur,0.5981,9.6899,-0.5981,0.2441,-0.4883,-0.1221,93.5541,-3.5101,35.4199,0.6875,-0.2415,0.187,0.6589
1777530624.4811485,L_Tibia,-0.2201,-8.7425,-4.1583,-0.1831,-0.3052,0.4883,-115.4279,1.2799,-141.7676,-0.2825,-0.7968,-0.5078,0.166
1777530624.4811485,L_Foot,-1.0192,-0.1148,10.001,-0.6714,-0.2441,0.3052,-0.6702,5.8173,107.3969,0.0374,0.0347,0.8047,0.5915
1777530624.4811485,R_Femur,0.0,0.0,0.0,0.0,0.0,0.0,0.0,0.0,0.0,0.0,0.0,0.0,1.0
1777530624.4811485,R_Tibia,-0.0957,-9.4746,2.4883,0.2441,-0.1831,0.3662,-75.2783,0.5658,-112.7417,-0.3415,-0.5063,-0.661,0.436
1777530624.4811485,R_Foot,0.8565,1.225,9.8909,0.4272,0.0,-0.061,7.0807,-4.9164,4.5538,0.0599,-0.0452,0.037,0.9965
1777530624.4821541,Trunk,-7.1873,-0.5934,-6.4552,0.9155,0.061,-0.4883,-174.4464,47.8455,68.0219,-0.7458,0.527,-0.311,0.2633
1777530624.4821541,L_Femur,0.5981,9.6899,-0.5981,0.2441,-0.4883,-0.1221,93.5541,-3.5101,35.4199,0.6875,-0.2415,0.187,0.6589
1777530624.4821541,L_Tibia,-0.2201,-8.7425,-4.1583,-0.1831,-0.3052,0.4883,-115.4279,1.2799,-141.7676,-0.2825,-0.7968,-0.5078,0.166
1777530624.4821541,L_Foot,-1.0145,-0.1101,10.001,-0.7324,-0.3052,0.3052,-0.6702,5.8173,107.3969,0.0374,0.0347,0.8047,0.5915
1777530624.4821541,R_Femur,0.0,0.0,0.0,0.0,0.0,0.0,0.0,0.0,0.0,0.0,0.0,0.0,1.0
1777530624.4821541,R_Tibia,-0.0957,-9.4746,2.4883,0.2441,-0.1831,0.3662,-75.2783,0.5658,-112.7417,-0.3415,-0.5063,-0.661,0.436
1777530624.4821541,R_Foot,0.8565,1.225,9.8909,0.4272,0.0,-0.061,7.0807,-4.9164,4.5538,0.0599,-0.0452,0.037,0.9965
1777530624.4821541,Trunk,-7.1777,-0.5934,-6.4552,0.9766,0.061,-0.5493,-174.4464,47.8455,68.0219,-0.7458,0.527,-0.311,0.2633
1777530624.4821541,L_Femur,0.5981,9.6899,-0.5981,0.2441,-0.4883,-0.1221,93.5541,-3.5101,35.4199,0.6875,-0.2415,0.187,0.6589
1777530624.4821541,L_Tibia,-0.2201,-8.7425,-4.1583,-0.1831,-0.3052,0.4883,-115.4279,1.2799,-141.7676,-0.2825,-0.7968,-0.5078,0.166
1777530624.4821541,L_Foot,-1.0145,-0.1101,10.001,-0.7324,-0.3052,0.3052,-0.6702,5.8173,107.3969,0.0374,0.0347,0.8047,0.5915
1777530624.4821541,R_Femur,0.0,0.0,0.0,0.0,0.0,0.0,0.0,0.0,0.0,0.0,0.0,0.0,1.0
1777530624.4821541,R_Tibia,-0.0957,-9.4746,2.4883,0.2441,-0.1831,0.3662,-75.2783,0.5658,-112.7417,-0.3415,-0.5063,-0.661,0.436
1777530624.4821541,R_Foot,0.8565,1.225,9.8909,0.4272,0.0,-0.061,7.0807,-4.9164,4.5538,0.0599,-0.0452,0.037,0.9965
1777530624.4821541,Trunk,-7.1777,-0.5934,-6.4552,0.9766,0.061,-0.5493,-174.4464,47.8455,68.0219,-0.7458,0.527,-0.311,0.2633
1777530624.4821541,L_Femur,0.5934,9.6899,-0.6029,0.2441,-0.3662,-0.1221,93.5541,-3.5101,35.4199,0.6875,-0.2415,0.187,0.6589
1777530624.4821541,L_Tibia,-0.2201,-8.7425,-4.1583,-0.1831,-0.3052,0.4883,-115.4279,1.2799,-141.7676,-0.2825,-0.7968,-0.5078,0.166
1777530624.4821541,L_Foot,-1.0145,-0.1101,10.001,-0.7324,-0.3052,0.3052,-0.6702,5.8173,107.3969,0.0374,0.0347,0.8047,0.5915
1777530624.4821541,R_Femur,0.0,0.0,0.0,0.0,0.0,0.0,0.0,0.0,0.0,0.0,0.0,0.0,1.0
1777530624.4821541,R_Tibia,-0.0957,-9.4746,2.4883,0.2441,-0.1831,0.3662,-75.2783,0.5658,-112.7417,-0.3415,-0.5063,-0.661,0.436
1777530624.4821541,R_Foot,0.8565,1.225,9.8909,0.4272,0.0,-0.061,7.0807,-4.9164,4.5538,0.0599,-0.0452,0.037,0.9965
1777530624.4821541,Trunk,-7.1777,-0.5934,-6.4552,0.9766,0.061,-0.5493,-174.4464,47.8455,68.0219,-0.7458,0.527,-0.311,0.2633
1777530624.4821541,L_Femur,0.5934,9.6899,-0.6029,0.2441,-0.3662,-0.1221,93.5541,-3.5101,35.4199,0.6875,-0.2415,0.187,0.6589
1777530624.4821541,L_Tibia,-0.2105,-8.7473,-4.1583,-0.2441,-0.3052,0.4883,-115.4279,1.2799,-141.7676,-0.2825,-0.7968,-0.5078,0.166
1777530624.4821541,L_Foot,-1.0145,-0.1101,10.001,-0.7324,-0.3052,0.3052,-0.6702,5.8173,107.3969,0.0374,0.0347,0.8047,0.5915
1777530624.4821541,R_Femur,0.0,0.0,0.0,0.0,0.0,0.0,0.0,0.0,0.0,0.0,0.0,0.0,1.0
1777530624.4821541,R_Tibia,-0.0957,-9.4746,2.4883,0.2441,-0.1831,0.3662,-75.2783,0.5658,-112.7417,-0.3415,-0.5063,-0.661,0.436
1777530624.4821541,R_Foot,0.8565,1.225,9.8909,0.4272,0.0,-0.061,7.0807,-4.9164,4.5538,0.0599,-0.0452,0.037,0.9965
1777530624.4821541,Trunk,-7.1777,-0.5934,-6.4552,0.9766,0.061,-0.5493,-174.4464,47.8455,68.0219,-0.7458,0.527,-0.311,0.2633
1777530624.4821541,L_Femur,0.5934,9.6899,-0.6029,0.2441,-0.3662,-0.1221,93.5541,-3.5101,35.4199,0.6875,-0.2415,0.187,0.6589
1777530624.4821541,L_Tibia,-0.2105,-8.7473,-4.1583,-0.2441,-0.3052,0.4883,-115.4279,1.2799,-141.7676,-0.2825,-0.7968,-0.5078,0.166
1777530624.4821541,L_Foot,-1.0145,-0.1148,10.0058,-0.6714,-0.2441,0.3662,-0.6702,5.8173,107.3969,0.0374,0.0347,0.8047,0.5915
1777530624.4821541,R_Femur,0.0,0.0,0.0,0.0,0.0,0.0,0.0,0.0,0.0,0.0,0.0,0.0,1.0
1777530624.4821541,R_Tibia,-0.0957,-9.4746,2.4883,0.2441,-0.1831,0.3662,-75.2783,0.5658,-112.7417,-0.3415,-0.5063,-0.661,0.436
1777530624.4821541,R_Foot,0.8565,1.225,9.8909,0.4272,0.0,-0.061,7.0807,-4.9164,4.5538,0.0599,-0.0452,0.037,0.9965
1777530624.4831555,Trunk,-7.1777,-0.5934,-6.4552,0.9766,0.061,-0.5493,-174.4464,47.8455,68.0219,-0.7458,0.527,-0.311,0.2633
1777530624.4831555,L_Femur,0.5934,9.6899,-0.6029,0.2441,-0.3662,-0.1221,93.5541,-3.5101,35.4199,0.6875,-0.2415,0.187,0.6589
1777530624.4831555,L_Tibia,-0.2105,-8.7473,-4.1583,-0.2441,-0.3052,0.4883,-115.4279,1.2799,-141.7676,-0.2825,-0.7968,-0.5078,0.166
1777530624.4831555,L_Foot,-1.0145,-0.1148,10.0058,-0.6714,-0.2441,0.3662,-0.6702,5.8173,107.3969,0.0374,0.0347,0.8047,0.5915
1777530624.4831555,R_Femur,0.0,0.0,0.0,0.0,0.0,0.0,0.0,0.0,0.0,0.0,0.0,0.0,1.0
1777530624.4831555,R_Tibia,-0.1005,-9.4746,2.4883,0.2441,-0.1831,0.3662,-75.2728,0.5658,-112.7417,-0.3414,-0.5063,-0.661,0.4361
1777530624.4831555,R_Foot,0.8565,1.225,9.8909,0.4272,0.0,-0.061,7.0807,-4.9164,4.5538,0.0599,-0.0452,0.037,0.9965
1777530624.4831555,Trunk,-7.1777,-0.5934,-6.4552,0.9766,0.061,-0.5493,-174.4464,47.8455,68.0219,-0.7458,0.527,-0.311,0.2633
1777530624.4831555,L_Femur,0.5934,9.6899,-0.6029,0.2441,-0.3662,-0.1221,93.5541,-3.5101,35.4199,0.6875,-0.2415,0.187,0.6589
1777530624.4831555,L_Tibia,-0.2105,-8.7473,-4.1583,-0.2441,-0.3052,0.4883,-115.4279,1.2799,-141.7676,-0.2825,-0.7968,-0.5078,0.166
1777530624.4831555,L_Foot,-1.0145,-0.1148,10.0058,-0.6714,-0.2441,0.3662,-0.6702,5.8173,107.3969,0.0374,0.0347,0.8047,0.5915
1777530624.4831555,R_Femur,0.0,0.0,0.0,0.0,0.0,0.0,0.0,0.0,0.0,0.0,0.0,0.0,1.0
1777530624.4831555,R_Tibia,-0.1005,-9.4746,2.4883,0.2441,-0.1831,0.3662,-75.2728,0.5658,-112.7417,-0.3414,-0.5063,-0.661,0.4361
1777530624.4831555,R_Foot,0.8565,1.2298,9.8909,0.4883,0.0,-0.061,7.0807,-4.9164,4.5538,0.0599,-0.0452,0.037,0.9965
1777530624.4831555,Trunk,-7.1682,-0.5981,-6.4647,1.0376,-0.3052,-0.6714,-174.4464,47.8455,68.0219,-0.7458,0.527,-0.311,0.2633
1777530624.4831555,L_Femur,0.5934,9.6899,-0.6029,0.2441,-0.3662,-0.1221,93.5541,-3.5101,35.4199,0.6875,-0.2415,0.187,0.6589
1777530624.4831555,L_Tibia,-0.2105,-8.7473,-4.1583,-0.2441,-0.3052,0.4883,-115.4279,1.2799,-141.7676,-0.2825,-0.7968,-0.5078,0.166
1777530624.4831555,L_Foot,-1.0145,-0.1148,10.0058,-0.6714,-0.2441,0.3662,-0.6702,5.8173,107.3969,0.0374,0.0347,0.8047,0.5915
1777530624.4831555,R_Femur,0.0,0.0,0.0,0.0,0.0,0.0,0.0,0.0,0.0,0.0,0.0,0.0,1.0
1777530624.4831555,R_Tibia,-0.1005,-9.4746,2.4883,0.2441,-0.1831,0.3662,-75.2728,0.5658,-112.7417,-0.3414,-0.5063,-0.661,0.4361
1777530624.4831555,R_Foot,0.8565,1.2298,9.8909,0.4883,0.0,-0.061,7.0807,-4.9164,4.5538,0.0599,-0.0452,0.037,0.9965
1777530624.4831555,Trunk,-7.1682,-0.5981,-6.4647,1.0376,-0.3052,-0.6714,-174.4464,47.8455,68.0219,-0.7458,0.527,-0.311,0.2633
1777530624.4831555,L_Femur,0.5886,9.6899,-0.5981,0.2441,-0.4272,-0.061,93.5541,-3.5101,35.4199,0.6875,-0.2415,0.187,0.6589
1777530624.4831555,L_Tibia,-0.2105,-8.7473,-4.1583,-0.2441,-0.3052,0.4883,-115.4279,1.2799,-141.7676,-0.2825,-0.7968,-0.5078,0.166
1777530624.4831555,L_Foot,-1.0145,-0.1148,10.0058,-0.6714,-0.2441,0.3662,-0.6702,5.8173,107.3969,0.0374,0.0347,0.8047,0.5915
1777530624.4831555,R_Femur,0.0,0.0,0.0,0.0,0.0,0.0,0.0,0.0,0.0,0.0,0.0,0.0,1.0
1777530624.4831555,R_Tibia,-0.1005,-9.4746,2.4883,0.2441,-0.1831,0.3662,-75.2728,0.5658,-112.7417,-0.3414,-0.5063,-0.661,0.4361
1777530624.4831555,R_Foot,0.8565,1.2298,9.8909,0.4883,0.0,-0.061,7.0807,-4.9164,4.5538,0.0599,-0.0452,0.037,0.9965
1777530624.4831555,Trunk,-7.1682,-0.5981,-6.4647,1.0376,-0.3052,-0.6714,-174.4464,47.8455,68.0219,-0.7458,0.527,-0.311,0.2633
1777530624.4831555,L_Femur,0.5886,9.6899,-0.5981,0.2441,-0.4272,-0.061,93.5541,-3.5101,35.4199,0.6875,-0.2415,0.187,0.6589
1777530624.4831555,L_Tibia,-0.2153,-8.7473,-4.1535,-0.2441,-0.2441,0.4883,-115.4279,1.2799,-141.7676,-0.2825,-0.7968,-0.5078,0.166
1777530624.4831555,L_Foot,-1.0145,-0.1148,10.0058,-0.6714,-0.2441,0.3662,-0.6702,5.8173,107.3969,0.0374,0.0347,0.8047,0.5915
1777530624.4831555,R_Femur,0.0,0.0,0.0,0.0,0.0,0.0,0.0,0.0,0.0,0.0,0.0,0.0,1.0
1777530624.4831555,R_Tibia,-0.1005,-9.4746,2.4883,0.2441,-0.1831,0.3662,-75.2728,0.5658,-112.7417,-0.3414,-0.5063,-0.661,0.4361
1777530624.4831555,R_Foot,0.8565,1.2298,9.8909,0.4883,0.0,-0.061,7.0807,-4.9164,4.5538,0.0599,-0.0452,0.037,0.9965
1777530624.4831555,Trunk,-7.1682,-0.5981,-6.4647,1.0376,-0.3052,-0.6714,-174.4464,47.8455,68.0219,-0.7458,0.527,-0.311,0.2633
1777530624.4831555,L_Femur,0.5886,9.6899,-0.5981,0.2441,-0.4272,-0.061,93.5541,-3.5101,35.4199,0.6875,-0.2415,0.187,0.6589
1777530624.4831555,L_Tibia,-0.2153,-8.7473,-4.1535,-0.2441,-0.2441,0.4883,-115.4279,1.2799,-141.7676,-0.2825,-0.7968,-0.5078,0.166
1777530624.4831555,L_Foot,-1.0145,-0.1148,10.001,-0.6714,-0.2441,0.3052,-0.6702,5.8173,107.3969,0.0374,0.0347,0.8047,0.5915
1777530624.4831555,R_Femur,0.0,0.0,0.0,0.0,0.0,0.0,0.0,0.0,0.0,0.0,0.0,0.0,1.0
1777530624.4831555,R_Tibia,-0.1005,-9.4746,2.4883,0.2441,-0.1831,0.3662,-75.2728,0.5658,-112.7417,-0.3414,-0.5063,-0.661,0.4361
1777530624.4831555,R_Foot,0.8565,1.2298,9.8909,0.4883,0.0,-0.061,7.0807,-4.9164,4.5538,0.0599,-0.0452,0.037,0.9965
1777530624.4841573,Trunk,-7.1777,-0.6125,-6.4743,0.9766,-0.061,-0.5493,-174.4464,47.8455,68.0164,-0.7459,0.5269,-0.311,0.2632
1777530624.4841573,L_Femur,0.5886,9.6899,-0.5981,0.2441,-0.4272,-0.061,93.5541,-3.5101,35.4199,0.6875,-0.2415,0.187,0.6589
1777530624.4841573,L_Tibia,-0.2153,-8.7473,-4.1535,-0.2441,-0.2441,0.4883,-115.4279,1.2799,-141.7676,-0.2825,-0.7968,-0.5078,0.166
1777530624.4841573,L_Foot,-1.0145,-0.1148,10.001,-0.6714,-0.2441,0.3052,-0.6702,5.8173,107.3969,0.0374,0.0347,0.8047,0.5915
1777530624.4841573,R_Femur,0.0,0.0,0.0,0.0,0.0,0.0,0.0,0.0,0.0,0.0,0.0,0.0,1.0
1777530624.4841573,R_Tibia,-0.1005,-9.4746,2.4883,0.2441,-0.1831,0.3662,-75.2728,0.5658,-112.7417,-0.3414,-0.5063,-0.661,0.4361
1777530624.4841573,R_Foot,0.8565,1.2298,9.8909,0.4883,0.0,-0.061,7.0807,-4.9164,4.5538,0.0599,-0.0452,0.037,0.9965
1777530624.4841573,Trunk,-7.1777,-0.6125,-6.4743,0.9766,-0.061,-0.5493,-174.4464,47.8455,68.0164,-0.7459,0.5269,-0.311,0.2632
1777530624.4841573,L_Femur,0.5934,9.6852,-0.6029,0.2441,-0.4272,-0.1221,93.5541,-3.5101,35.4199,0.6875,-0.2415,0.187,0.6589
1777530624.4841573,L_Tibia,-0.2153,-8.7473,-4.1535,-0.2441,-0.2441,0.4883,-115.4279,1.2799,-141.7676,-0.2825,-0.7968,-0.5078,0.166
1777530624.4841573,L_Foot,-1.0145,-0.1148,10.001,-0.6714,-0.2441,0.3052,-0.6702,5.8173,107.3969,0.0374,0.0347,0.8047,0.5915
1777530624.4841573,R_Femur,0.0,0.0,0.0,0.0,0.0,0.0,0.0,0.0,0.0,0.0,0.0,0.0,1.0
1777530624.4841573,R_Tibia,-0.1005,-9.4746,2.4883,0.2441,-0.1831,0.3662,-75.2728,0.5658,-112.7417,-0.3414,-0.5063,-0.661,0.4361
1777530624.4841573,R_Foot,0.8565,1.2298,9.8909,0.4883,0.0,-0.061,7.0807,-4.9164,4.5538,0.0599,-0.0452,0.037,0.9965
1777530624.4841573,Trunk,-7.1777,-0.6125,-6.4743,0.9766,-0.061,-0.5493,-174.4464,47.8455,68.0164,-0.7459,0.5269,-0.311,0.2632
1777530624.4841573,L_Femur,0.5934,9.6852,-0.6029,0.2441,-0.4272,-0.1221,93.5541,-3.5101,35.4199,0.6875,-0.2415,0.187,0.6589
1777530624.4841573,L_Tibia,-0.2201,-8.7473,-4.1535,-0.2441,-0.3052,0.4883,-115.4279,1.2799,-141.7676,-0.2825,-0.7968,-0.5078,0.166
1777530624.4841573,L_Foot,-1.0145,-0.1148,10.001,-0.6714,-0.2441,0.3052,-0.6702,5.8173,107.3969,0.0374,0.0347,0.8047,0.5915
1777530624.4841573,R_Femur,0.0,0.0,0.0,0.0,0.0,0.0,0.0,0.0,0.0,0.0,0.0,0.0,1.0
1777530624.4841573,R_Tibia,-0.1005,-9.4746,2.4883,0.2441,-0.1831,0.3662,-75.2728,0.5658,-112.7417,-0.3414,-0.5063,-0.661,0.4361
1777530624.4841573,R_Foot,0.8565,1.2298,9.8909,0.4883,0.0,-0.061,7.0807,-4.9164,4.5538,0.0599,-0.0452,0.037,0.9965
1777530624.4841573,Trunk,-7.1777,-0.6125,-6.4743,0.9766,-0.061,-0.5493,-174.4464,47.8455,68.0164,-0.7459,0.5269,-0.311,0.2632
1777530624.4841573,L_Femur,0.5934,9.6852,-0.6029,0.2441,-0.4272,-0.1221,93.5541,-3.5101,35.4199,0.6875,-0.2415,0.187,0.6589
1777530624.4841573,L_Tibia,-0.2201,-8.7473,-4.1535,-0.2441,-0.3052,0.4883,-115.4279,1.2799,-141.7676,-0.2825,-0.7968,-0.5078,0.166
1777530624.4841573,L_Foot,-1.0145,-0.1196,10.001,-0.6714,-0.2441,0.3052,-0.6702,5.8173,107.3969,0.0374,0.0347,0.8047,0.5915
1777530624.4841573,R_Femur,0.0,0.0,0.0,0.0,0.0,0.0,0.0,0.0,0.0,0.0,0.0,0.0,1.0
1777530624.4841573,R_Tibia,-0.1005,-9.4746,2.4883,0.2441,-0.1831,0.3662,-75.2728,0.5658,-112.7417,-0.3414,-0.5063,-0.661,0.4361
1777530624.4841573,R_Foot,0.8565,1.2298,9.8909,0.4883,0.0,-0.061,7.0807,-4.9164,4.5538,0.0599,-0.0452,0.037,0.9965
1777530624.4841573,Trunk,-7.1777,-0.6125,-6.4743,0.9766,-0.061,-0.5493,-174.4464,47.8455,68.0164,-0.7459,0.5269,-0.311,0.2632
1777530624.4841573,L_Femur,0.5934,9.6852,-0.6029,0.2441,-0.4272,-0.1221,93.5541,-3.5101,35.4199,0.6875,-0.2415,0.187,0.6589
1777530624.4841573,L_Tibia,-0.2201,-8.7473,-4.1535,-0.2441,-0.3052,0.4883,-115.4279,1.2799,-141.7676,-0.2825,-0.7968,-0.5078,0.166
1777530624.4841573,L_Foot,-1.0145,-0.1196,10.001,-0.6714,-0.2441,0.3052,-0.6702,5.8173,107.3969,0.0374,0.0347,0.8047,0.5915
1777530624.4841573,R_Femur,0.0,0.0,0.0,0.0,0.0,0.0,0.0,0.0,0.0,0.0,0.0,0.0,1.0
1777530624.4841573,R_Tibia,-0.1005,-9.4746,2.4883,0.2441,-0.1831,0.3662,-75.2728,0.5658,-112.7417,-0.3414,-0.5063,-0.661,0.4361
1777530624.4841573,R_Foot,0.8565,1.2298,9.8957,0.4272,0.061,-0.1221,7.0807,-4.9164,4.5538,0.0599,-0.0452,0.037,0.9965
1777530624.485155,Trunk,-7.1682,-0.6269,-6.4839,0.9766,-0.3052,-0.6714,-174.4464,47.8455,68.0164,-0.7459,0.5269,-0.311,0.2632
1777530624.485155,L_Femur,0.5934,9.6852,-0.6029,0.2441,-0.4272,-0.1221,93.5541,-3.5101,35.4199,0.6875,-0.2415,0.187,0.6589
1777530624.485155,L_Tibia,-0.2201,-8.7473,-4.1535,-0.2441,-0.3052,0.4883,-115.4279,1.2799,-141.7676,-0.2825,-0.7968,-0.5078,0.166
1777530624.485155,L_Foot,-1.0145,-0.1196,10.001,-0.6714,-0.2441,0.3052,-0.6702,5.8173,107.3969,0.0374,0.0347,0.8047,0.5915
1777530624.485155,R_Femur,0.0,0.0,0.0,0.0,0.0,0.0,0.0,0.0,0.0,0.0,0.0,0.0,1.0
1777530624.485155,R_Tibia,-0.1005,-9.4746,2.4883,0.2441,-0.1831,0.3662,-75.2728,0.5658,-112.7417,-0.3414,-0.5063,-0.661,0.4361
1777530624.485155,R_Foot,0.8565,1.2298,9.8957,0.4272,0.061,-0.1221,7.0807,-4.9164,4.5538,0.0599,-0.0452,0.037,0.9965
1777530624.485155,Trunk,-7.1682,-0.6269,-6.4839,0.9766,-0.3052,-0.6714,-174.4464,47.8455,68.0164,-0.7459,0.5269,-0.311,0.2632
1777530624.485155,L_Femur,0.5981,9.6899,-0.5981,0.2441,-0.4272,-0.1221,93.5541,-3.5101,35.4199,0.6875,-0.2415,0.187,0.6589
1777530624.485155,L_Tibia,-0.2201,-8.7473,-4.1535,-0.2441,-0.3052,0.4883,-115.4279,1.2799,-141.7676,-0.2825,-0.7968,-0.5078,0.166
1777530624.485155,L_Foot,-1.0145,-0.1196,10.001,-0.6714,-0.2441,0.3052,-0.6702,5.8173,107.3969,0.0374,0.0347,0.8047,0.5915
1777530624.485155,R_Femur,0.0,0.0,0.0,0.0,0.0,0.0,0.0,0.0,0.0,0.0,0.0,0.0,1.0
1777530624.485155,R_Tibia,-0.1005,-9.4746,2.4883,0.2441,-0.1831,0.3662,-75.2728,0.5658,-112.7417,-0.3414,-0.5063,-0.661,0.4361
1777530624.485155,R_Foot,0.8565,1.2298,9.8957,0.4272,0.061,-0.1221,7.0807,-4.9164,4.5538,0.0599,-0.0452,0.037,0.9965
1777530624.485155,Trunk,-7.1682,-0.6269,-6.4839,0.9766,-0.3052,-0.6714,-174.4464,47.8455,68.0164,-0.7459,0.5269,-0.311,0.2632
1777530624.485155,L_Femur,0.5981,9.6899,-0.5981,0.2441,-0.4272,-0.1221,93.5541,-3.5101,35.4199,0.6875,-0.2415,0.187,0.6589
1777530624.485155,L_Tibia,-0.2201,-8.7425,-4.1583,-0.3052,-0.3052,0.4883,-115.4279,1.2799,-141.7676,-0.2825,-0.7968,-0.5078,0.166
1777530624.485155,L_Foot,-1.0145,-0.1196,10.001,-0.6714,-0.2441,0.3052,-0.6702,5.8173,107.3969,0.0374,0.0347,0.8047,0.5915
1777530624.485155,R_Femur,0.0,0.0,0.0,0.0,0.0,0.0,0.0,0.0,0.0,0.0,0.0,0.0,1.0
1777530624.485155,R_Tibia,-0.1005,-9.4746,2.4883,0.2441,-0.1831,0.3662,-75.2728,0.5658,-112.7417,-0.3414,-0.5063,-0.661,0.4361
1777530624.485155,R_Foot,0.8565,1.2298,9.8957,0.4272,0.061,-0.1221,7.0807,-4.9164,4.5538,0.0599,-0.0452,0.037,0.9965
1777530624.5641406,Trunk,-7.1682,-0.6269,-6.4839,0.9766,-0.3052,-0.6714,-174.4464,47.8455,68.0164,-0.7459,0.5269,-0.311,0.2632
1777530624.5641406,L_Femur,0.5981,9.6899,-0.5981,0.2441,-0.4272,-0.1221,93.5541,-3.5101,35.4199,0.6875,-0.2415,0.187,0.6589
1777530624.5641406,L_Tibia,-0.2201,-8.7425,-4.1583,-0.3052,-0.3052,0.4883,-115.4279,1.2799,-141.7676,-0.2825,-0.7968,-0.5078,0.166
1777530624.5641406,L_Foot,-1.024,-0.1148,10.001,-0.6714,-0.3052,0.2441,-0.6702,5.8173,107.3969,0.0374,0.0347,0.8047,0.5915
1777530624.5641406,R_Femur,0.0,0.0,0.0,0.0,0.0,0.0,0.0,0.0,0.0,0.0,0.0,0.0,1.0
1777530624.5641406,R_Tibia,-0.1005,-9.4746,2.4883,0.2441,-0.1831,0.3662,-75.2728,0.5658,-112.7417,-0.3414,-0.5063,-0.661,0.4361
1777530624.5641406,R_Foot,0.8565,1.2298,9.8957,0.4272,0.061,-0.1221,7.0807,-4.9164,4.5538,0.0599,-0.0452,0.037,0.9965
1777530624.5641406,Trunk,-7.1586,-0.6364,-6.4743,0.9766,-0.2441,-0.6714,-174.4464,47.8455,68.0164,-0.7459,0.5269,-0.311,0.2632
1777530624.5641406,L_Femur,0.5981,9.6899,-0.5981,0.2441,-0.4272,-0.1221,93.5541,-3.5101,35.4199,0.6875,-0.2415,0.187,0.6589
1777530624.5641406,L_Tibia,-0.2201,-8.7425,-4.1583,-0.3052,-0.3052,0.4883,-115.4279,1.2799,-141.7676,-0.2825,-0.7968,-0.5078,0.166
1777530624.5641406,L_Foot,-1.024,-0.1148,10.001,-0.6714,-0.3052,0.2441,-0.6702,5.8173,107.3969,0.0374,0.0347,0.8047,0.5915
1777530624.5641406,R_Femur,0.0,0.0,0.0,0.0,0.0,0.0,0.0,0.0,0.0,0.0,0.0,0.0,1.0
1777530624.5641406,R_Tibia,-0.1005,-9.4746,2.4883,0.2441,-0.1831,0.3662,-75.2728,0.5658,-112.7417,-0.3414,-0.5063,-0.661,0.4361
1777530624.5641406,R_Foot,0.8565,1.2298,9.8957,0.4272,0.061,-0.1221,7.0807,-4.9164,4.5538,0.0599,-0.0452,0.037,0.9965
1777530624.5651412,Trunk,-7.1586,-0.6364,-6.4743,0.9766,-0.2441,-0.6714,-174.4464,47.8455,68.0164,-0.7459,0.5269,-0.311,0.2632
1777530624.5651412,L_Femur,0.5981,9.6899,-0.5981,0.1831,-0.4883,-0.1221,93.5541,-3.5101,35.4199,0.6875,-0.2415,0.187,0.6589
1777530624.5651412,L_Tibia,-0.2201,-8.7425,-4.1583,-0.3052,-0.3052,0.4883,-115.4279,1.2799,-141.7676,-0.2825,-0.7968,-0.5078,0.166
1777530624.5651412,L_Foot,-1.024,-0.1148,10.001,-0.6714,-0.3052,0.2441,-0.6702,5.8173,107.3969,0.0374,0.0347,0.8047,0.5915
1777530624.5651412,R_Femur,0.0,0.0,0.0,0.0,0.0,0.0,0.0,0.0,0.0,0.0,0.0,0.0,1.0
1777530624.5651412,R_Tibia,-0.1005,-9.4746,2.4883,0.2441,-0.1831,0.3662,-75.2728,0.5658,-112.7417,-0.3414,-0.5063,-0.661,0.4361
1777530624.5651412,R_Foot,0.8565,1.2298,9.8957,0.4272,0.061,-0.1221,7.0807,-4.9164,4.5538,0.0599,-0.0452,0.037,0.9965
1777530624.5651412,Trunk,-7.1586,-0.6364,-6.4743,0.9766,-0.2441,-0.6714,-174.4464,47.8455,68.0164,-0.7459,0.5269,-0.311,0.2632
1777530624.5651412,L_Femur,0.5981,9.6899,-0.5981,0.1831,-0.4883,-0.1221,93.5541,-3.5101,35.4199,0.6875,-0.2415,0.187,0.6589
1777530624.5651412,L_Tibia,-0.2153,-8.7425,-4.1583,-0.3052,-0.2441,0.4883,-115.4279,1.2799,-141.7676,-0.2825,-0.7968,-0.5078,0.166
1777530624.5651412,L_Foot,-1.024,-0.1148,10.001,-0.6714,-0.3052,0.2441,-0.6702,5.8173,107.3969,0.0374,0.0347,0.8047,0.5915
1777530624.5651412,R_Femur,0.0,0.0,0.0,0.0,0.0,0.0,0.0,0.0,0.0,0.0,0.0,0.0,1.0
1777530624.5651412,R_Tibia,-0.1005,-9.4746,2.4883,0.2441,-0.1831,0.3662,-75.2728,0.5658,-112.7417,-0.3414,-0.5063,-0.661,0.4361
1777530624.5651412,R_Foot,0.8565,1.2298,9.8957,0.4272,0.061,-0.1221,7.0807,-4.9164,4.5538,0.0599,-0.0452,0.037,0.9965
1777530624.5651412,Trunk,-7.1586,-0.6364,-6.4743,0.9766,-0.2441,-0.6714,-174.4464,47.8455,68.0164,-0.7459,0.5269,-0.311,0.2632
1777530624.5651412,L_Femur,0.5981,9.6899,-0.5981,0.1831,-0.4883,-0.1221,93.5541,-3.5101,35.4199,0.6875,-0.2415,0.187,0.6589
1777530624.5651412,L_Tibia,-0.2153,-8.7425,-4.1583,-0.3052,-0.2441,0.4883,-115.4279,1.2799,-141.7676,-0.2825,-0.7968,-0.5078,0.166
1777530624.5651412,L_Foot,-1.0145,-0.1148,9.9962,-0.6714,-0.2441,0.3052,-0.6702,5.8173,107.3969,0.0374,0.0347,0.8047,0.5915
1777530624.5651412,R_Femur,0.0,0.0,0.0,0.0,0.0,0.0,0.0,0.0,0.0,0.0,0.0,0.0,1.0
1777530624.5651412,R_Tibia,-0.1005,-9.4746,2.4883,0.2441,-0.1831,0.3662,-75.2728,0.5658,-112.7417,-0.3414,-0.5063,-0.661,0.4361
1777530624.5651412,R_Foot,0.8565,1.2298,9.8957,0.4272,0.061,-0.1221,7.0807,-4.9164,4.5538,0.0599,-0.0452,0.037,0.9965
1777530624.5651412,Trunk,-7.1586,-0.6364,-6.4743,0.9766,-0.2441,-0.6714,-174.4464,47.8455,68.0164,-0.7459,0.5269,-0.311,0.2632
1777530624.5651412,L_Femur,0.5981,9.6899,-0.5981,0.1831,-0.4883,-0.1221,93.5541,-3.5101,35.4199,0.6875,-0.2415,0.187,0.6589
1777530624.5651412,L_Tibia,-0.2153,-8.7425,-4.1583,-0.3052,-0.2441,0.4883,-115.4279,1.2799,-141.7676,-0.2825,-0.7968,-0.5078,0.166
1777530624.5651412,L_Foot,-1.0145,-0.1148,9.9962,-0.6714,-0.2441,0.3052,-0.6702,5.8173,107.3969,0.0374,0.0347,0.8047,0.5915
1777530624.5651412,R_Femur,0.0,0.0,0.0,0.0,0.0,0.0,0.0,0.0,0.0,0.0,0.0,0.0,1.0
1777530624.5651412,R_Tibia,-0.1005,-9.4746,2.4883,0.2441,-0.1831,0.3662,-75.2783,0.5658,-112.7417,-0.3415,-0.5063,-0.661,0.436
1777530624.5651412,R_Foot,0.8565,1.2298,9.8957,0.4272,0.061,-0.1221,7.0807,-4.9164,4.5538,0.0599,-0.0452,0.037,0.9965
1777530624.5651412,Trunk,-7.1586,-0.6364,-6.4743,0.9766,-0.2441,-0.6714,-174.4464,47.8455,68.0164,-0.7459,0.5269,-0.311,0.2632
1777530624.5651412,L_Femur,0.5981,9.6899,-0.5981,0.1831,-0.4883,-0.1221,93.5541,-3.5101,35.4199,0.6875,-0.2415,0.187,0.6589
1777530624.5651412,L_Tibia,-0.2153,-8.7425,-4.1583,-0.3052,-0.2441,0.4883,-115.4279,1.2799,-141.7676,-0.2825,-0.7968,-0.5078,0.166
1777530624.5651412,L_Foot,-1.0145,-0.1148,9.9962,-0.6714,-0.2441,0.3052,-0.6702,5.8173,107.3969,0.0374,0.0347,0.8047,0.5915
1777530624.5651412,R_Femur,0.0,0.0,0.0,0.0,0.0,0.0,0.0,0.0,0.0,0.0,0.0,0.0,1.0
1777530624.5651412,R_Tibia,-0.1005,-9.4746,2.4883,0.2441,-0.1831,0.3662,-75.2783,0.5658,-112.7417,-0.3415,-0.5063,-0.661,0.436
1777530624.5651412,R_Foot,0.8565,1.2298,9.8861,0.4883,0.061,-0.1221,7.0807,-4.9164,4.5538,0.0599,-0.0452,0.037,0.9965
1777530624.5651412,Trunk,-7.1634,-0.6556,-6.4552,0.9155,0.0,-0.5493,-174.4464,47.8455,68.0109,-0.7459,0.5269,-0.311,0.2632
1777530624.5651412,L_Femur,0.5981,9.6899,-0.5981,0.1831,-0.4883,-0.1221,93.5541,-3.5101,35.4199,0.6875,-0.2415,0.187,0.6589
1777530624.5651412,L_Tibia,-0.2153,-8.7425,-4.1583,-0.3052,-0.2441,0.4883,-115.4279,1.2799,-141.7676,-0.2825,-0.7968,-0.5078,0.166
1777530624.5651412,L_Foot,-1.0145,-0.1148,9.9962,-0.6714,-0.2441,0.3052,-0.6702,5.8173,107.3969,0.0374,0.0347,0.8047,0.5915
1777530624.5651412,R_Femur,0.0,0.0,0.0,0.0,0.0,0.0,0.0,0.0,0.0,0.0,0.0,0.0,1.0
1777530624.5651412,R_Tibia,-0.1005,-9.4746,2.4883,0.2441,-0.1831,0.3662,-75.2783,0.5658,-112.7417,-0.3415,-0.5063,-0.661,0.436
1777530624.5651412,R_Foot,0.8565,1.2298,9.8861,0.4883,0.061,-0.1221,7.0807,-4.9164,4.5538,0.0599,-0.0452,0.037,0.9965
1777530624.5651412,Trunk,-7.1634,-0.6556,-6.4552,0.9155,0.0,-0.5493,-174.4464,47.8455,68.0109,-0.7459,0.5269,-0.311,0.2632
1777530624.5651412,L_Femur,0.5981,9.6899,-0.6029,0.2441,-0.4272,-0.1221,93.5541,-3.5101,35.4199,0.6875,-0.2415,0.187,0.6589
1777530624.5651412,L_Tibia,-0.2153,-8.7425,-4.1583,-0.3052,-0.2441,0.4883,-115.4279,1.2799,-141.7676,-0.2825,-0.7968,-0.5078,0.166
1777530624.5651412,L_Foot,-1.0145,-0.1148,9.9962,-0.6714,-0.2441,0.3052,-0.6702,5.8173,107.3969,0.0374,0.0347,0.8047,0.5915
1777530624.5651412,R_Femur,0.0,0.0,0.0,0.0,0.0,0.0,0.0,0.0,0.0,0.0,0.0,0.0,1.0
1777530624.5651412,R_Tibia,-0.1005,-9.4746,2.4883,0.2441,-0.1831,0.3662,-75.2783,0.5658,-112.7417,-0.3415,-0.5063,-0.661,0.436
1777530624.5651412,R_Foot,0.8565,1.2298,9.8861,0.4883,0.061,-0.1221,7.0807,-4.9164,4.5538,0.0599,-0.0452,0.037,0.9965
1777530624.5651412,Trunk,-7.1634,-0.6556,-6.4552,0.9155,0.0,-0.5493,-174.4464,47.8455,68.0109,-0.7459,0.5269,-0.311,0.2632
1777530624.5651412,L_Femur,0.5981,9.6899,-0.6029,0.2441,-0.4272,-0.1221,93.5541,-3.5101,35.4199,0.6875,-0.2415,0.187,0.6589
1777530624.5651412,L_Tibia,-0.2201,-8.7473,-4.1631,-0.2441,-0.3052,0.4883,-115.4279,1.2799,-141.7676,-0.2825,-0.7968,-0.5078,0.166
1777530624.5651412,L_Foot,-1.0145,-0.1148,9.9962,-0.6714,-0.2441,0.3052,-0.6702,5.8173,107.3969,0.0374,0.0347,0.8047,0.5915
1777530624.5651412,R_Femur,0.0,0.0,0.0,0.0,0.0,0.0,0.0,0.0,0.0,0.0,0.0,0.0,1.0
1777530624.5651412,R_Tibia,-0.1005,-9.4746,2.4883,0.2441,-0.1831,0.3662,-75.2783,0.5658,-112.7417,-0.3415,-0.5063,-0.661,0.436
1777530624.5651412,R_Foot,0.8565,1.2298,9.8861,0.4883,0.061,-0.1221,7.0807,-4.9164,4.5538,0.0599,-0.0452,0.037,0.9965
1777530624.5666463,Trunk,-7.1634,-0.6556,-6.4552,0.9155,0.0,-0.5493,-174.4464,47.8455,68.0109,-0.7459,0.5269,-0.311,0.2632
1777530624.5666463,L_Femur,0.5981,9.6899,-0.6029,0.2441,-0.4272,-0.1221,93.5541,-3.5101,35.4199,0.6875,-0.2415,0.187,0.6589
1777530624.5666463,L_Tibia,-0.2201,-8.7473,-4.1631,-0.2441,-0.3052,0.4883,-115.4279,1.2799,-141.7676,-0.2825,-0.7968,-0.5078,0.166
1777530624.5666463,L_Foot,-1.0097,-0.1101,10.001,-0.6714,-0.1831,0.3052,-0.6702,5.8173,107.3969,0.0374,0.0347,0.8047,0.5915
1777530624.5666463,R_Femur,0.0,0.0,0.0,0.0,0.0,0.0,0.0,0.0,0.0,0.0,0.0,0.0,1.0
1777530624.5666463,R_Tibia,-0.1005,-9.4746,2.4883,0.2441,-0.1831,0.3662,-75.2783,0.5658,-112.7417,-0.3415,-0.5063,-0.661,0.436
1777530624.5666463,R_Foot,0.8565,1.2298,9.8861,0.4883,0.061,-0.1221,7.0807,-4.9164,4.5538,0.0599,-0.0452,0.037,0.9965
1777530624.5666463,Trunk,-7.1682,-0.6508,-6.4695,0.9155,-0.061,-0.6104,-174.4464,47.8455,68.0109,-0.7459,0.5269,-0.311,0.2632
1777530624.5666463,L_Femur,0.5981,9.6899,-0.6029,0.2441,-0.4272,-0.1221,93.5541,-3.5101,35.4199,0.6875,-0.2415,0.187,0.6589
1777530624.5666463,L_Tibia,-0.2201,-8.7473,-4.1631,-0.2441,-0.3052,0.4883,-115.4279,1.2799,-141.7676,-0.2825,-0.7968,-0.5078,0.166
1777530624.5666463,L_Foot,-1.0097,-0.1101,10.001,-0.6714,-0.1831,0.3052,-0.6702,5.8173,107.3969,0.0374,0.0347,0.8047,0.5915
1777530624.5666463,R_Femur,0.0,0.0,0.0,0.0,0.0,0.0,0.0,0.0,0.0,0.0,0.0,0.0,1.0
1777530624.5666463,R_Tibia,-0.1005,-9.4746,2.4883,0.2441,-0.1831,0.3662,-75.2783,0.5658,-112.7417,-0.3415,-0.5063,-0.661,0.436
1777530624.5666463,R_Foot,0.8565,1.2298,9.8861,0.4883,0.061,-0.1221,7.0807,-4.9164,4.5538,0.0599,-0.0452,0.037,0.9965
1777530624.5666463,Trunk,-7.1682,-0.6508,-6.4695,0.9155,-0.061,-0.6104,-174.4464,47.8455,68.0109,-0.7459,0.5269,-0.311,0.2632
1777530624.5666463,L_Femur,0.5981,9.6899,-0.6029,0.2441,-0.4272,-0.1831,93.5541,-3.5101,35.4199,0.6875,-0.2415,0.187,0.6589
1777530624.5666463,L_Tibia,-0.2201,-8.7473,-4.1631,-0.2441,-0.3052,0.4883,-115.4279,1.2799,-141.7676,-0.2825,-0.7968,-0.5078,0.166
1777530624.5666463,L_Foot,-1.0097,-0.1101,10.001,-0.6714,-0.1831,0.3052,-0.6702,5.8173,107.3969,0.0374,0.0347,0.8047,0.5915
1777530624.5666463,R_Femur,0.0,0.0,0.0,0.0,0.0,0.0,0.0,0.0,0.0,0.0,0.0,0.0,1.0
1777530624.5666463,R_Tibia,-0.1005,-9.4746,2.4883,0.2441,-0.1831,0.3662,-75.2783,0.5658,-112.7417,-0.3415,-0.5063,-0.661,0.436
1777530624.5666463,R_Foot,0.8565,1.2298,9.8861,0.4883,0.061,-0.1221,7.0807,-4.9164,4.5538,0.0599,-0.0452,0.037,0.9965
1777530624.5666463,Trunk,-7.1682,-0.6508,-6.4695,0.9155,-0.061,-0.6104,-174.4464,47.8455,68.0109,-0.7459,0.5269,-0.311,0.2632
1777530624.5666463,L_Femur,0.5981,9.6899,-0.6029,0.2441,-0.4272,-0.1831,93.5541,-3.5101,35.4199,0.6875,-0.2415,0.187,0.6589
1777530624.5666463,L_Tibia,-0.2201,-8.7473,-4.1631,-0.2441,-0.3052,0.4883,-115.4279,1.2799,-141.7676,-0.2825,-0.7968,-0.5078,0.166
1777530624.5666463,L_Foot,-1.024,-0.1148,10.001,-0.6714,-0.3052,0.3052,-0.6702,5.8173,107.3969,0.0374,0.0347,0.8047,0.5915
1777530624.5666463,R_Femur,0.0,0.0,0.0,0.0,0.0,0.0,0.0,0.0,0.0,0.0,0.0,0.0,1.0
1777530624.5666463,R_Tibia,-0.1005,-9.4746,2.4883,0.2441,-0.1831,0.3662,-75.2783,0.5658,-112.7417,-0.3415,-0.5063,-0.661,0.436
1777530624.5666463,R_Foot,0.8565,1.2298,9.8861,0.4883,0.061,-0.1221,7.0807,-4.9164,4.5538,0.0599,-0.0452,0.037,0.9965
1777530624.5666463,Trunk,-7.1682,-0.6508,-6.4695,0.9155,-0.061,-0.6104,-174.4464,47.8455,68.0109,-0.7459,0.5269,-0.311,0.2632
1777530624.5666463,L_Femur,0.5981,9.6899,-0.6029,0.2441,-0.4272,-0.1831,93.5541,-3.5101,35.4199,0.6875,-0.2415,0.187,0.6589
1777530624.5666463,L_Tibia,-0.2201,-8.7473,-4.1631,-0.2441,-0.3052,0.4883,-115.4279,1.2799,-141.7676,-0.2825,-0.7968,-0.5078,0.166
1777530624.5666463,L_Foot,-1.024,-0.1148,10.001,-0.6714,-0.3052,0.3052,-0.6702,5.8173,107.3969,0.0374,0.0347,0.8047,0.5915
1777530624.5666463,R_Femur,0.0,0.0,0.0,0.0,0.0,0.0,0.0,0.0,0.0,0.0,0.0,0.0,1.0
1777530624.5666463,R_Tibia,-0.1005,-9.4746,2.4931,0.2441,-0.1831,0.3662,-75.2783,0.5658,-112.7417,-0.3415,-0.5063,-0.661,0.436
1777530624.5666463,R_Foot,0.8565,1.2298,9.8861,0.4883,0.061,-0.1221,7.0807,-4.9164,4.5538,0.0599,-0.0452,0.037,0.9965
1777530624.5666463,Trunk,-7.1682,-0.6508,-6.4695,0.9155,-0.061,-0.6104,-174.4464,47.8455,68.0109,-0.7459,0.5269,-0.311,0.2632
1777530624.5666463,L_Femur,0.5981,9.6899,-0.6029,0.2441,-0.4272,-0.1831,93.5541,-3.5101,35.4199,0.6875,-0.2415,0.187,0.6589
1777530624.5666463,L_Tibia,-0.2201,-8.7473,-4.1631,-0.2441,-0.3052,0.4883,-115.4279,1.2799,-141.7676,-0.2825,-0.7968,-0.5078,0.166
1777530624.5666463,L_Foot,-1.024,-0.1148,10.001,-0.6714,-0.3052,0.3052,-0.6702,5.8173,107.3969,0.0374,0.0347,0.8047,0.5915
1777530624.5666463,R_Femur,0.0,0.0,0.0,0.0,0.0,0.0,0.0,0.0,0.0,0.0,0.0,0.0,1.0
1777530624.5666463,R_Tibia,-0.1005,-9.4746,2.4931,0.2441,-0.1831,0.3662,-75.2783,0.5658,-112.7417,-0.3415,-0.5063,-0.661,0.436
1777530624.5666463,R_Foot,0.8565,1.2298,9.8909,0.4883,0.0,-0.061,7.0807,-4.9164,4.5538,0.0599,-0.0452,0.037,0.9965
1777530624.5676506,Trunk,-7.1825,-0.646,-6.4839,1.0376,-0.3662,-0.7324,-174.4464,47.8455,68.0109,-0.7459,0.5269,-0.311,0.2632
1777530624.5676506,L_Femur,0.5981,9.6899,-0.6029,0.2441,-0.4272,-0.1831,93.5541,-3.5101,35.4199,0.6875,-0.2415,0.187,0.6589
1777530624.5676506,L_Tibia,-0.2201,-8.7473,-4.1631,-0.2441,-0.3052,0.4883,-115.4279,1.2799,-141.7676,-0.2825,-0.7968,-0.5078,0.166
1777530624.5676506,L_Foot,-1.024,-0.1148,10.001,-0.6714,-0.3052,0.3052,-0.6702,5.8173,107.3969,0.0374,0.0347,0.8047,0.5915
1777530624.5676506,R_Femur,0.0,0.0,0.0,0.0,0.0,0.0,0.0,0.0,0.0,0.0,0.0,0.0,1.0
1777530624.5676506,R_Tibia,-0.1005,-9.4746,2.4931,0.2441,-0.1831,0.3662,-75.2783,0.5658,-112.7417,-0.3415,-0.5063,-0.661,0.436
1777530624.5676506,R_Foot,0.8565,1.2298,9.8909,0.4883,0.0,-0.061,7.0807,-4.9164,4.5538,0.0599,-0.0452,0.037,0.9965
1777530624.5676506,Trunk,-7.1825,-0.646,-6.4839,1.0376,-0.3662,-0.7324,-174.4464,47.8455,68.0109,-0.7459,0.5269,-0.311,0.2632
1777530624.5676506,L_Femur,0.5934,9.6899,-0.6029,0.1831,-0.4272,-0.1221,93.5541,-3.5101,35.4199,0.6875,-0.2415,0.187,0.6589
1777530624.5676506,L_Tibia,-0.2201,-8.7473,-4.1631,-0.2441,-0.3052,0.4883,-115.4279,1.2799,-141.7676,-0.2825,-0.7968,-0.5078,0.166
1777530624.5676506,L_Foot,-1.024,-0.1148,10.001,-0.6714,-0.3052,0.3052,-0.6702,5.8173,107.3969,0.0374,0.0347,0.8047,0.5915
1777530624.5676506,R_Femur,0.0,0.0,0.0,0.0,0.0,0.0,0.0,0.0,0.0,0.0,0.0,0.0,1.0
1777530624.5676506,R_Tibia,-0.1005,-9.4746,2.4931,0.2441,-0.1831,0.3662,-75.2783,0.5658,-112.7417,-0.3415,-0.5063,-0.661,0.436
1777530624.5676506,R_Foot,0.8565,1.2298,9.8909,0.4883,0.0,-0.061,7.0807,-4.9164,4.5538,0.0599,-0.0452,0.037,0.9965
1777530624.5676506,Trunk,-7.1825,-0.646,-6.4839,1.0376,-0.3662,-0.7324,-174.4464,47.8455,68.0109,-0.7459,0.5269,-0.311,0.2632
1777530624.5676506,L_Femur,0.5934,9.6899,-0.6029,0.1831,-0.4272,-0.1221,93.5541,-3.5101,35.4199,0.6875,-0.2415,0.187,0.6589
1777530624.5676506,L_Tibia,-0.2153,-8.7425,-4.1583,-0.2441,-0.2441,0.4883,-115.4279,1.2799,-141.7676,-0.2825,-0.7968,-0.5078,0.166
1777530624.5676506,L_Foot,-1.024,-0.1148,10.001,-0.6714,-0.3052,0.3052,-0.6702,5.8173,107.3969,0.0374,0.0347,0.8047,0.5915
1777530624.5676506,R_Femur,0.0,0.0,0.0,0.0,0.0,0.0,0.0,0.0,0.0,0.0,0.0,0.0,1.0
1777530624.5676506,R_Tibia,-0.1005,-9.4746,2.4931,0.2441,-0.1831,0.3662,-75.2783,0.5658,-112.7417,-0.3415,-0.5063,-0.661,0.436
1777530624.5676506,R_Foot,0.8565,1.2298,9.8909,0.4883,0.0,-0.061,7.0807,-4.9164,4.5538,0.0599,-0.0452,0.037,0.9965
1777530624.6814458,Trunk,-7.1825,-0.646,-6.4839,1.0376,-0.3662,-0.7324,-174.4464,47.8455,68.0109,-0.7459,0.5269,-0.311,0.2632
1777530624.6814458,L_Femur,0.5934,9.6899,-0.6029,0.1831,-0.4272,-0.1221,93.5541,-3.5101,35.4199,0.6875,-0.2415,0.187,0.6589
1777530624.6814458,L_Tibia,-0.2153,-8.7425,-4.1583,-0.2441,-0.2441,0.4883,-115.4279,1.2799,-141.7676,-0.2825,-0.7968,-0.5078,0.166
1777530624.6814458,L_Foot,-1.0192,-0.1101,10.0058,-0.7324,-0.3052,0.3052,-0.6702,5.8173,107.3969,0.0374,0.0347,0.8047,0.5915
1777530624.6814458,R_Femur,0.0,0.0,0.0,0.0,0.0,0.0,0.0,0.0,0.0,0.0,0.0,0.0,1.0
1777530624.6814458,R_Tibia,-0.1005,-9.4746,2.4931,0.2441,-0.1831,0.3662,-75.2783,0.5658,-112.7417,-0.3415,-0.5063,-0.661,0.436
1777530624.6814458,R_Foot,0.8565,1.2298,9.8909,0.4883,0.0,-0.061,7.0807,-4.9164,4.5538,0.0599,-0.0452,0.037,0.9965
1777530624.6814458,Trunk,-7.1825,-0.646,-6.4456,1.0376,-0.061,-0.6104,-174.4464,47.8455,68.0109,-0.7459,0.5269,-0.311,0.2632
1777530624.6814458,L_Femur,0.5934,9.6899,-0.6029,0.1831,-0.4272,-0.1221,93.5541,-3.5101,35.4199,0.6875,-0.2415,0.187,0.6589
1777530624.6814458,L_Tibia,-0.2153,-8.7425,-4.1583,-0.2441,-0.2441,0.4883,-115.4279,1.2799,-141.7676,-0.2825,-0.7968,-0.5078,0.166
1777530624.6814458,L_Foot,-1.0192,-0.1101,10.0058,-0.7324,-0.3052,0.3052,-0.6702,5.8173,107.3969,0.0374,0.0347,0.8047,0.5915
1777530624.6814458,R_Femur,0.0,0.0,0.0,0.0,0.0,0.0,0.0,0.0,0.0,0.0,0.0,0.0,1.0
1777530624.6814458,R_Tibia,-0.1005,-9.4746,2.4931,0.2441,-0.1831,0.3662,-75.2783,0.5658,-112.7417,-0.3415,-0.5063,-0.661,0.436
1777530624.6814458,R_Foot,0.8565,1.2298,9.8909,0.4883,0.0,-0.061,7.0807,-4.9164,4.5538,0.0599,-0.0452,0.037,0.9965
1777530624.6814458,Trunk,-7.1825,-0.646,-6.4456,1.0376,-0.061,-0.6104,-174.4464,47.8455,68.0109,-0.7459,0.5269,-0.311,0.2632
1777530624.6814458,L_Femur,0.5981,9.6852,-0.6077,0.3052,-0.4883,-0.1831,93.5541,-3.5101,35.4199,0.6875,-0.2415,0.187,0.6589
1777530624.6814458,L_Tibia,-0.2153,-8.7425,-4.1583,-0.2441,-0.2441,0.4883,-115.4279,1.2799,-141.7676,-0.2825,-0.7968,-0.5078,0.166
1777530624.6814458,L_Foot,-1.0192,-0.1101,10.0058,-0.7324,-0.3052,0.3052,-0.6702,5.8173,107.3969,0.0374,0.0347,0.8047,0.5915
1777530624.6814458,R_Femur,0.0,0.0,0.0,0.0,0.0,0.0,0.0,0.0,0.0,0.0,0.0,0.0,1.0
1777530624.6814458,R_Tibia,-0.1005,-9.4746,2.4931,0.2441,-0.1831,0.3662,-75.2783,0.5658,-112.7417,-0.3415,-0.5063,-0.661,0.436
1777530624.6814458,R_Foot,0.8565,1.2298,9.8909,0.4883,0.0,-0.061,7.0807,-4.9164,4.5538,0.0599,-0.0452,0.037,0.9965
1777530624.6814458,Trunk,-7.1825,-0.646,-6.4456,1.0376,-0.061,-0.6104,-174.4464,47.8455,68.0109,-0.7459,0.5269,-0.311,0.2632
1777530624.6814458,L_Femur,0.5981,9.6852,-0.6077,0.3052,-0.4883,-0.1831,93.5541,-3.5101,35.4199,0.6875,-0.2415,0.187,0.6589
1777530624.6814458,L_Tibia,-0.2153,-8.7473,-4.1631,-0.3052,-0.2441,0.4883,-115.4279,1.2799,-141.7676,-0.2825,-0.7968,-0.5078,0.166
1777530624.6814458,L_Foot,-1.0192,-0.1101,10.0058,-0.7324,-0.3052,0.3052,-0.6702,5.8173,107.3969,0.0374,0.0347,0.8047,0.5915
1777530624.6814458,R_Femur,0.0,0.0,0.0,0.0,0.0,0.0,0.0,0.0,0.0,0.0,0.0,0.0,1.0
1777530624.6814458,R_Tibia,-0.1005,-9.4746,2.4931,0.2441,-0.1831,0.3662,-75.2783,0.5658,-112.7417,-0.3415,-0.5063,-0.661,0.436
1777530624.6814458,R_Foot,0.8565,1.2298,9.8909,0.4883,0.0,-0.061,7.0807,-4.9164,4.5538,0.0599,-0.0452,0.037,0.9965
1777530624.682444,Trunk,-7.1825,-0.646,-6.4456,1.0376,-0.061,-0.6104,-174.4464,47.8455,68.0109,-0.7459,0.5269,-0.311,0.2632
1777530624.682444,L_Femur,0.5981,9.6852,-0.6077,0.3052,-0.4883,-0.1831,93.5541,-3.5101,35.4199,0.6875,-0.2415,0.187,0.6589
1777530624.682444,L_Tibia,-0.2153,-8.7473,-4.1631,-0.3052,-0.2441,0.4883,-115.4279,1.2799,-141.7676,-0.2825,-0.7968,-0.5078,0.166
1777530624.682444,L_Foot,-1.0097,-0.1196,9.9962,-0.6104,-0.2441,0.3662,-0.6702,5.8173,107.3969,0.0374,0.0347,0.8047,0.5915
1777530624.682444,R_Femur,0.0,0.0,0.0,0.0,0.0,0.0,0.0,0.0,0.0,0.0,0.0,0.0,1.0
1777530624.682444,R_Tibia,-0.1005,-9.4746,2.4931,0.2441,-0.1831,0.3662,-75.2783,0.5658,-112.7417,-0.3415,-0.5063,-0.661,0.436
1777530624.682444,R_Foot,0.8565,1.2298,9.8909,0.4883,0.0,-0.061,7.0807,-4.9164,4.5538,0.0599,-0.0452,0.037,0.9965
1777530624.682444,Trunk,-7.1825,-0.646,-6.4456,1.0376,-0.061,-0.6104,-174.4464,47.8455,68.0109,-0.7459,0.5269,-0.311,0.2632
1777530624.682444,L_Femur,0.5981,9.6852,-0.6077,0.3052,-0.4883,-0.1831,93.5541,-3.5101,35.4199,0.6875,-0.2415,0.187,0.6589
1777530624.682444,L_Tibia,-0.2153,-8.7473,-4.1631,-0.3052,-0.2441,0.4883,-115.4279,1.2799,-141.7676,-0.2825,-0.7968,-0.5078,0.166
1777530624.682444,L_Foot,-1.0097,-0.1196,9.9962,-0.6104,-0.2441,0.3662,-0.6702,5.8173,107.3969,0.0374,0.0347,0.8047,0.5915
1777530624.682444,R_Femur,0.0,0.0,0.0,0.0,0.0,0.0,0.0,0.0,0.0,0.0,0.0,0.0,1.0
1777530624.682444,R_Tibia,-0.0957,-9.4746,2.4883,0.3052,-0.1221,0.3662,-75.2783,0.5658,-112.7417,-0.3415,-0.5063,-0.661,0.436
1777530624.682444,R_Foot,0.8565,1.2298,9.8909,0.4883,0.0,-0.061,7.0807,-4.9164,4.5538,0.0599,-0.0452,0.037,0.9965
1777530624.682444,Trunk,-7.1825,-0.646,-6.4456,1.0376,-0.061,-0.6104,-174.4464,47.8455,68.0109,-0.7459,0.5269,-0.311,0.2632
1777530624.682444,L_Femur,0.5981,9.6852,-0.6077,0.3052,-0.4883,-0.1831,93.5541,-3.5101,35.4199,0.6875,-0.2415,0.187,0.6589
1777530624.682444,L_Tibia,-0.2153,-8.7473,-4.1631,-0.3052,-0.2441,0.4883,-115.4279,1.2799,-141.7676,-0.2825,-0.7968,-0.5078,0.166
1777530624.682444,L_Foot,-1.0097,-0.1196,9.9962,-0.6104,-0.2441,0.3662,-0.6702,5.8173,107.3969,0.0374,0.0347,0.8047,0.5915
1777530624.682444,R_Femur,0.0,0.0,0.0,0.0,0.0,0.0,0.0,0.0,0.0,0.0,0.0,0.0,1.0
1777530624.682444,R_Tibia,-0.0957,-9.4746,2.4883,0.3052,-0.1221,0.3662,-75.2783,0.5658,-112.7417,-0.3415,-0.5063,-0.661,0.436
1777530624.682444,R_Foot,0.8565,1.2298,9.8957,0.4272,0.0,-0.1221,7.0807,-4.9164,4.5483,0.0599,-0.0452,0.0369,0.9965
1777530624.682444,Trunk,-7.1921,-0.6412,-6.4313,0.8545,0.2441,-0.3662,-174.4464,47.8455,68.0109,-0.7459,0.5269,-0.311,0.2632
1777530624.682444,L_Femur,0.5981,9.6852,-0.6077,0.3052,-0.4883,-0.1831,93.5541,-3.5101,35.4199,0.6875,-0.2415,0.187,0.6589
1777530624.682444,L_Tibia,-0.2153,-8.7473,-4.1631,-0.3052,-0.2441,0.4883,-115.4279,1.2799,-141.7676,-0.2825,-0.7968,-0.5078,0.166
1777530624.682444,L_Foot,-1.0097,-0.1196,9.9962,-0.6104,-0.2441,0.3662,-0.6702,5.8173,107.3969,0.0374,0.0347,0.8047,0.5915
1777530624.682444,R_Femur,0.0,0.0,0.0,0.0,0.0,0.0,0.0,0.0,0.0,0.0,0.0,0.0,1.0
1777530624.682444,R_Tibia,-0.0957,-9.4746,2.4883,0.3052,-0.1221,0.3662,-75.2783,0.5658,-112.7417,-0.3415,-0.5063,-0.661,0.436
1777530624.682444,R_Foot,0.8565,1.2298,9.8957,0.4272,0.0,-0.1221,7.0807,-4.9164,4.5483,0.0599,-0.0452,0.0369,0.9965
1777530624.682444,Trunk,-7.1921,-0.6412,-6.4313,0.8545,0.2441,-0.3662,-174.4464,47.8455,68.0109,-0.7459,0.5269,-0.311,0.2632
1777530624.682444,L_Femur,0.5981,9.6899,-0.6077,0.2441,-0.4272,-0.061,93.5541,-3.5101,35.4199,0.6875,-0.2415,0.187,0.6589
1777530624.682444,L_Tibia,-0.2153,-8.7473,-4.1631,-0.3052,-0.2441,0.4883,-115.4279,1.2799,-141.7676,-0.2825,-0.7968,-0.5078,0.166
1777530624.682444,L_Foot,-1.0097,-0.1196,9.9962,-0.6104,-0.2441,0.3662,-0.6702,5.8173,107.3969,0.0374,0.0347,0.8047,0.5915
1777530624.682444,R_Femur,0.0,0.0,0.0,0.0,0.0,0.0,0.0,0.0,0.0,0.0,0.0,0.0,1.0
1777530624.682444,R_Tibia,-0.0957,-9.4746,2.4883,0.3052,-0.1221,0.3662,-75.2783,0.5658,-112.7417,-0.3415,-0.5063,-0.661,0.436
1777530624.682444,R_Foot,0.8565,1.2298,9.8957,0.4272,0.0,-0.1221,7.0807,-4.9164,4.5483,0.0599,-0.0452,0.0369,0.9965
1777530624.682444,Trunk,-7.1921,-0.6412,-6.4313,0.8545,0.2441,-0.3662,-174.4464,47.8455,68.0109,-0.7459,0.5269,-0.311,0.2632
1777530624.682444,L_Femur,0.5981,9.6899,-0.6077,0.2441,-0.4272,-0.061,93.5541,-3.5101,35.4199,0.6875,-0.2415,0.187,0.6589
1777530624.682444,L_Tibia,-0.2153,-8.7473,-4.1583,-0.2441,-0.3052,0.4272,-115.4279,1.2799,-141.7676,-0.2825,-0.7968,-0.5078,0.166
1777530624.682444,L_Foot,-1.0097,-0.1196,9.9962,-0.6104,-0.2441,0.3662,-0.6702,5.8173,107.3969,0.0374,0.0347,0.8047,0.5915
1777530624.682444,R_Femur,0.0,0.0,0.0,0.0,0.0,0.0,0.0,0.0,0.0,0.0,0.0,0.0,1.0
1777530624.682444,R_Tibia,-0.0957,-9.4746,2.4883,0.3052,-0.1221,0.3662,-75.2783,0.5658,-112.7417,-0.3415,-0.5063,-0.661,0.436
1777530624.682444,R_Foot,0.8565,1.2298,9.8957,0.4272,0.0,-0.1221,7.0807,-4.9164,4.5483,0.0599,-0.0452,0.0369,0.9965
1777530624.6834466,Trunk,-7.1921,-0.6412,-6.4313,0.8545,0.2441,-0.3662,-174.4464,47.8455,68.0109,-0.7459,0.5269,-0.311,0.2632
1777530624.6834466,L_Femur,0.5981,9.6899,-0.6077,0.2441,-0.4272,-0.061,93.5541,-3.5101,35.4199,0.6875,-0.2415,0.187,0.6589
1777530624.6834466,L_Tibia,-0.2153,-8.7473,-4.1583,-0.2441,-0.3052,0.4272,-115.4279,1.2799,-141.7676,-0.2825,-0.7968,-0.5078,0.166
1777530624.6834466,L_Foot,-1.0288,-0.1148,9.9962,-0.7324,-0.3662,0.3052,-0.6702,5.8173,107.3969,0.0374,0.0347,0.8047,0.5915
1777530624.6834466,R_Femur,0.0,0.0,0.0,0.0,0.0,0.0,0.0,0.0,0.0,0.0,0.0,0.0,1.0
1777530624.6834466,R_Tibia,-0.0957,-9.4746,2.4883,0.3052,-0.1221,0.3662,-75.2783,0.5658,-112.7417,-0.3415,-0.5063,-0.661,0.436
1777530624.6834466,R_Foot,0.8565,1.2298,9.8957,0.4272,0.0,-0.1221,7.0807,-4.9164,4.5483,0.0599,-0.0452,0.0369,0.9965
1777530624.6834466,Trunk,-7.1969,-0.6269,-6.4504,0.9766,0.0,-0.6104,-174.4464,47.8455,68.0054,-0.7459,0.5269,-0.311,0.2632
1777530624.6834466,L_Femur,0.5981,9.6899,-0.6077,0.2441,-0.4272,-0.061,93.5541,-3.5101,35.4199,0.6875,-0.2415,0.187,0.6589
1777530624.6834466,L_Tibia,-0.2153,-8.7473,-4.1583,-0.2441,-0.3052,0.4272,-115.4279,1.2799,-141.7676,-0.2825,-0.7968,-0.5078,0.166
1777530624.6834466,L_Foot,-1.0288,-0.1148,9.9962,-0.7324,-0.3662,0.3052,-0.6702,5.8173,107.3969,0.0374,0.0347,0.8047,0.5915
1777530624.6834466,R_Femur,0.0,0.0,0.0,0.0,0.0,0.0,0.0,0.0,0.0,0.0,0.0,0.0,1.0
1777530624.6834466,R_Tibia,-0.0957,-9.4746,2.4883,0.3052,-0.1221,0.3662,-75.2783,0.5658,-112.7417,-0.3415,-0.5063,-0.661,0.436
1777530624.6834466,R_Foot,0.8565,1.2298,9.8957,0.4272,0.0,-0.1221,7.0807,-4.9164,4.5483,0.0599,-0.0452,0.0369,0.9965
1777530624.6834466,Trunk,-7.1969,-0.6269,-6.4504,0.9766,0.0,-0.6104,-174.4464,47.8455,68.0054,-0.7459,0.5269,-0.311,0.2632
1777530624.6834466,L_Femur,0.5981,9.6852,-0.5981,0.2441,-0.4272,-0.1221,93.5541,-3.5101,35.4199,0.6875,-0.2415,0.187,0.6589
1777530624.6834466,L_Tibia,-0.2153,-8.7473,-4.1583,-0.2441,-0.3052,0.4272,-115.4279,1.2799,-141.7676,-0.2825,-0.7968,-0.5078,0.166
1777530624.6834466,L_Foot,-1.0288,-0.1148,9.9962,-0.7324,-0.3662,0.3052,-0.6702,5.8173,107.3969,0.0374,0.0347,0.8047,0.5915
1777530624.6834466,R_Femur,0.0,0.0,0.0,0.0,0.0,0.0,0.0,0.0,0.0,0.0,0.0,0.0,1.0
1777530624.6834466,R_Tibia,-0.0957,-9.4746,2.4883,0.3052,-0.1221,0.3662,-75.2783,0.5658,-112.7417,-0.3415,-0.5063,-0.661,0.436
1777530624.6834466,R_Foot,0.8565,1.2298,9.8957,0.4272,0.0,-0.1221,7.0807,-4.9164,4.5483,0.0599,-0.0452,0.0369,0.9965
1777530624.6834466,Trunk,-7.1969,-0.6269,-6.4504,0.9766,0.0,-0.6104,-174.4464,47.8455,68.0054,-0.7459,0.5269,-0.311,0.2632
1777530624.6834466,L_Femur,0.5981,9.6852,-0.5981,0.2441,-0.4272,-0.1221,93.5541,-3.5101,35.4199,0.6875,-0.2415,0.187,0.6589
1777530624.6834466,L_Tibia,-0.2153,-8.7473,-4.1631,-0.2441,-0.2441,0.4883,-115.4279,1.2799,-141.7676,-0.2825,-0.7968,-0.5078,0.166
1777530624.6834466,L_Foot,-1.0288,-0.1148,9.9962,-0.7324,-0.3662,0.3052,-0.6702,5.8173,107.3969,0.0374,0.0347,0.8047,0.5915
1777530624.6834466,R_Femur,0.0,0.0,0.0,0.0,0.0,0.0,0.0,0.0,0.0,0.0,0.0,0.0,1.0
1777530624.6834466,R_Tibia,-0.0957,-9.4746,2.4883,0.3052,-0.1221,0.3662,-75.2783,0.5658,-112.7417,-0.3415,-0.5063,-0.661,0.436
1777530624.6834466,R_Foot,0.8565,1.2298,9.8957,0.4272,0.0,-0.1221,7.0807,-4.9164,4.5483,0.0599,-0.0452,0.0369,0.9965
1777530624.6834466,Trunk,-7.1969,-0.6269,-6.4504,0.9766,0.0,-0.6104,-174.4464,47.8455,68.0054,-0.7459,0.5269,-0.311,0.2632
1777530624.6834466,L_Femur,0.5981,9.6852,-0.5981,0.2441,-0.4272,-0.1221,93.5541,-3.5101,35.4199,0.6875,-0.2415,0.187,0.6589
1777530624.6834466,L_Tibia,-0.2153,-8.7473,-4.1631,-0.2441,-0.2441,0.4883,-115.4279,1.2799,-141.7676,-0.2825,-0.7968,-0.5078,0.166
1777530624.6834466,L_Foot,-1.0145,-0.1148,10.0058,-0.7324,-0.3052,0.2441,-0.6702,5.8173,107.3969,0.0374,0.0347,0.8047,0.5915
1777530624.6834466,R_Femur,0.0,0.0,0.0,0.0,0.0,0.0,0.0,0.0,0.0,0.0,0.0,0.0,1.0
1777530624.6834466,R_Tibia,-0.0957,-9.4746,2.4883,0.3052,-0.1221,0.3662,-75.2783,0.5658,-112.7417,-0.3415,-0.5063,-0.661,0.436
1777530624.6834466,R_Foot,0.8565,1.2298,9.8957,0.4272,0.0,-0.1221,7.0807,-4.9164,4.5483,0.0599,-0.0452,0.0369,0.9965
1777530624.6844451,Trunk,-7.1969,-0.6269,-6.4504,0.9766,0.0,-0.6104,-174.4464,47.8455,68.0054,-0.7459,0.5269,-0.311,0.2632
1777530624.6844451,L_Femur,0.5981,9.6852,-0.5981,0.2441,-0.4272,-0.1221,93.5541,-3.5101,35.4199,0.6875,-0.2415,0.187,0.6589
1777530624.6844451,L_Tibia,-0.2153,-8.7473,-4.1631,-0.2441,-0.2441,0.4883,-115.4279,1.2799,-141.7676,-0.2825,-0.7968,-0.5078,0.166
1777530624.6844451,L_Foot,-1.0145,-0.1148,10.0058,-0.7324,-0.3052,0.2441,-0.6702,5.8173,107.3969,0.0374,0.0347,0.8047,0.5915
1777530624.6844451,R_Femur,0.0,0.0,0.0,0.0,0.0,0.0,0.0,0.0,0.0,0.0,0.0,0.0,1.0
1777530624.6844451,R_Tibia,-0.0909,-9.4746,2.4931,0.2441,-0.1831,0.3662,-75.2783,0.5658,-112.7417,-0.3415,-0.5063,-0.661,0.436
1777530624.6844451,R_Foot,0.8565,1.2298,9.8957,0.4272,0.0,-0.1221,7.0807,-4.9164,4.5483,0.0599,-0.0452,0.0369,0.9965
1777530624.6844451,Trunk,-7.1873,-0.6173,-6.4552,0.9766,-0.2441,-0.6714,-174.4464,47.8455,68.0054,-0.7459,0.5269,-0.311,0.2632
1777530624.6844451,L_Femur,0.5981,9.6852,-0.5981,0.2441,-0.4272,-0.1221,93.5541,-3.5101,35.4199,0.6875,-0.2415,0.187,0.6589
1777530624.6844451,L_Tibia,-0.2153,-8.7473,-4.1631,-0.2441,-0.2441,0.4883,-115.4279,1.2799,-141.7676,-0.2825,-0.7968,-0.5078,0.166
1777530624.6844451,L_Foot,-1.0145,-0.1148,10.0058,-0.7324,-0.3052,0.2441,-0.6702,5.8173,107.3969,0.0374,0.0347,0.8047,0.5915
1777530624.6844451,R_Femur,0.0,0.0,0.0,0.0,0.0,0.0,0.0,0.0,0.0,0.0,0.0,0.0,1.0
1777530624.6844451,R_Tibia,-0.0909,-9.4746,2.4931,0.2441,-0.1831,0.3662,-75.2783,0.5658,-112.7417,-0.3415,-0.5063,-0.661,0.436
1777530624.6844451,R_Foot,0.8565,1.2298,9.8957,0.4272,0.0,-0.1221,7.0807,-4.9164,4.5483,0.0599,-0.0452,0.0369,0.9965
1777530624.6844451,Trunk,-7.1873,-0.6173,-6.4552,0.9766,-0.2441,-0.6714,-174.4464,47.8455,68.0054,-0.7459,0.5269,-0.311,0.2632
1777530624.6844451,L_Femur,0.5981,9.6899,-0.6029,0.2441,-0.3662,-0.1221,93.5541,-3.5101,35.4199,0.6875,-0.2415,0.187,0.6589
1777530624.6844451,L_Tibia,-0.2153,-8.7473,-4.1631,-0.2441,-0.2441,0.4883,-115.4279,1.2799,-141.7676,-0.2825,-0.7968,-0.5078,0.166
1777530624.6844451,L_Foot,-1.0145,-0.1148,10.0058,-0.7324,-0.3052,0.2441,-0.6702,5.8173,107.3969,0.0374,0.0347,0.8047,0.5915
1777530624.6844451,R_Femur,0.0,0.0,0.0,0.0,0.0,0.0,0.0,0.0,0.0,0.0,0.0,0.0,1.0
1777530624.6844451,R_Tibia,-0.0909,-9.4746,2.4931,0.2441,-0.1831,0.3662,-75.2783,0.5658,-112.7417,-0.3415,-0.5063,-0.661,0.436
1777530624.6844451,R_Foot,0.8565,1.2298,9.8957,0.4272,0.0,-0.1221,7.0807,-4.9164,4.5483,0.0599,-0.0452,0.0369,0.9965
1777530624.6844451,Trunk,-7.1873,-0.6173,-6.4552,0.9766,-0.2441,-0.6714,-174.4464,47.8455,68.0054,-0.7459,0.5269,-0.311,0.2632
1777530624.6844451,L_Femur,0.5981,9.6899,-0.6029,0.2441,-0.3662,-0.1221,93.5541,-3.5101,35.4199,0.6875,-0.2415,0.187,0.6589
1777530624.6844451,L_Tibia,-0.2153,-8.7473,-4.1631,-0.3052,-0.3052,0.4883,-115.4279,1.2799,-141.7676,-0.2825,-0.7968,-0.5078,0.166
1777530624.6844451,L_Foot,-1.0145,-0.1148,10.0058,-0.7324,-0.3052,0.2441,-0.6702,5.8173,107.3969,0.0374,0.0347,0.8047,0.5915
1777530624.6844451,R_Femur,0.0,0.0,0.0,0.0,0.0,0.0,0.0,0.0,0.0,0.0,0.0,0.0,1.0
1777530624.6844451,R_Tibia,-0.0909,-9.4746,2.4931,0.2441,-0.1831,0.3662,-75.2783,0.5658,-112.7417,-0.3415,-0.5063,-0.661,0.436
1777530624.6844451,R_Foot,0.8565,1.2298,9.8957,0.4272,0.0,-0.1221,7.0807,-4.9164,4.5483,0.0599,-0.0452,0.0369,0.9965
1777530624.6844451,Trunk,-7.1873,-0.6173,-6.4552,0.9766,-0.2441,-0.6714,-174.4464,47.8455,68.0054,-0.7459,0.5269,-0.311,0.2632
1777530624.6844451,L_Femur,0.5981,9.6899,-0.6029,0.2441,-0.3662,-0.1221,93.5541,-3.5101,35.4199,0.6875,-0.2415,0.187,0.6589
1777530624.6844451,L_Tibia,-0.2153,-8.7473,-4.1631,-0.3052,-0.3052,0.4883,-115.4279,1.2799,-141.7676,-0.2825,-0.7968,-0.5078,0.166
1777530624.6844451,L_Foot,-1.024,-0.1148,10.001,-0.6714,-0.2441,0.3052,-0.6702,5.8173,107.3969,0.0374,0.0347,0.8047,0.5915
1777530624.6844451,R_Femur,0.0,0.0,0.0,0.0,0.0,0.0,0.0,0.0,0.0,0.0,0.0,0.0,1.0
1777530624.6844451,R_Tibia,-0.0909,-9.4746,2.4931,0.2441,-0.1831,0.3662,-75.2783,0.5658,-112.7417,-0.3415,-0.5063,-0.661,0.436
1777530624.6844451,R_Foot,0.8565,1.2298,9.8957,0.4272,0.0,-0.1221,7.0807,-4.9164,4.5483,0.0599,-0.0452,0.0369,0.9965
1777530624.685445,Trunk,-7.1729,-0.6221,-6.436,0.9766,-0.061,-0.6104,-174.4409,47.8455,68.0054,-0.7459,0.5269,-0.311,0.2633
1777530624.685445,L_Femur,0.5981,9.6899,-0.6029,0.2441,-0.3662,-0.1221,93.5541,-3.5101,35.4199,0.6875,-0.2415,0.187,0.6589
1777530624.685445,L_Tibia,-0.2153,-8.7473,-4.1631,-0.3052,-0.3052,0.4883,-115.4279,1.2799,-141.7676,-0.2825,-0.7968,-0.5078,0.166
1777530624.685445,L_Foot,-1.024,-0.1148,10.001,-0.6714,-0.2441,0.3052,-0.6702,5.8173,107.3969,0.0374,0.0347,0.8047,0.5915
1777530624.685445,R_Femur,0.0,0.0,0.0,0.0,0.0,0.0,0.0,0.0,0.0,0.0,0.0,0.0,1.0
1777530624.685445,R_Tibia,-0.0909,-9.4746,2.4931,0.2441,-0.1831,0.3662,-75.2783,0.5658,-112.7417,-0.3415,-0.5063,-0.661,0.436
1777530624.685445,R_Foot,0.8565,1.2298,9.8957,0.4272,0.0,-0.1221,7.0807,-4.9164,4.5483,0.0599,-0.0452,0.0369,0.9965
1777530624.685445,Trunk,-7.1729,-0.6221,-6.436,0.9766,-0.061,-0.6104,-174.4409,47.8455,68.0054,-0.7459,0.5269,-0.311,0.2633
1777530624.685445,L_Femur,0.5934,9.6947,-0.6029,0.2441,-0.4272,-0.1831,93.5541,-3.5101,35.4199,0.6875,-0.2415,0.187,0.6589
1777530624.685445,L_Tibia,-0.2153,-8.7473,-4.1631,-0.3052,-0.3052,0.4883,-115.4279,1.2799,-141.7676,-0.2825,-0.7968,-0.5078,0.166
1777530624.685445,L_Foot,-1.024,-0.1148,10.001,-0.6714,-0.2441,0.3052,-0.6702,5.8173,107.3969,0.0374,0.0347,0.8047,0.5915
1777530624.685445,R_Femur,0.0,0.0,0.0,0.0,0.0,0.0,0.0,0.0,0.0,0.0,0.0,0.0,1.0
1777530624.685445,R_Tibia,-0.0909,-9.4746,2.4931,0.2441,-0.1831,0.3662,-75.2783,0.5658,-112.7417,-0.3415,-0.5063,-0.661,0.436
1777530624.685445,R_Foot,0.8565,1.2298,9.8957,0.4272,0.0,-0.1221,7.0807,-4.9164,4.5483,0.0599,-0.0452,0.0369,0.9965
1777530624.685445,Trunk,-7.1729,-0.6221,-6.436,0.9766,-0.061,-0.6104,-174.4409,47.8455,68.0054,-0.7459,0.5269,-0.311,0.2633
1777530624.685445,L_Femur,0.5934,9.6947,-0.6029,0.2441,-0.4272,-0.1831,93.5541,-3.5101,35.4199,0.6875,-0.2415,0.187,0.6589
1777530624.685445,L_Tibia,-0.2153,-8.7473,-4.1631,-0.3052,-0.3052,0.4883,-115.4279,1.2799,-141.7676,-0.2825,-0.7968,-0.5078,0.166
1777530624.685445,L_Foot,-1.024,-0.1196,10.001,-0.7324,-0.1831,0.3052,-0.6702,5.8173,107.3969,0.0374,0.0347,0.8047,0.5915
1777530624.685445,R_Femur,0.0,0.0,0.0,0.0,0.0,0.0,0.0,0.0,0.0,0.0,0.0,0.0,1.0
1777530624.685445,R_Tibia,-0.0909,-9.4746,2.4931,0.2441,-0.1831,0.3662,-75.2783,0.5658,-112.7417,-0.3415,-0.5063,-0.661,0.436
1777530624.685445,R_Foot,0.8565,1.2298,9.8957,0.4272,0.0,-0.1221,7.0807,-4.9164,4.5483,0.0599,-0.0452,0.0369,0.9965
1777530624.685445,Trunk,-7.1729,-0.6221,-6.436,0.9766,-0.061,-0.6104,-174.4409,47.8455,68.0054,-0.7459,0.5269,-0.311,0.2633
1777530624.685445,L_Femur,0.5934,9.6947,-0.6029,0.2441,-0.4272,-0.1831,93.5541,-3.5101,35.4199,0.6875,-0.2415,0.187,0.6589
1777530624.685445,L_Tibia,-0.2153,-8.7473,-4.1631,-0.3052,-0.3052,0.4883,-115.4279,1.2799,-141.7676,-0.2825,-0.7968,-0.5078,0.166
1777530624.685445,L_Foot,-1.024,-0.1196,10.001,-0.7324,-0.1831,0.3052,-0.6702,5.8173,107.3969,0.0374,0.0347,0.8047,0.5915
1777530624.685445,R_Femur,0.0,0.0,0.0,0.0,0.0,0.0,0.0,0.0,0.0,0.0,0.0,0.0,1.0
1777530624.685445,R_Tibia,-0.0957,-9.4746,2.4835,0.2441,-0.1831,0.3662,-75.2783,0.5658,-112.7417,-0.3415,-0.5063,-0.661,0.436
1777530624.685445,R_Foot,0.8565,1.2298,9.8957,0.4272,0.0,-0.1221,7.0807,-4.9164,4.5483,0.0599,-0.0452,0.0369,0.9965
1777530624.685445,Trunk,-7.1729,-0.6221,-6.436,0.9766,-0.061,-0.6104,-174.4409,47.8455,68.0054,-0.7459,0.5269,-0.311,0.2633
1777530624.685445,L_Femur,0.5934,9.6947,-0.6029,0.2441,-0.4272,-0.1831,93.5541,-3.5101,35.4199,0.6875,-0.2415,0.187,0.6589
1777530624.685445,L_Tibia,-0.2153,-8.7473,-4.1631,-0.3052,-0.3052,0.4883,-115.4279,1.2799,-141.7676,-0.2825,-0.7968,-0.5078,0.166
1777530624.685445,L_Foot,-1.024,-0.1196,10.001,-0.7324,-0.1831,0.3052,-0.6702,5.8173,107.3969,0.0374,0.0347,0.8047,0.5915
1777530624.685445,R_Femur,0.0,0.0,0.0,0.0,0.0,0.0,0.0,0.0,0.0,0.0,0.0,0.0,1.0
1777530624.685445,R_Tibia,-0.0957,-9.4746,2.4835,0.2441,-0.1831,0.3662,-75.2783,0.5658,-112.7417,-0.3415,-0.5063,-0.661,0.436
1777530624.685445,R_Foot,0.8565,1.225,9.8909,0.4883,0.0,-0.061,7.0807,-4.9164,4.5483,0.0599,-0.0452,0.0369,0.9965
1777530624.685445,Trunk,-7.1729,-0.6221,-6.4504,0.9155,0.1221,-0.4883,-174.4409,47.8455,68.0054,-0.7459,0.5269,-0.311,0.2633
1777530624.685445,L_Femur,0.5934,9.6947,-0.6029,0.2441,-0.4272,-0.1831,93.5541,-3.5101,35.4199,0.6875,-0.2415,0.187,0.6589
1777530624.685445,L_Tibia,-0.2153,-8.7473,-4.1631,-0.3052,-0.3052,0.4883,-115.4279,1.2799,-141.7676,-0.2825,-0.7968,-0.5078,0.166
1777530624.685445,L_Foot,-1.024,-0.1196,10.001,-0.7324,-0.1831,0.3052,-0.6702,5.8173,107.3969,0.0374,0.0347,0.8047,0.5915
1777530624.685445,R_Femur,0.0,0.0,0.0,0.0,0.0,0.0,0.0,0.0,0.0,0.0,0.0,0.0,1.0
1777530624.685445,R_Tibia,-0.0957,-9.4746,2.4835,0.2441,-0.1831,0.3662,-75.2783,0.5658,-112.7417,-0.3415,-0.5063,-0.661,0.436
1777530624.685445,R_Foot,0.8565,1.225,9.8909,0.4883,0.0,-0.061,7.0807,-4.9164,4.5483,0.0599,-0.0452,0.0369,0.9965
1777530624.6864443,Trunk,-7.1729,-0.6221,-6.4504,0.9155,0.1221,-0.4883,-174.4409,47.8455,68.0054,-0.7459,0.5269,-0.311,0.2633
1777530624.6864443,L_Femur,0.5981,9.6852,-0.6029,0.2441,-0.4272,-0.1221,93.5541,-3.5101,35.4199,0.6875,-0.2415,0.187,0.6589
1777530624.6864443,L_Tibia,-0.2153,-8.7473,-4.1631,-0.3052,-0.3052,0.4883,-115.4279,1.2799,-141.7676,-0.2825,-0.7968,-0.5078,0.166
1777530624.6864443,L_Foot,-1.024,-0.1196,10.001,-0.7324,-0.1831,0.3052,-0.6702,5.8173,107.3969,0.0374,0.0347,0.8047,0.5915
1777530624.6864443,R_Femur,0.0,0.0,0.0,0.0,0.0,0.0,0.0,0.0,0.0,0.0,0.0,0.0,1.0
1777530624.6864443,R_Tibia,-0.0957,-9.4746,2.4835,0.2441,-0.1831,0.3662,-75.2783,0.5658,-112.7417,-0.3415,-0.5063,-0.661,0.436
1777530624.6864443,R_Foot,0.8565,1.225,9.8909,0.4883,0.0,-0.061,7.0807,-4.9164,4.5483,0.0599,-0.0452,0.0369,0.9965
1777530624.6864443,Trunk,-7.1729,-0.6221,-6.4504,0.9155,0.1221,-0.4883,-174.4409,47.8455,68.0054,-0.7459,0.5269,-0.311,0.2633
1777530624.6864443,L_Femur,0.5981,9.6852,-0.6029,0.2441,-0.4272,-0.1221,93.5541,-3.5101,35.4199,0.6875,-0.2415,0.187,0.6589
1777530624.6864443,L_Tibia,-0.2201,-8.7425,-4.1631,-0.2441,-0.2441,0.4883,-115.4279,1.2799,-141.7676,-0.2825,-0.7968,-0.5078,0.166
1777530624.6864443,L_Foot,-1.024,-0.1196,10.001,-0.7324,-0.1831,0.3052,-0.6702,5.8173,107.3969,0.0374,0.0347,0.8047,0.5915
1777530624.6864443,R_Femur,0.0,0.0,0.0,0.0,0.0,0.0,0.0,0.0,0.0,0.0,0.0,0.0,1.0
1777530624.6864443,R_Tibia,-0.0957,-9.4746,2.4835,0.2441,-0.1831,0.3662,-75.2783,0.5658,-112.7417,-0.3415,-0.5063,-0.661,0.436
1777530624.6864443,R_Foot,0.8565,1.225,9.8909,0.4883,0.0,-0.061,7.0807,-4.9164,4.5483,0.0599,-0.0452,0.0369,0.9965
1777530624.6864443,Trunk,-7.1729,-0.6221,-6.4504,0.9155,0.1221,-0.4883,-174.4409,47.8455,68.0054,-0.7459,0.5269,-0.311,0.2633
1777530624.6864443,L_Femur,0.5981,9.6852,-0.6029,0.2441,-0.4272,-0.1221,93.5541,-3.5101,35.4199,0.6875,-0.2415,0.187,0.6589
1777530624.6864443,L_Tibia,-0.2201,-8.7425,-4.1631,-0.2441,-0.2441,0.4883,-115.4279,1.2799,-141.7676,-0.2825,-0.7968,-0.5078,0.166
1777530624.6864443,L_Foot,-1.024,-0.1148,9.9962,-0.7324,-0.2441,0.3052,-0.6702,5.8173,107.3969,0.0374,0.0347,0.8047,0.5915
1777530624.6864443,R_Femur,0.0,0.0,0.0,0.0,0.0,0.0,0.0,0.0,0.0,0.0,0.0,0.0,1.0
1777530624.6864443,R_Tibia,-0.0957,-9.4746,2.4835,0.2441,-0.1831,0.3662,-75.2783,0.5658,-112.7417,-0.3415,-0.5063,-0.661,0.436
1777530624.6864443,R_Foot,0.8565,1.225,9.8909,0.4883,0.0,-0.061,7.0807,-4.9164,4.5483,0.0599,-0.0452,0.0369,0.9965
1777530624.8037627,Trunk,-7.1729,-0.6125,-6.4791,1.0376,-0.1831,-0.6714,-174.4409,47.8455,67.9999,-0.7459,0.5269,-0.311,0.2632
1777530624.8037627,L_Femur,0.5981,9.6852,-0.6029,0.2441,-0.4272,-0.1221,93.5541,-3.5101,35.4199,0.6875,-0.2415,0.187,0.6589
1777530624.8037627,L_Tibia,-0.2201,-8.7425,-4.1631,-0.2441,-0.2441,0.4883,-115.4279,1.2799,-141.7676,-0.2825,-0.7968,-0.5078,0.166
1777530624.8037627,L_Foot,-1.024,-0.1148,9.9962,-0.7324,-0.2441,0.3052,-0.6702,5.8173,107.3969,0.0374,0.0347,0.8047,0.5915
1777530624.8037627,R_Femur,0.0,0.0,0.0,0.0,0.0,0.0,0.0,0.0,0.0,0.0,0.0,0.0,1.0
1777530624.8037627,R_Tibia,-0.0957,-9.4746,2.4835,0.2441,-0.1831,0.3662,-75.2783,0.5658,-112.7417,-0.3415,-0.5063,-0.661,0.436
1777530624.8037627,R_Foot,0.8565,1.225,9.8909,0.4883,0.0,-0.061,7.0807,-4.9164,4.5483,0.0599,-0.0452,0.0369,0.9965
1777530624.8037627,Trunk,-7.1729,-0.6125,-6.4791,1.0376,-0.1831,-0.6714,-174.4409,47.8455,67.9999,-0.7459,0.5269,-0.311,0.2632
1777530624.8037627,L_Femur,0.5981,9.6899,-0.6029,0.1831,-0.4272,-0.1831,93.5541,-3.5101,35.4199,0.6875,-0.2415,0.187,0.6589
1777530624.8037627,L_Tibia,-0.2201,-8.7425,-4.1631,-0.2441,-0.2441,0.4883,-115.4279,1.2799,-141.7676,-0.2825,-0.7968,-0.5078,0.166
1777530624.8037627,L_Foot,-1.024,-0.1148,9.9962,-0.7324,-0.2441,0.3052,-0.6702,5.8173,107.3969,0.0374,0.0347,0.8047,0.5915
1777530624.8037627,R_Femur,0.0,0.0,0.0,0.0,0.0,0.0,0.0,0.0,0.0,0.0,0.0,0.0,1.0
1777530624.8037627,R_Tibia,-0.0957,-9.4746,2.4835,0.2441,-0.1831,0.3662,-75.2783,0.5658,-112.7417,-0.3415,-0.5063,-0.661,0.436
1777530624.8037627,R_Foot,0.8565,1.225,9.8909,0.4883,0.0,-0.061,7.0807,-4.9164,4.5483,0.0599,-0.0452,0.0369,0.9965
1777530624.8047702,Trunk,-7.1729,-0.6125,-6.4791,1.0376,-0.1831,-0.6714,-174.4409,47.8455,67.9999,-0.7459,0.5269,-0.311,0.2632
1777530624.8047702,L_Femur,0.5981,9.6899,-0.6029,0.1831,-0.4272,-0.1831,93.5541,-3.5101,35.4199,0.6875,-0.2415,0.187,0.6589
1777530624.8047702,L_Tibia,-0.2153,-8.7473,-4.1583,-0.2441,-0.3052,0.4883,-115.4279,1.2799,-141.7676,-0.2825,-0.7968,-0.5078,0.166
1777530624.8047702,L_Foot,-1.024,-0.1148,9.9962,-0.7324,-0.2441,0.3052,-0.6702,5.8173,107.3969,0.0374,0.0347,0.8047,0.5915
1777530624.8047702,R_Femur,0.0,0.0,0.0,0.0,0.0,0.0,0.0,0.0,0.0,0.0,0.0,0.0,1.0
1777530624.8047702,R_Tibia,-0.0957,-9.4746,2.4835,0.2441,-0.1831,0.3662,-75.2783,0.5658,-112.7417,-0.3415,-0.5063,-0.661,0.436
1777530624.8047702,R_Foot,0.8565,1.225,9.8909,0.4883,0.0,-0.061,7.0807,-4.9164,4.5483,0.0599,-0.0452,0.0369,0.9965
1777530624.8047702,Trunk,-7.1729,-0.6125,-6.4791,1.0376,-0.1831,-0.6714,-174.4409,47.8455,67.9999,-0.7459,0.5269,-0.311,0.2632
1777530624.8047702,L_Femur,0.5981,9.6899,-0.6029,0.1831,-0.4272,-0.1831,93.5541,-3.5101,35.4199,0.6875,-0.2415,0.187,0.6589
1777530624.8047702,L_Tibia,-0.2153,-8.7473,-4.1583,-0.2441,-0.3052,0.4883,-115.4279,1.2799,-141.7676,-0.2825,-0.7968,-0.5078,0.166
1777530624.8047702,L_Foot,-1.0288,-0.1005,10.0058,-0.7324,-0.2441,0.2441,-0.6702,5.8173,107.3969,0.0374,0.0347,0.8047,0.5915
1777530624.8047702,R_Femur,0.0,0.0,0.0,0.0,0.0,0.0,0.0,0.0,0.0,0.0,0.0,0.0,1.0
1777530624.8047702,R_Tibia,-0.0957,-9.4746,2.4835,0.2441,-0.1831,0.3662,-75.2783,0.5658,-112.7417,-0.3415,-0.5063,-0.661,0.436
1777530624.8047702,R_Foot,0.8565,1.225,9.8909,0.4883,0.0,-0.061,7.0807,-4.9164,4.5483,0.0599,-0.0452,0.0369,0.9965
1777530624.8047702,Trunk,-7.1729,-0.6125,-6.4791,1.0376,-0.1831,-0.6714,-174.4409,47.8455,67.9999,-0.7459,0.5269,-0.311,0.2632
1777530624.8047702,L_Femur,0.5981,9.6899,-0.6029,0.1831,-0.4272,-0.1831,93.5541,-3.5101,35.4199,0.6875,-0.2415,0.187,0.6589
1777530624.8047702,L_Tibia,-0.2153,-8.7473,-4.1583,-0.2441,-0.3052,0.4883,-115.4279,1.2799,-141.7676,-0.2825,-0.7968,-0.5078,0.166
1777530624.8047702,L_Foot,-1.0288,-0.1005,10.0058,-0.7324,-0.2441,0.2441,-0.6702,5.8173,107.3969,0.0374,0.0347,0.8047,0.5915
1777530624.8047702,R_Femur,0.0,0.0,0.0,0.0,0.0,0.0,0.0,0.0,0.0,0.0,0.0,0.0,1.0
1777530624.8047702,R_Tibia,-0.1005,-9.4746,2.4931,0.3052,-0.2441,0.3662,-75.2783,0.5658,-112.7417,-0.3415,-0.5063,-0.661,0.436
1777530624.8047702,R_Foot,0.8565,1.225,9.8909,0.4883,0.0,-0.061,7.0807,-4.9164,4.5483,0.0599,-0.0452,0.0369,0.9965
1777530624.8047702,Trunk,-7.1729,-0.6125,-6.4791,1.0376,-0.1831,-0.6714,-174.4409,47.8455,67.9999,-0.7459,0.5269,-0.311,0.2632
1777530624.8047702,L_Femur,0.5981,9.6899,-0.6029,0.1831,-0.4272,-0.1831,93.5541,-3.5101,35.4199,0.6875,-0.2415,0.187,0.6589
1777530624.8047702,L_Tibia,-0.2153,-8.7473,-4.1583,-0.2441,-0.3052,0.4883,-115.4279,1.2799,-141.7676,-0.2825,-0.7968,-0.5078,0.166
1777530624.8047702,L_Foot,-1.0288,-0.1005,10.0058,-0.7324,-0.2441,0.2441,-0.6702,5.8173,107.3969,0.0374,0.0347,0.8047,0.5915
1777530624.8047702,R_Femur,0.0,0.0,0.0,0.0,0.0,0.0,0.0,0.0,0.0,0.0,0.0,0.0,1.0
1777530624.8047702,R_Tibia,-0.1005,-9.4746,2.4931,0.3052,-0.2441,0.3662,-75.2783,0.5658,-112.7417,-0.3415,-0.5063,-0.661,0.436
1777530624.8047702,R_Foot,0.8518,1.2298,9.8909,0.4883,0.0,-0.1221,7.0807,-4.9164,4.5483,0.0599,-0.0452,0.0369,0.9965
1777530624.8047702,Trunk,-7.1682,-0.6125,-6.4839,0.9766,-0.2441,-0.6714,-174.4464,47.8455,67.9999,-0.7459,0.5268,-0.311,0.2632
1777530624.8047702,L_Femur,0.5981,9.6899,-0.6029,0.1831,-0.4272,-0.1831,93.5541,-3.5101,35.4199,0.6875,-0.2415,0.187,0.6589
1777530624.8047702,L_Tibia,-0.2153,-8.7473,-4.1583,-0.2441,-0.3052,0.4883,-115.4279,1.2799,-141.7676,-0.2825,-0.7968,-0.5078,0.166
1777530624.8047702,L_Foot,-1.0288,-0.1005,10.0058,-0.7324,-0.2441,0.2441,-0.6702,5.8173,107.3969,0.0374,0.0347,0.8047,0.5915
1777530624.8047702,R_Femur,0.0,0.0,0.0,0.0,0.0,0.0,0.0,0.0,0.0,0.0,0.0,0.0,1.0
1777530624.8047702,R_Tibia,-0.1005,-9.4746,2.4931,0.3052,-0.2441,0.3662,-75.2783,0.5658,-112.7417,-0.3415,-0.5063,-0.661,0.436
1777530624.8047702,R_Foot,0.8518,1.2298,9.8909,0.4883,0.0,-0.1221,7.0807,-4.9164,4.5483,0.0599,-0.0452,0.0369,0.9965
1777530624.8057685,Trunk,-7.1682,-0.6125,-6.4839,0.9766,-0.2441,-0.6714,-174.4464,47.8455,67.9999,-0.7459,0.5268,-0.311,0.2632
1777530624.8057685,L_Femur,0.5981,9.6899,-0.6029,0.1831,-0.4272,-0.1831,93.5541,-3.5101,35.4199,0.6875,-0.2415,0.187,0.6589
1777530624.8057685,L_Tibia,-0.2153,-8.7473,-4.1583,-0.2441,-0.3052,0.4883,-115.4279,1.2799,-141.7676,-0.2825,-0.7968,-0.5078,0.166
1777530624.8057685,L_Foot,-1.0288,-0.1005,10.0058,-0.7324,-0.2441,0.2441,-0.6702,5.8173,107.3969,0.0374,0.0347,0.8047,0.5915
1777530624.8057685,R_Femur,0.0,0.0,0.0,0.0,0.0,0.0,0.0,0.0,0.0,0.0,0.0,0.0,1.0
1777530624.8057685,R_Tibia,-0.1005,-9.4746,2.4931,0.3052,-0.2441,0.3662,-75.2783,0.5658,-112.7417,-0.3415,-0.5063,-0.661,0.436
1777530624.8057685,R_Foot,0.8518,1.2298,9.8909,0.4883,0.0,-0.1221,7.0807,-4.9164,4.5483,0.0599,-0.0452,0.0369,0.9965
1777530624.8057685,Trunk,-7.1682,-0.6125,-6.4839,0.9766,-0.2441,-0.6714,-174.4464,47.8455,67.9999,-0.7459,0.5268,-0.311,0.2632
1777530624.8057685,L_Femur,0.5981,9.6899,-0.6029,0.1831,-0.4272,-0.1831,93.5541,-3.5101,35.4199,0.6875,-0.2415,0.187,0.6589
1777530624.8057685,L_Tibia,-0.2105,-8.7473,-4.1583,-0.2441,-0.2441,0.4883,-115.4279,1.2799,-141.7676,-0.2825,-0.7968,-0.5078,0.166
1777530624.8057685,L_Foot,-1.0288,-0.1005,10.0058,-0.7324,-0.2441,0.2441,-0.6702,5.8173,107.3969,0.0374,0.0347,0.8047,0.5915
1777530624.8057685,R_Femur,0.0,0.0,0.0,0.0,0.0,0.0,0.0,0.0,0.0,0.0,0.0,0.0,1.0
1777530624.8057685,R_Tibia,-0.1005,-9.4746,2.4931,0.3052,-0.2441,0.3662,-75.2783,0.5658,-112.7417,-0.3415,-0.5063,-0.661,0.436
1777530624.8057685,R_Foot,0.8518,1.2298,9.8909,0.4883,0.0,-0.1221,7.0807,-4.9164,4.5483,0.0599,-0.0452,0.0369,0.9965
1777530624.8057685,Trunk,-7.1682,-0.6125,-6.4839,0.9766,-0.2441,-0.6714,-174.4464,47.8455,67.9999,-0.7459,0.5268,-0.311,0.2632
1777530624.8057685,L_Femur,0.5981,9.6899,-0.6029,0.1831,-0.4272,-0.1831,93.5541,-3.5101,35.4199,0.6875,-0.2415,0.187,0.6589
1777530624.8057685,L_Tibia,-0.2105,-8.7473,-4.1583,-0.2441,-0.2441,0.4883,-115.4279,1.2799,-141.7676,-0.2825,-0.7968,-0.5078,0.166
1777530624.8057685,L_Foot,-1.0097,-0.1292,9.9914,-0.6104,-0.1831,0.3662,-0.6702,5.8173,107.3969,0.0374,0.0347,0.8047,0.5915
1777530624.8057685,R_Femur,0.0,0.0,0.0,0.0,0.0,0.0,0.0,0.0,0.0,0.0,0.0,0.0,1.0
1777530624.8057685,R_Tibia,-0.1005,-9.4746,2.4931,0.3052,-0.2441,0.3662,-75.2783,0.5658,-112.7417,-0.3415,-0.5063,-0.661,0.436
1777530624.8057685,R_Foot,0.8518,1.2298,9.8909,0.4883,0.0,-0.1221,7.0807,-4.9164,4.5483,0.0599,-0.0452,0.0369,0.9965
1777530624.8057685,Trunk,-7.1586,-0.6221,-6.4647,0.9766,0.0,-0.4883,-174.4464,47.8455,67.9999,-0.7459,0.5268,-0.311,0.2632
1777530624.8057685,L_Femur,0.5981,9.6899,-0.6029,0.1831,-0.4272,-0.1831,93.5541,-3.5101,35.4199,0.6875,-0.2415,0.187,0.6589
1777530624.8057685,L_Tibia,-0.2105,-8.7473,-4.1583,-0.2441,-0.2441,0.4883,-115.4279,1.2799,-141.7676,-0.2825,-0.7968,-0.5078,0.166
1777530624.8057685,L_Foot,-1.0097,-0.1292,9.9914,-0.6104,-0.1831,0.3662,-0.6702,5.8173,107.3969,0.0374,0.0347,0.8047,0.5915
1777530624.8057685,R_Femur,0.0,0.0,0.0,0.0,0.0,0.0,0.0,0.0,0.0,0.0,0.0,0.0,1.0
1777530624.8057685,R_Tibia,-0.1005,-9.4746,2.4931,0.3052,-0.2441,0.3662,-75.2783,0.5658,-112.7417,-0.3415,-0.5063,-0.661,0.436
1777530624.8057685,R_Foot,0.8518,1.2298,9.8909,0.4883,0.0,-0.1221,7.0807,-4.9164,4.5483,0.0599,-0.0452,0.0369,0.9965
1777530624.8057685,Trunk,-7.1586,-0.6221,-6.4647,0.9766,0.0,-0.4883,-174.4464,47.8455,67.9999,-0.7459,0.5268,-0.311,0.2632
1777530624.8057685,L_Femur,0.5981,9.6947,-0.6029,0.3052,-0.4272,-0.1221,93.5541,-3.5101,35.4199,0.6875,-0.2415,0.187,0.6589
1777530624.8057685,L_Tibia,-0.2105,-8.7473,-4.1583,-0.2441,-0.2441,0.4883,-115.4279,1.2799,-141.7676,-0.2825,-0.7968,-0.5078,0.166
1777530624.8057685,L_Foot,-1.0097,-0.1292,9.9914,-0.6104,-0.1831,0.3662,-0.6702,5.8173,107.3969,0.0374,0.0347,0.8047,0.5915
1777530624.8057685,R_Femur,0.0,0.0,0.0,0.0,0.0,0.0,0.0,0.0,0.0,0.0,0.0,0.0,1.0
1777530624.8057685,R_Tibia,-0.1005,-9.4746,2.4931,0.3052,-0.2441,0.3662,-75.2783,0.5658,-112.7417,-0.3415,-0.5063,-0.661,0.436
1777530624.8057685,R_Foot,0.8518,1.2298,9.8909,0.4883,0.0,-0.1221,7.0807,-4.9164,4.5483,0.0599,-0.0452,0.0369,0.9965
1777530624.8057685,Trunk,-7.1586,-0.6221,-6.4647,0.9766,0.0,-0.4883,-174.4464,47.8455,67.9999,-0.7459,0.5268,-0.311,0.2632
1777530624.8057685,L_Femur,0.5981,9.6947,-0.6029,0.3052,-0.4272,-0.1221,93.5541,-3.5101,35.4199,0.6875,-0.2415,0.187,0.6589
1777530624.8057685,L_Tibia,-0.2105,-8.7425,-4.1583,-0.3052,-0.2441,0.4883,-115.4279,1.2799,-141.7676,-0.2825,-0.7968,-0.5078,0.166
1777530624.8057685,L_Foot,-1.0097,-0.1292,9.9914,-0.6104,-0.1831,0.3662,-0.6702,5.8173,107.3969,0.0374,0.0347,0.8047,0.5915
1777530624.8057685,R_Femur,0.0,0.0,0.0,0.0,0.0,0.0,0.0,0.0,0.0,0.0,0.0,0.0,1.0
1777530624.8057685,R_Tibia,-0.1005,-9.4746,2.4931,0.3052,-0.2441,0.3662,-75.2783,0.5658,-112.7417,-0.3415,-0.5063,-0.661,0.436
1777530624.8057685,R_Foot,0.8518,1.2298,9.8909,0.4883,0.0,-0.1221,7.0807,-4.9164,4.5483,0.0599,-0.0452,0.0369,0.9965
1777530624.8067687,Trunk,-7.1586,-0.6221,-6.4647,0.9766,0.0,-0.4883,-174.4464,47.8455,67.9999,-0.7459,0.5268,-0.311,0.2632
1777530624.8067687,L_Femur,0.5981,9.6947,-0.6029,0.3052,-0.4272,-0.1221,93.5541,-3.5101,35.4199,0.6875,-0.2415,0.187,0.6589
1777530624.8067687,L_Tibia,-0.2105,-8.7425,-4.1583,-0.3052,-0.2441,0.4883,-115.4279,1.2799,-141.7676,-0.2825,-0.7968,-0.5078,0.166
1777530624.8067687,L_Foot,-1.0336,-0.1196,9.9962,-0.7324,-0.3662,0.3052,-0.6702,5.8173,107.3969,0.0374,0.0347,0.8047,0.5915
1777530624.8067687,R_Femur,0.0,0.0,0.0,0.0,0.0,0.0,0.0,0.0,0.0,0.0,0.0,0.0,1.0
1777530624.8067687,R_Tibia,-0.1005,-9.4746,2.4931,0.3052,-0.2441,0.3662,-75.2783,0.5658,-112.7417,-0.3415,-0.5063,-0.661,0.436
1777530624.8067687,R_Foot,0.8518,1.2298,9.8909,0.4883,0.0,-0.1221,7.0807,-4.9164,4.5483,0.0599,-0.0452,0.0369,0.9965
1777530624.8067687,Trunk,-7.1586,-0.6221,-6.4647,0.9766,0.0,-0.4883,-174.4464,47.8455,67.9999,-0.7459,0.5268,-0.311,0.2632
1777530624.8067687,L_Femur,0.5981,9.6947,-0.6029,0.3052,-0.4272,-0.1221,93.5541,-3.5101,35.4199,0.6875,-0.2415,0.187,0.6589
1777530624.8067687,L_Tibia,-0.2105,-8.7425,-4.1583,-0.3052,-0.2441,0.4883,-115.4279,1.2799,-141.7676,-0.2825,-0.7968,-0.5078,0.166
1777530624.8067687,L_Foot,-1.0336,-0.1196,9.9962,-0.7324,-0.3662,0.3052,-0.6702,5.8173,107.3969,0.0374,0.0347,0.8047,0.5915
1777530624.8067687,R_Femur,0.0,0.0,0.0,0.0,0.0,0.0,0.0,0.0,0.0,0.0,0.0,0.0,1.0
1777530624.8067687,R_Tibia,-0.1005,-9.4746,2.4883,0.2441,-0.1831,0.3662,-75.2783,0.5658,-112.7417,-0.3415,-0.5063,-0.661,0.436
1777530624.8067687,R_Foot,0.8518,1.2298,9.8909,0.4883,0.0,-0.1221,7.0807,-4.9164,4.5483,0.0599,-0.0452,0.0369,0.9965
1777530624.8067687,Trunk,-7.1586,-0.6221,-6.4647,0.9766,0.0,-0.4883,-174.4464,47.8455,67.9999,-0.7459,0.5268,-0.311,0.2632
1777530624.8067687,L_Femur,0.5981,9.6947,-0.6029,0.3052,-0.4272,-0.1221,93.5541,-3.5101,35.4199,0.6875,-0.2415,0.187,0.6589
1777530624.8067687,L_Tibia,-0.2105,-8.7425,-4.1583,-0.3052,-0.2441,0.4883,-115.4279,1.2799,-141.7676,-0.2825,-0.7968,-0.5078,0.166
1777530624.8067687,L_Foot,-1.0336,-0.1196,9.9962,-0.7324,-0.3662,0.3052,-0.6702,5.8173,107.3969,0.0374,0.0347,0.8047,0.5915
1777530624.8067687,R_Femur,0.0,0.0,0.0,0.0,0.0,0.0,0.0,0.0,0.0,0.0,0.0,0.0,1.0
1777530624.8067687,R_Tibia,-0.1005,-9.4746,2.4883,0.2441,-0.1831,0.3662,-75.2783,0.5658,-112.7417,-0.3415,-0.5063,-0.661,0.436
1777530624.8067687,R_Foot,0.8565,1.2298,9.8957,0.4883,0.061,-0.1221,7.0807,-4.9164,4.5483,0.0599,-0.0452,0.0369,0.9965
1777530624.8067687,Trunk,-7.1729,-0.6269,-6.4647,0.9155,0.1221,-0.4272,-174.4464,47.8455,67.9999,-0.7459,0.5268,-0.311,0.2632
1777530624.8067687,L_Femur,0.5981,9.6947,-0.6029,0.3052,-0.4272,-0.1221,93.5541,-3.5101,35.4199,0.6875,-0.2415,0.187,0.6589
1777530624.8067687,L_Tibia,-0.2105,-8.7425,-4.1583,-0.3052,-0.2441,0.4883,-115.4279,1.2799,-141.7676,-0.2825,-0.7968,-0.5078,0.166
1777530624.8067687,L_Foot,-1.0336,-0.1196,9.9962,-0.7324,-0.3662,0.3052,-0.6702,5.8173,107.3969,0.0374,0.0347,0.8047,0.5915
1777530624.8067687,R_Femur,0.0,0.0,0.0,0.0,0.0,0.0,0.0,0.0,0.0,0.0,0.0,0.0,1.0
1777530624.8067687,R_Tibia,-0.1005,-9.4746,2.4883,0.2441,-0.1831,0.3662,-75.2783,0.5658,-112.7417,-0.3415,-0.5063,-0.661,0.436
1777530624.8067687,R_Foot,0.8565,1.2298,9.8957,0.4883,0.061,-0.1221,7.0807,-4.9164,4.5483,0.0599,-0.0452,0.0369,0.9965
1777530624.8067687,Trunk,-7.1729,-0.6269,-6.4647,0.9155,0.1221,-0.4272,-174.4464,47.8455,67.9999,-0.7459,0.5268,-0.311,0.2632
1777530624.8067687,L_Femur,0.5934,9.6899,-0.6029,0.1831,-0.3662,-0.1221,93.5541,-3.5101,35.4199,0.6875,-0.2415,0.187,0.6589
1777530624.8067687,L_Tibia,-0.2105,-8.7425,-4.1583,-0.3052,-0.2441,0.4883,-115.4279,1.2799,-141.7676,-0.2825,-0.7968,-0.5078,0.166
1777530624.8067687,L_Foot,-1.0336,-0.1196,9.9962,-0.7324,-0.3662,0.3052,-0.6702,5.8173,107.3969,0.0374,0.0347,0.8047,0.5915
1777530624.8067687,R_Femur,0.0,0.0,0.0,0.0,0.0,0.0,0.0,0.0,0.0,0.0,0.0,0.0,1.0
1777530624.8067687,R_Tibia,-0.1005,-9.4746,2.4883,0.2441,-0.1831,0.3662,-75.2783,0.5658,-112.7417,-0.3415,-0.5063,-0.661,0.436
1777530624.8067687,R_Foot,0.8565,1.2298,9.8957,0.4883,0.061,-0.1221,7.0807,-4.9164,4.5483,0.0599,-0.0452,0.0369,0.9965
1777530624.807768,Trunk,-7.1729,-0.6269,-6.4647,0.9155,0.1221,-0.4272,-174.4464,47.8455,67.9999,-0.7459,0.5268,-0.311,0.2632
1777530624.807768,L_Femur,0.5934,9.6899,-0.6029,0.1831,-0.3662,-0.1221,93.5541,-3.5101,35.4199,0.6875,-0.2415,0.187,0.6589
1777530624.807768,L_Tibia,-0.2201,-8.7473,-4.1535,-0.2441,-0.2441,0.4883,-115.4279,1.2799,-141.7676,-0.2825,-0.7968,-0.5078,0.166
1777530624.807768,L_Foot,-1.0336,-0.1196,9.9962,-0.7324,-0.3662,0.3052,-0.6702,5.8173,107.3969,0.0374,0.0347,0.8047,0.5915
1777530624.807768,R_Femur,0.0,0.0,0.0,0.0,0.0,0.0,0.0,0.0,0.0,0.0,0.0,0.0,1.0
1777530624.807768,R_Tibia,-0.1005,-9.4746,2.4883,0.2441,-0.1831,0.3662,-75.2783,0.5658,-112.7417,-0.3415,-0.5063,-0.661,0.436
1777530624.807768,R_Foot,0.8565,1.2298,9.8957,0.4883,0.061,-0.1221,7.0807,-4.9164,4.5483,0.0599,-0.0452,0.0369,0.9965
1777530624.807768,Trunk,-7.1729,-0.6269,-6.4647,0.9155,0.1221,-0.4272,-174.4464,47.8455,67.9999,-0.7459,0.5268,-0.311,0.2632
1777530624.807768,L_Femur,0.5934,9.6899,-0.6029,0.1831,-0.3662,-0.1221,93.5541,-3.5101,35.4199,0.6875,-0.2415,0.187,0.6589
1777530624.807768,L_Tibia,-0.2201,-8.7473,-4.1535,-0.2441,-0.2441,0.4883,-115.4279,1.2799,-141.7676,-0.2825,-0.7968,-0.5078,0.166
1777530624.807768,L_Foot,-1.0097,-0.1053,10.0105,-0.6714,-0.1831,0.2441,-0.6757,5.8173,107.3969,0.0374,0.0348,0.8047,0.5915
1777530624.807768,R_Femur,0.0,0.0,0.0,0.0,0.0,0.0,0.0,0.0,0.0,0.0,0.0,0.0,1.0
1777530624.807768,R_Tibia,-0.1005,-9.4746,2.4883,0.2441,-0.1831,0.3662,-75.2783,0.5658,-112.7417,-0.3415,-0.5063,-0.661,0.436
1777530624.807768,R_Foot,0.8565,1.2298,9.8957,0.4883,0.061,-0.1221,7.0807,-4.9164,4.5483,0.0599,-0.0452,0.0369,0.9965
1777530624.807768,Trunk,-7.1777,-0.6221,-6.4743,0.9766,-0.1221,-0.6714,-174.4464,47.8455,67.9999,-0.7459,0.5268,-0.311,0.2632
1777530624.807768,L_Femur,0.5934,9.6899,-0.6029,0.1831,-0.3662,-0.1221,93.5541,-3.5101,35.4199,0.6875,-0.2415,0.187,0.6589
1777530624.807768,L_Tibia,-0.2201,-8.7473,-4.1535,-0.2441,-0.2441,0.4883,-115.4279,1.2799,-141.7676,-0.2825,-0.7968,-0.5078,0.166
1777530624.807768,L_Foot,-1.0097,-0.1053,10.0105,-0.6714,-0.1831,0.2441,-0.6757,5.8173,107.3969,0.0374,0.0348,0.8047,0.5915
1777530624.807768,R_Femur,0.0,0.0,0.0,0.0,0.0,0.0,0.0,0.0,0.0,0.0,0.0,0.0,1.0
1777530624.807768,R_Tibia,-0.1005,-9.4746,2.4883,0.2441,-0.1831,0.3662,-75.2783,0.5658,-112.7417,-0.3415,-0.5063,-0.661,0.436
1777530624.807768,R_Foot,0.8565,1.2298,9.8957,0.4883,0.061,-0.1221,7.0807,-4.9164,4.5483,0.0599,-0.0452,0.0369,0.9965
1777530624.807768,Trunk,-7.1777,-0.6221,-6.4743,0.9766,-0.1221,-0.6714,-174.4464,47.8455,67.9999,-0.7459,0.5268,-0.311,0.2632
1777530624.807768,L_Femur,0.5981,9.6899,-0.6029,0.2441,-0.4272,-0.1221,93.5541,-3.5101,35.4199,0.6875,-0.2415,0.187,0.6589
1777530624.807768,L_Tibia,-0.2201,-8.7473,-4.1535,-0.2441,-0.2441,0.4883,-115.4279,1.2799,-141.7676,-0.2825,-0.7968,-0.5078,0.166
1777530624.807768,L_Foot,-1.0097,-0.1053,10.0105,-0.6714,-0.1831,0.2441,-0.6757,5.8173,107.3969,0.0374,0.0348,0.8047,0.5915
1777530624.807768,R_Femur,0.0,0.0,0.0,0.0,0.0,0.0,0.0,0.0,0.0,0.0,0.0,0.0,1.0
1777530624.807768,R_Tibia,-0.1005,-9.4746,2.4883,0.2441,-0.1831,0.3662,-75.2783,0.5658,-112.7417,-0.3415,-0.5063,-0.661,0.436
1777530624.807768,R_Foot,0.8565,1.2298,9.8957,0.4883,0.061,-0.1221,7.0807,-4.9164,4.5483,0.0599,-0.0452,0.0369,0.9965
1777530624.807768,Trunk,-7.1777,-0.6221,-6.4743,0.9766,-0.1221,-0.6714,-174.4464,47.8455,67.9999,-0.7459,0.5268,-0.311,0.2632
1777530624.807768,L_Femur,0.5981,9.6899,-0.6029,0.2441,-0.4272,-0.1221,93.5541,-3.5101,35.4199,0.6875,-0.2415,0.187,0.6589
1777530624.807768,L_Tibia,-0.2153,-8.7473,-4.1535,-0.2441,-0.3052,0.4883,-115.4279,1.2799,-141.7676,-0.2825,-0.7968,-0.5078,0.166
1777530624.807768,L_Foot,-1.0097,-0.1053,10.0105,-0.6714,-0.1831,0.2441,-0.6757,5.8173,107.3969,0.0374,0.0348,0.8047,0.5915
1777530624.807768,R_Femur,0.0,0.0,0.0,0.0,0.0,0.0,0.0,0.0,0.0,0.0,0.0,0.0,1.0
1777530624.807768,R_Tibia,-0.1005,-9.4746,2.4883,0.2441,-0.1831,0.3662,-75.2783,0.5658,-112.7417,-0.3415,-0.5063,-0.661,0.436
1777530624.807768,R_Foot,0.8565,1.2298,9.8957,0.4883,0.061,-0.1221,7.0807,-4.9164,4.5483,0.0599,-0.0452,0.0369,0.9965
1777530624.807768,Trunk,-7.1777,-0.6221,-6.4743,0.9766,-0.1221,-0.6714,-174.4464,47.8455,67.9999,-0.7459,0.5268,-0.311,0.2632
1777530624.807768,L_Femur,0.5981,9.6899,-0.6029,0.2441,-0.4272,-0.1221,93.5541,-3.5101,35.4199,0.6875,-0.2415,0.187,0.6589
1777530624.807768,L_Tibia,-0.2153,-8.7473,-4.1535,-0.2441,-0.3052,0.4883,-115.4279,1.2799,-141.7676,-0.2825,-0.7968,-0.5078,0.166
1777530624.807768,L_Foot,-1.0288,-0.1196,9.9914,-0.6714,-0.3052,0.3052,-0.6757,5.8173,107.3969,0.0374,0.0348,0.8047,0.5915
1777530624.807768,R_Femur,0.0,0.0,0.0,0.0,0.0,0.0,0.0,0.0,0.0,0.0,0.0,0.0,1.0
1777530624.807768,R_Tibia,-0.1005,-9.4746,2.4883,0.2441,-0.1831,0.3662,-75.2783,0.5658,-112.7417,-0.3415,-0.5063,-0.661,0.436
1777530624.807768,R_Foot,0.8565,1.2298,9.8957,0.4883,0.061,-0.1221,7.0807,-4.9164,4.5483,0.0599,-0.0452,0.0369,0.9965
1777530624.808768,Trunk,-7.1777,-0.6221,-6.4743,0.9766,-0.1221,-0.6714,-174.4464,47.8455,67.9999,-0.7459,0.5268,-0.311,0.2632
1777530624.808768,L_Femur,0.5981,9.6899,-0.6029,0.2441,-0.4272,-0.1221,93.5541,-3.5101,35.4199,0.6875,-0.2415,0.187,0.6589
1777530624.808768,L_Tibia,-0.2153,-8.7473,-4.1535,-0.2441,-0.3052,0.4883,-115.4279,1.2799,-141.7676,-0.2825,-0.7968,-0.5078,0.166
1777530624.808768,L_Foot,-1.0288,-0.1196,9.9914,-0.6714,-0.3052,0.3052,-0.6757,5.8173,107.3969,0.0374,0.0348,0.8047,0.5915
1777530624.808768,R_Femur,0.0,0.0,0.0,0.0,0.0,0.0,0.0,0.0,0.0,0.0,0.0,0.0,1.0
1777530624.808768,R_Tibia,-0.0957,-9.4794,2.4883,0.2441,-0.2441,0.3662,-75.2783,0.5658,-112.7417,-0.3415,-0.5063,-0.661,0.436
1777530624.808768,R_Foot,0.8565,1.2298,9.8957,0.4883,0.061,-0.1221,7.0807,-4.9164,4.5483,0.0599,-0.0452,0.0369,0.9965
1777530624.808768,Trunk,-7.1777,-0.6221,-6.4743,0.9766,-0.1221,-0.6714,-174.4464,47.8455,67.9999,-0.7459,0.5268,-0.311,0.2632
1777530624.808768,L_Femur,0.5981,9.6899,-0.6029,0.2441,-0.4272,-0.1221,93.5541,-3.5101,35.4199,0.6875,-0.2415,0.187,0.6589
1777530624.808768,L_Tibia,-0.2153,-8.7473,-4.1535,-0.2441,-0.3052,0.4883,-115.4279,1.2799,-141.7676,-0.2825,-0.7968,-0.5078,0.166
1777530624.808768,L_Foot,-1.0288,-0.1196,9.9914,-0.6714,-0.3052,0.3052,-0.6757,5.8173,107.3969,0.0374,0.0348,0.8047,0.5915
1777530624.808768,R_Femur,0.0,0.0,0.0,0.0,0.0,0.0,0.0,0.0,0.0,0.0,0.0,0.0,1.0
1777530624.808768,R_Tibia,-0.0957,-9.4794,2.4883,0.2441,-0.2441,0.3662,-75.2783,0.5658,-112.7417,-0.3415,-0.5063,-0.661,0.436
1777530624.808768,R_Foot,0.8518,1.2298,9.8909,0.4272,0.0,-0.1221,7.0807,-4.9164,4.5428,0.0599,-0.0452,0.0369,0.9965
1777530624.808768,Trunk,-7.1825,-0.6221,-6.4695,0.9766,-0.1831,-0.6104,-174.4464,47.8455,67.9999,-0.7459,0.5268,-0.311,0.2632
1777530624.808768,L_Femur,0.5981,9.6899,-0.6029,0.2441,-0.4272,-0.1221,93.5541,-3.5101,35.4199,0.6875,-0.2415,0.187,0.6589
1777530624.808768,L_Tibia,-0.2153,-8.7473,-4.1535,-0.2441,-0.3052,0.4883,-115.4279,1.2799,-141.7676,-0.2825,-0.7968,-0.5078,0.166
1777530624.808768,L_Foot,-1.0288,-0.1196,9.9914,-0.6714,-0.3052,0.3052,-0.6757,5.8173,107.3969,0.0374,0.0348,0.8047,0.5915
1777530624.808768,R_Femur,0.0,0.0,0.0,0.0,0.0,0.0,0.0,0.0,0.0,0.0,0.0,0.0,1.0
1777530624.808768,R_Tibia,-0.0957,-9.4794,2.4883,0.2441,-0.2441,0.3662,-75.2783,0.5658,-112.7417,-0.3415,-0.5063,-0.661,0.436
1777530624.808768,R_Foot,0.8518,1.2298,9.8909,0.4272,0.0,-0.1221,7.0807,-4.9164,4.5428,0.0599,-0.0452,0.0369,0.9965
1777530624.808768,Trunk,-7.1825,-0.6221,-6.4695,0.9766,-0.1831,-0.6104,-174.4464,47.8455,67.9999,-0.7459,0.5268,-0.311,0.2632
1777530624.808768,L_Femur,0.5981,9.6899,-0.6029,0.1831,-0.4272,-0.1221,93.5541,-3.5101,35.4199,0.6875,-0.2415,0.187,0.6589
1777530624.808768,L_Tibia,-0.2153,-8.7473,-4.1535,-0.2441,-0.3052,0.4883,-115.4279,1.2799,-141.7676,-0.2825,-0.7968,-0.5078,0.166
1777530624.808768,L_Foot,-1.0288,-0.1196,9.9914,-0.6714,-0.3052,0.3052,-0.6757,5.8173,107.3969,0.0374,0.0348,0.8047,0.5915
1777530624.808768,R_Femur,0.0,0.0,0.0,0.0,0.0,0.0,0.0,0.0,0.0,0.0,0.0,0.0,1.0
1777530624.808768,R_Tibia,-0.0957,-9.4794,2.4883,0.2441,-0.2441,0.3662,-75.2783,0.5658,-112.7417,-0.3415,-0.5063,-0.661,0.436
1777530624.808768,R_Foot,0.8518,1.2298,9.8909,0.4272,0.0,-0.1221,7.0807,-4.9164,4.5428,0.0599,-0.0452,0.0369,0.9965
1777530624.808768,Trunk,-7.1825,-0.6221,-6.4695,0.9766,-0.1831,-0.6104,-174.4464,47.8455,67.9999,-0.7459,0.5268,-0.311,0.2632
1777530624.808768,L_Femur,0.5981,9.6899,-0.6029,0.1831,-0.4272,-0.1221,93.5541,-3.5101,35.4199,0.6875,-0.2415,0.187,0.6589
1777530624.808768,L_Tibia,-0.2105,-8.7473,-4.1679,-0.3052,-0.2441,0.4272,-115.4279,1.2799,-141.7676,-0.2825,-0.7968,-0.5078,0.166
1777530624.808768,L_Foot,-1.0288,-0.1196,9.9914,-0.6714,-0.3052,0.3052,-0.6757,5.8173,107.3969,0.0374,0.0348,0.8047,0.5915
1777530624.808768,R_Femur,0.0,0.0,0.0,0.0,0.0,0.0,0.0,0.0,0.0,0.0,0.0,0.0,1.0
1777530624.808768,R_Tibia,-0.0957,-9.4794,2.4883,0.2441,-0.2441,0.3662,-75.2783,0.5658,-112.7417,-0.3415,-0.5063,-0.661,0.436
1777530624.808768,R_Foot,0.8518,1.2298,9.8909,0.4272,0.0,-0.1221,7.0807,-4.9164,4.5428,0.0599,-0.0452,0.0369,0.9965
1777530624.809768,Trunk,-7.1825,-0.6221,-6.4695,0.9766,-0.1831,-0.6104,-174.4464,47.8455,67.9999,-0.7459,0.5268,-0.311,0.2632
1777530624.809768,L_Femur,0.5981,9.6899,-0.6029,0.1831,-0.4272,-0.1221,93.5541,-3.5101,35.4199,0.6875,-0.2415,0.187,0.6589
1777530624.809768,L_Tibia,-0.2105,-8.7473,-4.1679,-0.3052,-0.2441,0.4272,-115.4279,1.2799,-141.7676,-0.2825,-0.7968,-0.5078,0.166
1777530624.809768,L_Foot,-1.0192,-0.1148,10.0058,-0.6714,-0.2441,0.3052,-0.6757,5.8173,107.3969,0.0374,0.0348,0.8047,0.5915
1777530624.809768,R_Femur,0.0,0.0,0.0,0.0,0.0,0.0,0.0,0.0,0.0,0.0,0.0,0.0,1.0
1777530624.809768,R_Tibia,-0.0957,-9.4794,2.4883,0.2441,-0.2441,0.3662,-75.2783,0.5658,-112.7417,-0.3415,-0.5063,-0.661,0.436
1777530624.809768,R_Foot,0.8518,1.2298,9.8909,0.4272,0.0,-0.1221,7.0807,-4.9164,4.5428,0.0599,-0.0452,0.0369,0.9965
1777530624.918724,Trunk,-7.1825,-0.6221,-6.4695,0.9766,-0.1831,-0.6104,-174.4464,47.8455,67.9999,-0.7459,0.5268,-0.311,0.2632
1777530624.918724,L_Femur,0.5981,9.6899,-0.6029,0.2441,-0.4272,-0.1221,93.5541,-3.5101,35.4199,0.6875,-0.2415,0.187,0.6589
1777530624.918724,L_Tibia,-0.2105,-8.7473,-4.1679,-0.3052,-0.2441,0.4272,-115.4279,1.2799,-141.7676,-0.2825,-0.7968,-0.5078,0.166
1777530624.918724,L_Foot,-1.0192,-0.1148,10.0058,-0.6714,-0.2441,0.3052,-0.6757,5.8173,107.3969,0.0374,0.0348,0.8047,0.5915
1777530624.918724,R_Femur,0.0,0.0,0.0,0.0,0.0,0.0,0.0,0.0,0.0,0.0,0.0,0.0,1.0
1777530624.918724,R_Tibia,-0.0957,-9.4794,2.4883,0.2441,-0.2441,0.3662,-75.2783,0.5658,-112.7417,-0.3415,-0.5063,-0.661,0.436
1777530624.918724,R_Foot,0.8518,1.2298,9.8909,0.4272,0.0,-0.1221,7.0807,-4.9164,4.5428,0.0599,-0.0452,0.0369,0.9965
1777530624.918724,Trunk,-7.1825,-0.6221,-6.4695,0.9766,-0.1831,-0.6104,-174.4464,47.8455,67.9999,-0.7459,0.5268,-0.311,0.2632
1777530624.918724,L_Femur,0.5981,9.6899,-0.6029,0.2441,-0.4272,-0.1221,93.5541,-3.5101,35.4199,0.6875,-0.2415,0.187,0.6589
1777530624.918724,L_Tibia,-0.2249,-8.7473,-4.1631,-0.2441,-0.3052,0.4883,-115.4279,1.2799,-141.7676,-0.2825,-0.7968,-0.5078,0.166
1777530624.918724,L_Foot,-1.0192,-0.1148,10.0058,-0.6714,-0.2441,0.3052,-0.6757,5.8173,107.3969,0.0374,0.0348,0.8047,0.5915
1777530624.918724,R_Femur,0.0,0.0,0.0,0.0,0.0,0.0,0.0,0.0,0.0,0.0,0.0,0.0,1.0
1777530624.918724,R_Tibia,-0.0957,-9.4794,2.4883,0.2441,-0.2441,0.3662,-75.2783,0.5658,-112.7417,-0.3415,-0.5063,-0.661,0.436
1777530624.918724,R_Foot,0.8518,1.2298,9.8909,0.4272,0.0,-0.1221,7.0807,-4.9164,4.5428,0.0599,-0.0452,0.0369,0.9965
1777530624.918724,Trunk,-7.1825,-0.6221,-6.4695,0.9766,-0.1831,-0.6104,-174.4464,47.8455,67.9999,-0.7459,0.5268,-0.311,0.2632
1777530624.918724,L_Femur,0.5981,9.6899,-0.6029,0.2441,-0.4272,-0.1221,93.5541,-3.5101,35.4199,0.6875,-0.2415,0.187,0.6589
1777530624.918724,L_Tibia,-0.2249,-8.7473,-4.1631,-0.2441,-0.3052,0.4883,-115.4279,1.2799,-141.7676,-0.2825,-0.7968,-0.5078,0.166
1777530624.918724,L_Foot,-1.0097,-0.1148,10.0058,-0.7324,-0.1831,0.3662,-0.6757,5.8173,107.3969,0.0374,0.0348,0.8047,0.5915
1777530624.918724,R_Femur,0.0,0.0,0.0,0.0,0.0,0.0,0.0,0.0,0.0,0.0,0.0,0.0,1.0
1777530624.918724,R_Tibia,-0.0957,-9.4794,2.4883,0.2441,-0.2441,0.3662,-75.2783,0.5658,-112.7417,-0.3415,-0.5063,-0.661,0.436
1777530624.918724,R_Foot,0.8518,1.2298,9.8909,0.4272,0.0,-0.1221,7.0807,-4.9164,4.5428,0.0599,-0.0452,0.0369,0.9965
1777530624.9197266,Trunk,-7.1825,-0.6221,-6.4695,0.9766,-0.1831,-0.6104,-174.4464,47.8455,67.9999,-0.7459,0.5268,-0.311,0.2632
1777530624.9197266,L_Femur,0.5981,9.6899,-0.6029,0.2441,-0.4272,-0.1221,93.5541,-3.5101,35.4199,0.6875,-0.2415,0.187,0.6589
1777530624.9197266,L_Tibia,-0.2249,-8.7473,-4.1631,-0.2441,-0.3052,0.4883,-115.4279,1.2799,-141.7676,-0.2825,-0.7968,-0.5078,0.166
1777530624.9197266,L_Foot,-1.0097,-0.1148,10.0058,-0.7324,-0.1831,0.3662,-0.6757,5.8173,107.3969,0.0374,0.0348,0.8047,0.5915
1777530624.9197266,R_Femur,0.0,0.0,0.0,0.0,0.0,0.0,0.0,0.0,0.0,0.0,0.0,0.0,1.0
1777530624.9197266,R_Tibia,-0.0957,-9.4794,2.4883,0.2441,-0.2441,0.3662,-75.2783,0.5658,-112.7417,-0.3415,-0.5063,-0.661,0.436
1777530624.9197266,R_Foot,0.8613,1.225,9.8909,0.4272,0.061,-0.1221,7.0807,-4.9164,4.5428,0.0599,-0.0452,0.0369,0.9965
1777530624.9197266,Trunk,-7.1873,-0.6269,-6.4504,0.9766,-0.061,-0.5493,-174.4464,47.8455,67.9999,-0.7459,0.5268,-0.311,0.2632
1777530624.9197266,L_Femur,0.5981,9.6899,-0.6029,0.2441,-0.4272,-0.1221,93.5541,-3.5101,35.4199,0.6875,-0.2415,0.187,0.6589
1777530624.9197266,L_Tibia,-0.2249,-8.7473,-4.1631,-0.2441,-0.3052,0.4883,-115.4279,1.2799,-141.7676,-0.2825,-0.7968,-0.5078,0.166
1777530624.9197266,L_Foot,-1.0097,-0.1148,10.0058,-0.7324,-0.1831,0.3662,-0.6757,5.8173,107.3969,0.0374,0.0348,0.8047,0.5915
1777530624.9197266,R_Femur,0.0,0.0,0.0,0.0,0.0,0.0,0.0,0.0,0.0,0.0,0.0,0.0,1.0
1777530624.9197266,R_Tibia,-0.0957,-9.4794,2.4883,0.2441,-0.2441,0.3662,-75.2783,0.5658,-112.7417,-0.3415,-0.5063,-0.661,0.436
1777530624.9197266,R_Foot,0.8613,1.225,9.8909,0.4272,0.061,-0.1221,7.0807,-4.9164,4.5428,0.0599,-0.0452,0.0369,0.9965
1777530624.9197266,Trunk,-7.1873,-0.6269,-6.4504,0.9766,-0.061,-0.5493,-174.4464,47.8455,67.9999,-0.7459,0.5268,-0.311,0.2632
1777530624.9197266,L_Femur,0.5934,9.6899,-0.5981,0.3052,-0.4272,-0.1221,93.5541,-3.5101,35.4199,0.6875,-0.2415,0.187,0.6589
1777530624.9197266,L_Tibia,-0.2249,-8.7473,-4.1631,-0.2441,-0.3052,0.4883,-115.4279,1.2799,-141.7676,-0.2825,-0.7968,-0.5078,0.166
1777530624.9197266,L_Foot,-1.0097,-0.1148,10.0058,-0.7324,-0.1831,0.3662,-0.6757,5.8173,107.3969,0.0374,0.0348,0.8047,0.5915
1777530624.9197266,R_Femur,0.0,0.0,0.0,0.0,0.0,0.0,0.0,0.0,0.0,0.0,0.0,0.0,1.0
1777530624.9197266,R_Tibia,-0.0957,-9.4794,2.4883,0.2441,-0.2441,0.3662,-75.2783,0.5658,-112.7417,-0.3415,-0.5063,-0.661,0.436
1777530624.9197266,R_Foot,0.8613,1.225,9.8909,0.4272,0.061,-0.1221,7.0807,-4.9164,4.5428,0.0599,-0.0452,0.0369,0.9965
1777530624.9197266,Trunk,-7.1873,-0.6269,-6.4504,0.9766,-0.061,-0.5493,-174.4464,47.8455,67.9999,-0.7459,0.5268,-0.311,0.2632
1777530624.9197266,L_Femur,0.5934,9.6899,-0.5981,0.3052,-0.4272,-0.1221,93.5541,-3.5101,35.4199,0.6875,-0.2415,0.187,0.6589
1777530624.9197266,L_Tibia,-0.2153,-8.7473,-4.1583,-0.2441,-0.2441,0.4883,-115.4279,1.2799,-141.7676,-0.2825,-0.7968,-0.5078,0.166
1777530624.9197266,L_Foot,-1.0097,-0.1148,10.0058,-0.7324,-0.1831,0.3662,-0.6757,5.8173,107.3969,0.0374,0.0348,0.8047,0.5915
1777530624.9197266,R_Femur,0.0,0.0,0.0,0.0,0.0,0.0,0.0,0.0,0.0,0.0,0.0,0.0,1.0
1777530624.9197266,R_Tibia,-0.0957,-9.4794,2.4883,0.2441,-0.2441,0.3662,-75.2783,0.5658,-112.7417,-0.3415,-0.5063,-0.661,0.436
1777530624.9197266,R_Foot,0.8613,1.225,9.8909,0.4272,0.061,-0.1221,7.0807,-4.9164,4.5428,0.0599,-0.0452,0.0369,0.9965
1777530624.9197266,Trunk,-7.1873,-0.6269,-6.4504,0.9766,-0.061,-0.5493,-174.4464,47.8455,67.9999,-0.7459,0.5268,-0.311,0.2632
1777530624.9197266,L_Femur,0.5934,9.6899,-0.5981,0.3052,-0.4272,-0.1221,93.5541,-3.5101,35.4199,0.6875,-0.2415,0.187,0.6589
1777530624.9197266,L_Tibia,-0.2153,-8.7473,-4.1583,-0.2441,-0.2441,0.4883,-115.4279,1.2799,-141.7676,-0.2825,-0.7968,-0.5078,0.166
1777530624.9197266,L_Foot,-1.0288,-0.1101,10.001,-0.6714,-0.3662,0.3052,-0.6702,5.8173,107.3969,0.0374,0.0347,0.8047,0.5915
1777530624.9197266,R_Femur,0.0,0.0,0.0,0.0,0.0,0.0,0.0,0.0,0.0,0.0,0.0,0.0,1.0
1777530624.9197266,R_Tibia,-0.0957,-9.4794,2.4883,0.2441,-0.2441,0.3662,-75.2783,0.5658,-112.7417,-0.3415,-0.5063,-0.661,0.436
1777530624.9197266,R_Foot,0.8613,1.225,9.8909,0.4272,0.061,-0.1221,7.0807,-4.9164,4.5428,0.0599,-0.0452,0.0369,0.9965
1777530624.9207234,Trunk,-7.1921,-0.6269,-6.46,0.9766,-0.1831,-0.6104,-174.4464,47.8455,67.9944,-0.746,0.5268,-0.311,0.2632
1777530624.9207234,L_Femur,0.5934,9.6899,-0.5981,0.3052,-0.4272,-0.1221,93.5541,-3.5101,35.4199,0.6875,-0.2415,0.187,0.6589
1777530624.9207234,L_Tibia,-0.2153,-8.7473,-4.1583,-0.2441,-0.2441,0.4883,-115.4279,1.2799,-141.7676,-0.2825,-0.7968,-0.5078,0.166
1777530624.9207234,L_Foot,-1.0288,-0.1101,10.001,-0.6714,-0.3662,0.3052,-0.6702,5.8173,107.3969,0.0374,0.0347,0.8047,0.5915
1777530624.9207234,R_Femur,0.0,0.0,0.0,0.0,0.0,0.0,0.0,0.0,0.0,0.0,0.0,0.0,1.0
1777530624.9207234,R_Tibia,-0.0957,-9.4794,2.4883,0.2441,-0.2441,0.3662,-75.2783,0.5658,-112.7417,-0.3415,-0.5063,-0.661,0.436
1777530624.9207234,R_Foot,0.8613,1.225,9.8909,0.4272,0.061,-0.1221,7.0807,-4.9164,4.5428,0.0599,-0.0452,0.0369,0.9965
1777530624.9207234,Trunk,-7.1921,-0.6269,-6.46,0.9766,-0.1831,-0.6104,-174.4464,47.8455,67.9944,-0.746,0.5268,-0.311,0.2632
1777530624.9207234,L_Femur,0.5981,9.6852,-0.5981,0.2441,-0.4272,-0.1221,93.5541,-3.5101,35.4199,0.6875,-0.2415,0.187,0.6589
1777530624.9207234,L_Tibia,-0.2153,-8.7473,-4.1583,-0.2441,-0.2441,0.4883,-115.4279,1.2799,-141.7676,-0.2825,-0.7968,-0.5078,0.166
1777530624.9207234,L_Foot,-1.0288,-0.1101,10.001,-0.6714,-0.3662,0.3052,-0.6702,5.8173,107.3969,0.0374,0.0347,0.8047,0.5915
1777530624.9207234,R_Femur,0.0,0.0,0.0,0.0,0.0,0.0,0.0,0.0,0.0,0.0,0.0,0.0,1.0
1777530624.9207234,R_Tibia,-0.0957,-9.4794,2.4883,0.2441,-0.2441,0.3662,-75.2783,0.5658,-112.7417,-0.3415,-0.5063,-0.661,0.436
1777530624.9207234,R_Foot,0.8613,1.225,9.8909,0.4272,0.061,-0.1221,7.0807,-4.9164,4.5428,0.0599,-0.0452,0.0369,0.9965
1777530624.9207234,Trunk,-7.1921,-0.6269,-6.46,0.9766,-0.1831,-0.6104,-174.4464,47.8455,67.9944,-0.746,0.5268,-0.311,0.2632
1777530624.9207234,L_Femur,0.5981,9.6852,-0.5981,0.2441,-0.4272,-0.1221,93.5541,-3.5101,35.4199,0.6875,-0.2415,0.187,0.6589
1777530624.9207234,L_Tibia,-0.2153,-8.7473,-4.1583,-0.2441,-0.2441,0.4883,-115.4279,1.2799,-141.7676,-0.2825,-0.7968,-0.5078,0.166
1777530624.9207234,L_Foot,-1.0097,-0.1196,10.001,-0.6714,-0.1831,0.3662,-0.6757,5.8173,107.3969,0.0374,0.0348,0.8047,0.5915
1777530624.9207234,R_Femur,0.0,0.0,0.0,0.0,0.0,0.0,0.0,0.0,0.0,0.0,0.0,0.0,1.0
1777530624.9207234,R_Tibia,-0.0957,-9.4794,2.4883,0.2441,-0.2441,0.3662,-75.2783,0.5658,-112.7417,-0.3415,-0.5063,-0.661,0.436
1777530624.9207234,R_Foot,0.8613,1.225,9.8909,0.4272,0.061,-0.1221,7.0807,-4.9164,4.5428,0.0599,-0.0452,0.0369,0.9965
1777530624.9207234,Trunk,-7.1921,-0.6269,-6.46,0.9766,-0.1831,-0.6104,-174.4464,47.8455,67.9944,-0.746,0.5268,-0.311,0.2632
1777530624.9207234,L_Femur,0.5981,9.6852,-0.5981,0.2441,-0.4272,-0.1221,93.5541,-3.5101,35.4199,0.6875,-0.2415,0.187,0.6589
1777530624.9207234,L_Tibia,-0.2153,-8.7473,-4.1583,-0.2441,-0.2441,0.4883,-115.4279,1.2799,-141.7676,-0.2825,-0.7968,-0.5078,0.166
1777530624.9207234,L_Foot,-1.0097,-0.1196,10.001,-0.6714,-0.1831,0.3662,-0.6757,5.8173,107.3969,0.0374,0.0348,0.8047,0.5915
1777530624.9207234,R_Femur,0.0,0.0,0.0,0.0,0.0,0.0,0.0,0.0,0.0,0.0,0.0,0.0,1.0
1777530624.9207234,R_Tibia,-0.1005,-9.4746,2.4979,0.2441,-0.1831,0.3662,-75.2783,0.5658,-112.7417,-0.3415,-0.5063,-0.661,0.436
1777530624.9207234,R_Foot,0.8613,1.225,9.8909,0.4272,0.061,-0.1221,7.0807,-4.9164,4.5428,0.0599,-0.0452,0.0369,0.9965
1777530624.9207234,Trunk,-7.1921,-0.6269,-6.46,0.9766,-0.1831,-0.6104,-174.4464,47.8455,67.9944,-0.746,0.5268,-0.311,0.2632
1777530624.9207234,L_Femur,0.5981,9.6852,-0.5981,0.2441,-0.4272,-0.1221,93.5541,-3.5101,35.4199,0.6875,-0.2415,0.187,0.6589
1777530624.9207234,L_Tibia,-0.2153,-8.7473,-4.1583,-0.2441,-0.2441,0.4883,-115.4279,1.2799,-141.7676,-0.2825,-0.7968,-0.5078,0.166
1777530624.9207234,L_Foot,-1.0097,-0.1196,10.001,-0.6714,-0.1831,0.3662,-0.6757,5.8173,107.3969,0.0374,0.0348,0.8047,0.5915
1777530624.9207234,R_Femur,0.0,0.0,0.0,0.0,0.0,0.0,0.0,0.0,0.0,0.0,0.0,0.0,1.0
1777530624.9207234,R_Tibia,-0.1005,-9.4746,2.4979,0.2441,-0.1831,0.3662,-75.2783,0.5658,-112.7417,-0.3415,-0.5063,-0.661,0.436
1777530624.9207234,R_Foot,0.8565,1.2298,9.8909,0.4883,0.0,-0.061,7.0807,-4.9164,4.5428,0.0599,-0.0452,0.0369,0.9965
1777530624.9207234,Trunk,-7.1825,-0.646,-6.4552,1.0376,-0.1221,-0.6104,-174.4464,47.8455,67.9944,-0.746,0.5268,-0.311,0.2632
1777530624.9207234,L_Femur,0.5981,9.6852,-0.5981,0.2441,-0.4272,-0.1221,93.5541,-3.5101,35.4199,0.6875,-0.2415,0.187,0.6589
1777530624.9207234,L_Tibia,-0.2153,-8.7473,-4.1583,-0.2441,-0.2441,0.4883,-115.4279,1.2799,-141.7676,-0.2825,-0.7968,-0.5078,0.166
1777530624.9207234,L_Foot,-1.0097,-0.1196,10.001,-0.6714,-0.1831,0.3662,-0.6757,5.8173,107.3969,0.0374,0.0348,0.8047,0.5915
1777530624.9207234,R_Femur,0.0,0.0,0.0,0.0,0.0,0.0,0.0,0.0,0.0,0.0,0.0,0.0,1.0
1777530624.9207234,R_Tibia,-0.1005,-9.4746,2.4979,0.2441,-0.1831,0.3662,-75.2783,0.5658,-112.7417,-0.3415,-0.5063,-0.661,0.436
1777530624.9207234,R_Foot,0.8565,1.2298,9.8909,0.4883,0.0,-0.061,7.0807,-4.9164,4.5428,0.0599,-0.0452,0.0369,0.9965
1777530624.9217236,Trunk,-7.1825,-0.646,-6.4552,1.0376,-0.1221,-0.6104,-174.4464,47.8455,67.9944,-0.746,0.5268,-0.311,0.2632
1777530624.9217236,L_Femur,0.6029,9.6852,-0.6029,0.1831,-0.4272,-0.1221,93.5541,-3.5101,35.4199,0.6875,-0.2415,0.187,0.6589
1777530624.9217236,L_Tibia,-0.2153,-8.7473,-4.1583,-0.2441,-0.2441,0.4883,-115.4279,1.2799,-141.7676,-0.2825,-0.7968,-0.5078,0.166
1777530624.9217236,L_Foot,-1.0097,-0.1196,10.001,-0.6714,-0.1831,0.3662,-0.6757,5.8173,107.3969,0.0374,0.0348,0.8047,0.5915
1777530624.9217236,R_Femur,0.0,0.0,0.0,0.0,0.0,0.0,0.0,0.0,0.0,0.0,0.0,0.0,1.0
1777530624.9217236,R_Tibia,-0.1005,-9.4746,2.4979,0.2441,-0.1831,0.3662,-75.2783,0.5658,-112.7417,-0.3415,-0.5063,-0.661,0.436
1777530624.9217236,R_Foot,0.8565,1.2298,9.8909,0.4883,0.0,-0.061,7.0807,-4.9164,4.5428,0.0599,-0.0452,0.0369,0.9965
1777530624.9217236,Trunk,-7.1825,-0.646,-6.4552,1.0376,-0.1221,-0.6104,-174.4464,47.8455,67.9944,-0.746,0.5268,-0.311,0.2632
1777530624.9217236,L_Femur,0.6029,9.6852,-0.6029,0.1831,-0.4272,-0.1221,93.5541,-3.5101,35.4199,0.6875,-0.2415,0.187,0.6589
1777530624.9217236,L_Tibia,-0.2153,-8.7473,-4.1583,-0.2441,-0.2441,0.4272,-115.4279,1.2799,-141.7676,-0.2825,-0.7968,-0.5078,0.166
1777530624.9217236,L_Foot,-1.0097,-0.1196,10.001,-0.6714,-0.1831,0.3662,-0.6757,5.8173,107.3969,0.0374,0.0348,0.8047,0.5915
1777530624.9217236,R_Femur,0.0,0.0,0.0,0.0,0.0,0.0,0.0,0.0,0.0,0.0,0.0,0.0,1.0
1777530624.9217236,R_Tibia,-0.1005,-9.4746,2.4979,0.2441,-0.1831,0.3662,-75.2783,0.5658,-112.7417,-0.3415,-0.5063,-0.661,0.436
1777530624.9217236,R_Foot,0.8565,1.2298,9.8909,0.4883,0.0,-0.061,7.0807,-4.9164,4.5428,0.0599,-0.0452,0.0369,0.9965
1777530624.9217236,Trunk,-7.1825,-0.646,-6.4552,1.0376,-0.1221,-0.6104,-174.4464,47.8455,67.9944,-0.746,0.5268,-0.311,0.2632
1777530624.9217236,L_Femur,0.6029,9.6852,-0.6029,0.1831,-0.4272,-0.1221,93.5541,-3.5101,35.4199,0.6875,-0.2415,0.187,0.6589
1777530624.9217236,L_Tibia,-0.2153,-8.7473,-4.1583,-0.2441,-0.2441,0.4272,-115.4279,1.2799,-141.7676,-0.2825,-0.7968,-0.5078,0.166
1777530624.9217236,L_Foot,-1.0192,-0.1148,10.001,-0.6714,-0.2441,0.3052,-0.6702,5.8173,107.3969,0.0374,0.0347,0.8047,0.5915
1777530624.9217236,R_Femur,0.0,0.0,0.0,0.0,0.0,0.0,0.0,0.0,0.0,0.0,0.0,0.0,1.0
1777530624.9217236,R_Tibia,-0.1005,-9.4746,2.4979,0.2441,-0.1831,0.3662,-75.2783,0.5658,-112.7417,-0.3415,-0.5063,-0.661,0.436
1777530624.9217236,R_Foot,0.8565,1.2298,9.8909,0.4883,0.0,-0.061,7.0807,-4.9164,4.5428,0.0599,-0.0452,0.0369,0.9965
1777530624.9217236,Trunk,-7.1777,-0.6556,-6.4456,0.9766,-0.1221,-0.6714,-174.4464,47.8455,67.9944,-0.746,0.5268,-0.311,0.2632
1777530624.9217236,L_Femur,0.6029,9.6852,-0.6029,0.1831,-0.4272,-0.1221,93.5541,-3.5101,35.4199,0.6875,-0.2415,0.187,0.6589
1777530624.9217236,L_Tibia,-0.2153,-8.7473,-4.1583,-0.2441,-0.2441,0.4272,-115.4279,1.2799,-141.7676,-0.2825,-0.7968,-0.5078,0.166
1777530624.9217236,L_Foot,-1.0192,-0.1148,10.001,-0.6714,-0.2441,0.3052,-0.6702,5.8173,107.3969,0.0374,0.0347,0.8047,0.5915
1777530624.9217236,R_Femur,0.0,0.0,0.0,0.0,0.0,0.0,0.0,0.0,0.0,0.0,0.0,0.0,1.0
1777530624.9217236,R_Tibia,-0.1005,-9.4746,2.4979,0.2441,-0.1831,0.3662,-75.2783,0.5658,-112.7417,-0.3415,-0.5063,-0.661,0.436
1777530624.9217236,R_Foot,0.8565,1.2298,9.8909,0.4883,0.0,-0.061,7.0807,-4.9164,4.5428,0.0599,-0.0452,0.0369,0.9965
1777530624.9217236,Trunk,-7.1777,-0.6556,-6.4456,0.9766,-0.1221,-0.6714,-174.4464,47.8455,67.9944,-0.746,0.5268,-0.311,0.2632
1777530624.9217236,L_Femur,0.5981,9.6852,-0.5981,0.2441,-0.4272,-0.1831,93.5541,-3.5101,35.4199,0.6875,-0.2415,0.187,0.6589
1777530624.9217236,L_Tibia,-0.2153,-8.7473,-4.1583,-0.2441,-0.2441,0.4272,-115.4279,1.2799,-141.7676,-0.2825,-0.7968,-0.5078,0.166
1777530624.9217236,L_Foot,-1.0192,-0.1148,10.001,-0.6714,-0.2441,0.3052,-0.6702,5.8173,107.3969,0.0374,0.0347,0.8047,0.5915
1777530624.9217236,R_Femur,0.0,0.0,0.0,0.0,0.0,0.0,0.0,0.0,0.0,0.0,0.0,0.0,1.0
1777530624.9217236,R_Tibia,-0.1005,-9.4746,2.4979,0.2441,-0.1831,0.3662,-75.2783,0.5658,-112.7417,-0.3415,-0.5063,-0.661,0.436
1777530624.9217236,R_Foot,0.8565,1.2298,9.8909,0.4883,0.0,-0.061,7.0807,-4.9164,4.5428,0.0599,-0.0452,0.0369,0.9965
1777530624.922723,Trunk,-7.1777,-0.6556,-6.4456,0.9766,-0.1221,-0.6714,-174.4464,47.8455,67.9944,-0.746,0.5268,-0.311,0.2632
1777530624.922723,L_Femur,0.5981,9.6852,-0.5981,0.2441,-0.4272,-0.1831,93.5541,-3.5101,35.4199,0.6875,-0.2415,0.187,0.6589
1777530624.922723,L_Tibia,-0.2105,-8.7473,-4.1583,-0.2441,-0.2441,0.4883,-115.4279,1.2799,-141.7676,-0.2825,-0.7968,-0.5078,0.166
1777530624.922723,L_Foot,-1.0192,-0.1148,10.001,-0.6714,-0.2441,0.3052,-0.6702,5.8173,107.3969,0.0374,0.0347,0.8047,0.5915
1777530624.922723,R_Femur,0.0,0.0,0.0,0.0,0.0,0.0,0.0,0.0,0.0,0.0,0.0,0.0,1.0
1777530624.922723,R_Tibia,-0.1005,-9.4746,2.4979,0.2441,-0.1831,0.3662,-75.2783,0.5658,-112.7417,-0.3415,-0.5063,-0.661,0.436
1777530624.922723,R_Foot,0.8565,1.2298,9.8909,0.4883,0.0,-0.061,7.0807,-4.9164,4.5428,0.0599,-0.0452,0.0369,0.9965
1777530624.922723,Trunk,-7.1777,-0.6556,-6.4456,0.9766,-0.1221,-0.6714,-174.4464,47.8455,67.9944,-0.746,0.5268,-0.311,0.2632
1777530624.922723,L_Femur,0.5981,9.6852,-0.5981,0.2441,-0.4272,-0.1831,93.5541,-3.5101,35.4199,0.6875,-0.2415,0.187,0.6589
1777530624.922723,L_Tibia,-0.2105,-8.7473,-4.1583,-0.2441,-0.2441,0.4883,-115.4279,1.2799,-141.7676,-0.2825,-0.7968,-0.5078,0.166
1777530624.922723,L_Foot,-1.0192,-0.1148,10.001,-0.6714,-0.2441,0.3052,-0.6702,5.8173,107.3969,0.0374,0.0347,0.8047,0.5915
1777530624.922723,R_Femur,0.0,0.0,0.0,0.0,0.0,0.0,0.0,0.0,0.0,0.0,0.0,0.0,1.0
1777530624.922723,R_Tibia,-0.1005,-9.4746,2.4979,0.2441,-0.1831,0.3662,-75.2783,0.5658,-112.7417,-0.3415,-0.5063,-0.661,0.436
1777530624.922723,R_Foot,0.8565,1.2298,9.8909,0.4883,0.0,-0.061,7.0807,-4.9164,4.5428,0.0599,-0.0452,0.0369,0.9965
1777530624.922723,Trunk,-7.1777,-0.6556,-6.4456,0.9766,-0.1221,-0.6714,-174.4464,47.8455,67.9944,-0.746,0.5268,-0.311,0.2632
1777530624.922723,L_Femur,0.5981,9.6852,-0.5981,0.2441,-0.4272,-0.1831,93.5541,-3.5101,35.4199,0.6875,-0.2415,0.187,0.6589
1777530624.922723,L_Tibia,-0.2105,-8.7473,-4.1583,-0.2441,-0.2441,0.4883,-115.4279,1.2799,-141.7676,-0.2825,-0.7968,-0.5078,0.166
1777530624.922723,L_Foot,-1.0192,-0.1148,10.001,-0.6714,-0.2441,0.3052,-0.6702,5.8173,107.3969,0.0374,0.0347,0.8047,0.5915
1777530624.922723,R_Femur,0.0,0.0,0.0,0.0,0.0,0.0,0.0,0.0,0.0,0.0,0.0,0.0,1.0
1777530624.922723,R_Tibia,-0.1053,-9.4746,2.4835,0.2441,-0.1831,0.3662,-75.2783,0.5658,-112.7417,-0.3415,-0.5063,-0.661,0.436
1777530624.922723,R_Foot,0.8565,1.2298,9.8909,0.4883,0.0,-0.061,7.0807,-4.9164,4.5428,0.0599,-0.0452,0.0369,0.9965
1777530624.922723,Trunk,-7.1777,-0.6556,-6.4456,0.9766,-0.1221,-0.6714,-174.4464,47.8455,67.9944,-0.746,0.5268,-0.311,0.2632
1777530624.922723,L_Femur,0.5981,9.6852,-0.5981,0.2441,-0.4272,-0.1831,93.5541,-3.5101,35.4199,0.6875,-0.2415,0.187,0.6589
1777530624.922723,L_Tibia,-0.2105,-8.7473,-4.1583,-0.2441,-0.2441,0.4883,-115.4279,1.2799,-141.7676,-0.2825,-0.7968,-0.5078,0.166
1777530624.922723,L_Foot,-1.0192,-0.1148,10.001,-0.6714,-0.2441,0.3052,-0.6702,5.8173,107.3969,0.0374,0.0347,0.8047,0.5915
1777530624.922723,R_Femur,0.0,0.0,0.0,0.0,0.0,0.0,0.0,0.0,0.0,0.0,0.0,0.0,1.0
1777530624.922723,R_Tibia,-0.1053,-9.4746,2.4835,0.2441,-0.1831,0.3662,-75.2783,0.5658,-112.7417,-0.3415,-0.5063,-0.661,0.436
1777530624.922723,R_Foot,0.8613,1.2298,9.8957,0.4883,0.0,-0.1221,7.0807,-4.9164,4.5428,0.0599,-0.0452,0.0369,0.9965
1777530624.922723,Trunk,-7.1729,-0.6604,-6.4695,0.9766,-0.061,-0.6104,-174.4409,47.8455,67.9944,-0.746,0.5268,-0.311,0.2632
1777530624.922723,L_Femur,0.5981,9.6852,-0.5981,0.2441,-0.4272,-0.1831,93.5541,-3.5101,35.4199,0.6875,-0.2415,0.187,0.6589
1777530624.922723,L_Tibia,-0.2105,-8.7473,-4.1583,-0.2441,-0.2441,0.4883,-115.4279,1.2799,-141.7676,-0.2825,-0.7968,-0.5078,0.166
1777530624.922723,L_Foot,-1.0192,-0.1148,10.001,-0.6714,-0.2441,0.3052,-0.6702,5.8173,107.3969,0.0374,0.0347,0.8047,0.5915
1777530624.922723,R_Femur,0.0,0.0,0.0,0.0,0.0,0.0,0.0,0.0,0.0,0.0,0.0,0.0,1.0
1777530624.922723,R_Tibia,-0.1053,-9.4746,2.4835,0.2441,-0.1831,0.3662,-75.2783,0.5658,-112.7417,-0.3415,-0.5063,-0.661,0.436
1777530624.922723,R_Foot,0.8613,1.2298,9.8957,0.4883,0.0,-0.1221,7.0807,-4.9164,4.5428,0.0599,-0.0452,0.0369,0.9965
1777530624.922723,Trunk,-7.1729,-0.6604,-6.4695,0.9766,-0.061,-0.6104,-174.4409,47.8455,67.9944,-0.746,0.5268,-0.311,0.2632
1777530624.922723,L_Femur,0.5981,9.6852,-0.5981,0.3052,-0.4272,-0.1221,93.5541,-3.5101,35.4199,0.6875,-0.2415,0.187,0.6589
1777530624.922723,L_Tibia,-0.2105,-8.7473,-4.1583,-0.2441,-0.2441,0.4883,-115.4279,1.2799,-141.7676,-0.2825,-0.7968,-0.5078,0.166
1777530624.922723,L_Foot,-1.0192,-0.1148,10.001,-0.6714,-0.2441,0.3052,-0.6702,5.8173,107.3969,0.0374,0.0347,0.8047,0.5915
1777530624.922723,R_Femur,0.0,0.0,0.0,0.0,0.0,0.0,0.0,0.0,0.0,0.0,0.0,0.0,1.0
1777530624.922723,R_Tibia,-0.1053,-9.4746,2.4835,0.2441,-0.1831,0.3662,-75.2783,0.5658,-112.7417,-0.3415,-0.5063,-0.661,0.436
1777530624.922723,R_Foot,0.8613,1.2298,9.8957,0.4883,0.0,-0.1221,7.0807,-4.9164,4.5428,0.0599,-0.0452,0.0369,0.9965
1777530624.9237285,Trunk,-7.1729,-0.6604,-6.4695,0.9766,-0.061,-0.6104,-174.4409,47.8455,67.9944,-0.746,0.5268,-0.311,0.2632
1777530624.9237285,L_Femur,0.5981,9.6852,-0.5981,0.3052,-0.4272,-0.1221,93.5541,-3.5101,35.4199,0.6875,-0.2415,0.187,0.6589
1777530624.9237285,L_Tibia,-0.2153,-8.7473,-4.1631,-0.3052,-0.2441,0.4883,-115.4279,1.2799,-141.7676,-0.2825,-0.7968,-0.5078,0.166
1777530624.9237285,L_Foot,-1.0192,-0.1148,10.001,-0.6714,-0.2441,0.3052,-0.6702,5.8173,107.3969,0.0374,0.0347,0.8047,0.5915
1777530624.9237285,R_Femur,0.0,0.0,0.0,0.0,0.0,0.0,0.0,0.0,0.0,0.0,0.0,0.0,1.0
1777530624.9237285,R_Tibia,-0.1053,-9.4746,2.4835,0.2441,-0.1831,0.3662,-75.2783,0.5658,-112.7417,-0.3415,-0.5063,-0.661,0.436
1777530624.9237285,R_Foot,0.8613,1.2298,9.8957,0.4883,0.0,-0.1221,7.0807,-4.9164,4.5428,0.0599,-0.0452,0.0369,0.9965
1777530624.9237285,Trunk,-7.1729,-0.6604,-6.4695,0.9766,-0.061,-0.6104,-174.4409,47.8455,67.9944,-0.746,0.5268,-0.311,0.2632
1777530624.9237285,L_Femur,0.5981,9.6852,-0.5981,0.3052,-0.4272,-0.1221,93.5541,-3.5101,35.4199,0.6875,-0.2415,0.187,0.6589
1777530624.9237285,L_Tibia,-0.2153,-8.7473,-4.1631,-0.3052,-0.2441,0.4883,-115.4279,1.2799,-141.7676,-0.2825,-0.7968,-0.5078,0.166
1777530624.9237285,L_Foot,-1.024,-0.1148,10.001,-0.7324,-0.3052,0.3052,-0.6702,5.8173,107.3969,0.0374,0.0347,0.8047,0.5915
1777530624.9237285,R_Femur,0.0,0.0,0.0,0.0,0.0,0.0,0.0,0.0,0.0,0.0,0.0,0.0,1.0
1777530624.9237285,R_Tibia,-0.1053,-9.4746,2.4835,0.2441,-0.1831,0.3662,-75.2783,0.5658,-112.7417,-0.3415,-0.5063,-0.661,0.436
1777530624.9237285,R_Foot,0.8613,1.2298,9.8957,0.4883,0.0,-0.1221,7.0807,-4.9164,4.5428,0.0599,-0.0452,0.0369,0.9965
1777530624.9237285,Trunk,-7.1682,-0.6556,-6.4791,0.9766,-0.1831,-0.6714,-174.4409,47.8455,67.9944,-0.746,0.5268,-0.311,0.2632
1777530624.9237285,L_Femur,0.5981,9.6852,-0.5981,0.3052,-0.4272,-0.1221,93.5541,-3.5101,35.4199,0.6875,-0.2415,0.187,0.6589
1777530624.9237285,L_Tibia,-0.2153,-8.7473,-4.1631,-0.3052,-0.2441,0.4883,-115.4279,1.2799,-141.7676,-0.2825,-0.7968,-0.5078,0.166
1777530624.9237285,L_Foot,-1.024,-0.1148,10.001,-0.7324,-0.3052,0.3052,-0.6702,5.8173,107.3969,0.0374,0.0347,0.8047,0.5915
1777530624.9237285,R_Femur,0.0,0.0,0.0,0.0,0.0,0.0,0.0,0.0,0.0,0.0,0.0,0.0,1.0
1777530624.9237285,R_Tibia,-0.1053,-9.4746,2.4835,0.2441,-0.1831,0.3662,-75.2783,0.5658,-112.7417,-0.3415,-0.5063,-0.661,0.436
1777530624.9237285,R_Foot,0.8613,1.2298,9.8957,0.4883,0.0,-0.1221,7.0807,-4.9164,4.5428,0.0599,-0.0452,0.0369,0.9965
1777530624.9237285,Trunk,-7.1682,-0.6556,-6.4791,0.9766,-0.1831,-0.6714,-174.4409,47.8455,67.9944,-0.746,0.5268,-0.311,0.2632
1777530624.9237285,L_Femur,0.5981,9.6947,-0.5981,0.2441,-0.4272,-0.1221,93.5541,-3.5101,35.4199,0.6875,-0.2415,0.187,0.6589
1777530624.9237285,L_Tibia,-0.2153,-8.7473,-4.1631,-0.3052,-0.2441,0.4883,-115.4279,1.2799,-141.7676,-0.2825,-0.7968,-0.5078,0.166
1777530624.9237285,L_Foot,-1.024,-0.1148,10.001,-0.7324,-0.3052,0.3052,-0.6702,5.8173,107.3969,0.0374,0.0347,0.8047,0.5915
1777530624.9237285,R_Femur,0.0,0.0,0.0,0.0,0.0,0.0,0.0,0.0,0.0,0.0,0.0,0.0,1.0
1777530624.9237285,R_Tibia,-0.1053,-9.4746,2.4835,0.2441,-0.1831,0.3662,-75.2783,0.5658,-112.7417,-0.3415,-0.5063,-0.661,0.436
1777530624.9237285,R_Foot,0.8613,1.2298,9.8957,0.4883,0.0,-0.1221,7.0807,-4.9164,4.5428,0.0599,-0.0452,0.0369,0.9965
1777530624.9237285,Trunk,-7.1682,-0.6556,-6.4791,0.9766,-0.1831,-0.6714,-174.4409,47.8455,67.9944,-0.746,0.5268,-0.311,0.2632
1777530624.9237285,L_Femur,0.5981,9.6947,-0.5981,0.2441,-0.4272,-0.1221,93.5541,-3.5101,35.4199,0.6875,-0.2415,0.187,0.6589
1777530624.9237285,L_Tibia,-0.2153,-8.7425,-4.1583,-0.2441,-0.2441,0.4883,-115.4279,1.2799,-141.7676,-0.2825,-0.7968,-0.5078,0.166
1777530624.9237285,L_Foot,-1.024,-0.1148,10.001,-0.7324,-0.3052,0.3052,-0.6702,5.8173,107.3969,0.0374,0.0347,0.8047,0.5915
1777530624.9237285,R_Femur,0.0,0.0,0.0,0.0,0.0,0.0,0.0,0.0,0.0,0.0,0.0,0.0,1.0
1777530624.9237285,R_Tibia,-0.1053,-9.4746,2.4835,0.2441,-0.1831,0.3662,-75.2783,0.5658,-112.7417,-0.3415,-0.5063,-0.661,0.436
1777530624.9237285,R_Foot,0.8613,1.2298,9.8957,0.4883,0.0,-0.1221,7.0807,-4.9164,4.5428,0.0599,-0.0452,0.0369,0.9965
1777530624.9237285,Trunk,-7.1682,-0.6556,-6.4791,0.9766,-0.1831,-0.6714,-174.4409,47.8455,67.9944,-0.746,0.5268,-0.311,0.2632
1777530624.9237285,L_Femur,0.5981,9.6947,-0.5981,0.2441,-0.4272,-0.1221,93.5541,-3.5101,35.4199,0.6875,-0.2415,0.187,0.6589
1777530624.9237285,L_Tibia,-0.2153,-8.7425,-4.1583,-0.2441,-0.2441,0.4883,-115.4279,1.2799,-141.7676,-0.2825,-0.7968,-0.5078,0.166
1777530624.9237285,L_Foot,-1.0192,-0.1148,9.9962,-0.6714,-0.2441,0.3052,-0.6702,5.8173,107.3969,0.0374,0.0347,0.8047,0.5915
1777530624.9237285,R_Femur,0.0,0.0,0.0,0.0,0.0,0.0,0.0,0.0,0.0,0.0,0.0,0.0,1.0
1777530624.9237285,R_Tibia,-0.1053,-9.4746,2.4835,0.2441,-0.1831,0.3662,-75.2783,0.5658,-112.7417,-0.3415,-0.5063,-0.661,0.436
1777530624.9237285,R_Foot,0.8613,1.2298,9.8957,0.4883,0.0,-0.1221,7.0807,-4.9164,4.5428,0.0599,-0.0452,0.0369,0.9965
1777530624.9247255,Trunk,-7.1682,-0.6556,-6.4791,0.9766,-0.1831,-0.6714,-174.4409,47.8455,67.9944,-0.746,0.5268,-0.311,0.2632
1777530624.9247255,L_Femur,0.5981,9.6947,-0.5981,0.2441,-0.4272,-0.1221,93.5541,-3.5101,35.4199,0.6875,-0.2415,0.187,0.6589
1777530624.9247255,L_Tibia,-0.2153,-8.7425,-4.1583,-0.2441,-0.2441,0.4883,-115.4279,1.2799,-141.7676,-0.2825,-0.7968,-0.5078,0.166
1777530624.9247255,L_Foot,-1.0192,-0.1148,9.9962,-0.6714,-0.2441,0.3052,-0.6702,5.8173,107.3969,0.0374,0.0347,0.8047,0.5915
1777530624.9247255,R_Femur,0.0,0.0,0.0,0.0,0.0,0.0,0.0,0.0,0.0,0.0,0.0,0.0,1.0
1777530624.9247255,R_Tibia,-0.1005,-9.4746,2.4883,0.2441,-0.1831,0.4272,-75.2783,0.5658,-112.7417,-0.3415,-0.5063,-0.661,0.436
1777530624.9247255,R_Foot,0.8613,1.2298,9.8957,0.4883,0.0,-0.1221,7.0807,-4.9164,4.5428,0.0599,-0.0452,0.0369,0.9965
1777530624.9247255,Trunk,-7.1682,-0.6556,-6.4791,0.9766,-0.1831,-0.6714,-174.4409,47.8455,67.9944,-0.746,0.5268,-0.311,0.2632
1777530624.9247255,L_Femur,0.5981,9.6947,-0.5981,0.2441,-0.4272,-0.1221,93.5541,-3.5101,35.4199,0.6875,-0.2415,0.187,0.6589
1777530624.9247255,L_Tibia,-0.2153,-8.7425,-4.1583,-0.2441,-0.2441,0.4883,-115.4279,1.2799,-141.7676,-0.2825,-0.7968,-0.5078,0.166
1777530624.9247255,L_Foot,-1.0192,-0.1148,9.9962,-0.6714,-0.2441,0.3052,-0.6702,5.8173,107.3969,0.0374,0.0347,0.8047,0.5915
1777530624.9247255,R_Femur,0.0,0.0,0.0,0.0,0.0,0.0,0.0,0.0,0.0,0.0,0.0,0.0,1.0
1777530624.9247255,R_Tibia,-0.1005,-9.4746,2.4883,0.2441,-0.1831,0.4272,-75.2783,0.5658,-112.7417,-0.3415,-0.5063,-0.661,0.436
1777530624.9247255,R_Foot,0.8613,1.2346,9.8909,0.4272,0.0,-0.1221,7.0807,-4.9164,4.5428,0.0599,-0.0452,0.0369,0.9965
1777530624.9247255,Trunk,-7.1634,-0.6508,-6.4695,0.9155,0.0,-0.5493,-174.4409,47.8455,67.9944,-0.746,0.5268,-0.311,0.2632
1777530624.9247255,L_Femur,0.5981,9.6947,-0.5981,0.2441,-0.4272,-0.1221,93.5541,-3.5101,35.4199,0.6875,-0.2415,0.187,0.6589
1777530624.9247255,L_Tibia,-0.2153,-8.7425,-4.1583,-0.2441,-0.2441,0.4883,-115.4279,1.2799,-141.7676,-0.2825,-0.7968,-0.5078,0.166
1777530624.9247255,L_Foot,-1.0192,-0.1148,9.9962,-0.6714,-0.2441,0.3052,-0.6702,5.8173,107.3969,0.0374,0.0347,0.8047,0.5915
1777530624.9247255,R_Femur,0.0,0.0,0.0,0.0,0.0,0.0,0.0,0.0,0.0,0.0,0.0,0.0,1.0
1777530624.9247255,R_Tibia,-0.1005,-9.4746,2.4883,0.2441,-0.1831,0.4272,-75.2783,0.5658,-112.7417,-0.3415,-0.5063,-0.661,0.436
1777530624.9247255,R_Foot,0.8613,1.2346,9.8909,0.4272,0.0,-0.1221,7.0807,-4.9164,4.5428,0.0599,-0.0452,0.0369,0.9965
1777530624.9247255,Trunk,-7.1634,-0.6508,-6.4695,0.9155,0.0,-0.5493,-174.4409,47.8455,67.9944,-0.746,0.5268,-0.311,0.2632
1777530624.9247255,L_Femur,0.5981,9.6947,-0.6029,0.1831,-0.4272,-0.1221,93.5541,-3.5101,35.4199,0.6875,-0.2415,0.187,0.6589
1777530624.9247255,L_Tibia,-0.2153,-8.7425,-4.1583,-0.2441,-0.2441,0.4883,-115.4279,1.2799,-141.7676,-0.2825,-0.7968,-0.5078,0.166
1777530624.9247255,L_Foot,-1.0192,-0.1148,9.9962,-0.6714,-0.2441,0.3052,-0.6702,5.8173,107.3969,0.0374,0.0347,0.8047,0.5915
1777530624.9247255,R_Femur,0.0,0.0,0.0,0.0,0.0,0.0,0.0,0.0,0.0,0.0,0.0,0.0,1.0
1777530624.9247255,R_Tibia,-0.1005,-9.4746,2.4883,0.2441,-0.1831,0.4272,-75.2783,0.5658,-112.7417,-0.3415,-0.5063,-0.661,0.436
1777530624.9247255,R_Foot,0.8613,1.2346,9.8909,0.4272,0.0,-0.1221,7.0807,-4.9164,4.5428,0.0599,-0.0452,0.0369,0.9965
1777530625.0818555,Trunk,-7.1634,-0.6508,-6.4695,0.9155,0.0,-0.5493,-174.4409,47.8455,67.9944,-0.746,0.5268,-0.311,0.2632
1777530625.0818555,L_Femur,0.5981,9.6947,-0.6029,0.1831,-0.4272,-0.1221,93.5541,-3.5101,35.4199,0.6875,-0.2415,0.187,0.6589
1777530625.0818555,L_Tibia,-0.2153,-8.7473,-4.1583,-0.2441,-0.3052,0.4883,-115.4279,1.2799,-141.7676,-0.2825,-0.7968,-0.5078,0.166
1777530625.0818555,L_Foot,-1.0192,-0.1148,9.9962,-0.6714,-0.2441,0.3052,-0.6702,5.8173,107.3969,0.0374,0.0347,0.8047,0.5915
1777530625.0818555,R_Femur,0.0,0.0,0.0,0.0,0.0,0.0,0.0,0.0,0.0,0.0,0.0,0.0,1.0
1777530625.0818555,R_Tibia,-0.1005,-9.4746,2.4883,0.2441,-0.1831,0.4272,-75.2783,0.5658,-112.7417,-0.3415,-0.5063,-0.661,0.436
1777530625.0818555,R_Foot,0.8613,1.2346,9.8909,0.4272,0.0,-0.1221,7.0807,-4.9164,4.5428,0.0599,-0.0452,0.0369,0.9965
1777530625.0824034,Trunk,-7.1634,-0.6508,-6.4695,0.9155,0.0,-0.5493,-174.4409,47.8455,67.9944,-0.746,0.5268,-0.311,0.2632
1777530625.0824034,L_Femur,0.5981,9.6947,-0.6029,0.1831,-0.4272,-0.1221,93.5541,-3.5101,35.4199,0.6875,-0.2415,0.187,0.6589
1777530625.0824034,L_Tibia,-0.2153,-8.7473,-4.1583,-0.2441,-0.3052,0.4883,-115.4279,1.2799,-141.7676,-0.2825,-0.7968,-0.5078,0.166
1777530625.0824034,L_Foot,-1.0192,-0.1148,10.001,-0.7324,-0.2441,0.3052,-0.6702,5.8173,107.3969,0.0374,0.0347,0.8047,0.5915
1777530625.0824034,R_Femur,0.0,0.0,0.0,0.0,0.0,0.0,0.0,0.0,0.0,0.0,0.0,0.0,1.0
1777530625.0824034,R_Tibia,-0.1005,-9.4746,2.4883,0.2441,-0.1831,0.4272,-75.2783,0.5658,-112.7417,-0.3415,-0.5063,-0.661,0.436
1777530625.0824034,R_Foot,0.8613,1.2346,9.8909,0.4272,0.0,-0.1221,7.0807,-4.9164,4.5428,0.0599,-0.0452,0.0369,0.9965
1777530625.0824034,Trunk,-7.1586,-0.6364,-6.4647,0.9155,0.061,-0.4883,-174.4409,47.8455,67.9944,-0.746,0.5268,-0.311,0.2632
1777530625.0824034,L_Femur,0.5981,9.6947,-0.6029,0.1831,-0.4272,-0.1221,93.5541,-3.5101,35.4199,0.6875,-0.2415,0.187,0.6589
1777530625.0824034,L_Tibia,-0.2153,-8.7473,-4.1583,-0.2441,-0.3052,0.4883,-115.4279,1.2799,-141.7676,-0.2825,-0.7968,-0.5078,0.166
