Timestamp,Vicon_Frame_Num,Vicon_Recv_Timestamp,IMU_Recv_Timestamp,Planter_Recv_Timestamp,Vicon_Gap_Flag,Vicon_Gap_Size,IMU_Stale_ms,Planter_Stale_ms,IMU_Matched_Flag,Planter_Matched_Flag,Vicon_Root_X,Vicon_Root_Y,Vicon_Root_Z,Vicon_L_Femur_X,Vicon_L_Femur_Y,Vicon_L_Femur_Z,Vicon_L_Tibia_X,Vicon_L_Tibia_Y,Vicon_L_Tibia_Z,Vicon_L_Foot_X,Vicon_L_Foot_Y,Vicon_L_Foot_Z,Vicon_L_Toe_X,Vicon_L_Toe_Y,Vicon_L_Toe_Z,Vicon_R_Femur_X,Vicon_R_Femur_Y,Vicon_R_Femur_Z,Vicon_R_Tibia_X,Vicon_R_Tibia_Y,Vicon_R_Tibia_Z,Vicon_R_Foot_X,Vicon_R_Foot_Y,Vicon_R_Foot_Z,Vicon_R_Toe_X,Vicon_R_Toe_Y,Vicon_R_Toe_Z,Vicon_LASI_X,Vicon_LASI_Y,Vicon_LASI_Z,Vicon_RASI_X,Vicon_RASI_Y,Vicon_RASI_Z,Vicon_LPSI_X,Vicon_LPSI_Y,Vicon_LPSI_Z,Vicon_RPSI_X,Vicon_RPSI_Y,Vicon_RPSI_Z,Vicon_LTHI_X,Vicon_LTHI_Y,Vicon_LTHI_Z,Vicon_LKNE_X,Vicon_LKNE_Y,Vicon_LKNE_Z,Vicon_LTIB_X,Vicon_LTIB_Y,Vicon_LTIB_Z,Vicon_LANK_X,Vicon_LANK_Y,Vicon_LANK_Z,Vicon_LHEE_X,Vicon_LHEE_Y,Vicon_LHEE_Z,Vicon_LTOE_X,Vicon_LTOE_Y,Vicon_LTOE_Z,Vicon_RTHI_X,Vicon_RTHI_Y,Vicon_RTHI_Z,Vicon_RKNE_X,Vicon_RKNE_Y,Vicon_RKNE_Z,Vicon_RTIB_X,Vicon_RTIB_Y,Vicon_RTIB_Z,Vicon_RANK_X,Vicon_RANK_Y,Vicon_RANK_Z,Vicon_RHEE_X,Vicon_RHEE_Y,Vicon_RHEE_Z,Vicon_RTOE_X,Vicon_RTOE_Y,Vicon_RTOE_Z,IMU_Trunk_Acc_X,IMU_Trunk_Acc_Y,IMU_Trunk_Acc_Z,IMU_Trunk_Gyro_X,IMU_Trunk_Gyro_Y,IMU_Trunk_Gyro_Z,IMU_Trunk_Roll,IMU_Trunk_Pitch,IMU_Trunk_Yaw,IMU_Trunk_Quat_x,IMU_Trunk_Quat_y,IMU_Trunk_Quat_z,IMU_Trunk_Quat_w,IMU_L_Femur_Acc_X,IMU_L_Femur_Acc_Y,IMU_L_Femur_Acc_Z,IMU_L_Femur_Gyro_X,IMU_L_Femur_Gyro_Y,IMU_L_Femur_Gyro_Z,IMU_L_Femur_Roll,IMU_L_Femur_Pitch,IMU_L_Femur_Yaw,IMU_L_Femur_Quat_x,IMU_L_Femur_Quat_y,IMU_L_Femur_Quat_z,IMU_L_Femur_Quat_w,IMU_L_Tibia_Acc_X,IMU_L_Tibia_Acc_Y,IMU_L_Tibia_Acc_Z,IMU_L_Tibia_Gyro_X,IMU_L_Tibia_Gyro_Y,IMU_L_Tibia_Gyro_Z,IMU_L_Tibia_Roll,IMU_L_Tibia_Pitch,IMU_L_Tibia_Yaw,IMU_L_Tibia_Quat_x,IMU_L_Tibia_Quat_y,IMU_L_Tibia_Quat_z,IMU_L_Tibia_Quat_w,IMU_L_Foot_Acc_X,IMU_L_Foot_Acc_Y,IMU_L_Foot_Acc_Z,IMU_L_Foot_Gyro_X,IMU_L_Foot_Gyro_Y,IMU_L_Foot_Gyro_Z,IMU_L_Foot_Roll,IMU_L_Foot_Pitch,IMU_L_Foot_Yaw,IMU_L_Foot_Quat_x,IMU_L_Foot_Quat_y,IMU_L_Foot_Quat_z,IMU_L_Foot_Quat_w,IMU_R_Femur_Acc_X,IMU_R_Femur_Acc_Y,IMU_R_Femur_Acc_Z,IMU_R_Femur_Gyro_X,IMU_R_Femur_Gyro_Y,IMU_R_Femur_Gyro_Z,IMU_R_Femur_Roll,IMU_R_Femur_Pitch,IMU_R_Femur_Yaw,IMU_R_Femur_Quat_x,IMU_R_Femur_Quat_y,IMU_R_Femur_Quat_z,IMU_R_Femur_Quat_w,IMU_R_Tibia_Acc_X,IMU_R_Tibia_Acc_Y,IMU_R_Tibia_Acc_Z,IMU_R_Tibia_Gyro_X,IMU_R_Tibia_Gyro_Y,IMU_R_Tibia_Gyro_Z,IMU_R_Tibia_Roll,IMU_R_Tibia_Pitch,IMU_R_Tibia_Yaw,IMU_R_Tibia_Quat_x,IMU_R_Tibia_Quat_y,IMU_R_Tibia_Quat_z,IMU_R_Tibia_Quat_w,IMU_R_Foot_Acc_X,IMU_R_Foot_Acc_Y,IMU_R_Foot_Acc_Z,IMU_R_Foot_Gyro_X,IMU_R_Foot_Gyro_Y,IMU_R_Foot_Gyro_Z,IMU_R_Foot_Roll,IMU_R_Foot_Pitch,IMU_R_Foot_Yaw,IMU_R_Foot_Quat_x,IMU_R_Foot_Quat_y,IMU_R_Foot_Quat_z,IMU_R_Foot_Quat_w,Planter_Left_0,Planter_Left_1,Planter_Left_2,Planter_Left_3,Planter_Left_4,Planter_Left_5,Planter_Left_6,Planter_Left_7,Planter_Left_8,Planter_Left_9,Planter_Left_10,Planter_Left_11,Planter_Left_12,Planter_Left_13,Planter_Left_14,Planter_Left_15,Planter_Left_16,Planter_Left_17,Planter_Right_0,Planter_Right_1,Planter_Right_2,Planter_Right_3,Planter_Right_4,Planter_Right_5,Planter_Right_6,Planter_Right_7,Planter_Right_8,Planter_Right_9,Planter_Right_10,Planter_Right_11,Planter_Right_12,Planter_Right_13,Planter_Right_14,Planter_Right_15,Planter_Right_16,Planter_Right_17
1777289315.2039506,345252,1777289305.6832201,1777289313.3932796,1777289306.6134102,0,0,-7710.059404373169,-930.1900863647461,1,1,0.0,0.0,0.0,0.0,0.0,0.0,0.0,0.0,0.0,0.0,0.0,0.0,0.0,0.0,0.0,0.0,0.0,0.0,0.0,0.0,0.0,0.0,0.0,0.0,0.0,0.0,0.0,0.0,0.0,0.0,0.0,0.0,0.0,0.0,0.0,0.0,0.0,0.0,0.0,0.0,0.0,0.0,0.0,0.0,0.0,0.0,0.0,0.0,0.0,0.0,0.0,0.0,0.0,0.0,0.0,0.0,0.0,0.0,0.0,0.0,0.0,0.0,0.0,0.0,0.0,0.0,0.0,0.0,0.0,0.0,0.0,0.0,0.0,0.0,0.0,0.2105,8.7521,0.9044,13.3057,-1.0986,-12.7563,83.3972,-1.3129,-22.2693,0.6543,0.1201,-0.1517,0.7311,2.0385,9.3263,-0.6986,76.7212,55.481,-5.0049,94.5319,1.3129,-29.6906,0.708,0.1957,-0.1657,0.6581,-0.2058,9.3502,-2.9381,18.8599,18.7378,-11.7798,103.6395,-0.2692,-27.5922,0.7637,0.186,-0.1492,0.5999,-0.8805,0.7321,9.9005,3.418,3.2349,1.2207,3.8452,5.4657,-86.0339,-0.008,0.0577,-0.6799,0.731,0.067,9.8909,-1.8136,-123.0469,41.0156,29.6631,85.2594,-5.614,-23.4943,0.6696,0.1024,-0.1821,0.7127,1.4595,7.6754,-7.9386,-96.4966,-5.188,16.3574,140.3558,-8.1464,-25.9277,0.9199,0.187,-0.141,0.3146,2.7945,-3.7659,8.4984,-149.4751,17.2119,33.4473,48.0542,4.8779,-96.3831,0.2422,0.3291,-0.6686,0.6212,0,0,0,0,0,0,0,0,0,0,0,0,0,0,0,0,0,0,0,0,15118,45837,0,0,0,0,18199,64782,41728,0,0,0,60681,61954,13058,0
1777289315.2042823,345253,1777289305.6905608,1777289313.3932796,1777289306.6134102,0,0,-7702.718734741211,-922.8494167327881,1,1,0.0,0.0,0.0,0.0,0.0,0.0,0.0,0.0,0.0,0.0,0.0,0.0,0.0,0.0,0.0,0.0,0.0,0.0,0.0,0.0,0.0,0.0,0.0,0.0,0.0,0.0,0.0,0.0,0.0,0.0,0.0,0.0,0.0,0.0,0.0,0.0,0.0,0.0,0.0,0.0,0.0,0.0,0.0,0.0,0.0,0.0,0.0,0.0,0.0,0.0,0.0,0.0,0.0,0.0,0.0,0.0,0.0,0.0,0.0,0.0,0.0,0.0,0.0,0.0,0.0,0.0,0.0,0.0,0.0,0.0,0.0,0.0,0.0,0.0,0.0,0.2105,8.7521,0.9044,13.3057,-1.0986,-12.7563,83.3972,-1.3129,-22.2693,0.6543,0.1201,-0.1517,0.7311,2.0385,9.3263,-0.6986,76.7212,55.481,-5.0049,94.5319,1.3129,-29.6906,0.708,0.1957,-0.1657,0.6581,-0.2058,9.3502,-2.9381,18.8599,18.7378,-11.7798,103.6395,-0.2692,-27.5922,0.7637,0.186,-0.1492,0.5999,-0.8805,0.7321,9.9005,3.418,3.2349,1.2207,3.8452,5.4657,-86.0339,-0.008,0.0577,-0.6799,0.731,0.067,9.8909,-1.8136,-123.0469,41.0156,29.6631,85.2594,-5.614,-23.4943,0.6696,0.1024,-0.1821,0.7127,1.4595,7.6754,-7.9386,-96.4966,-5.188,16.3574,140.3558,-8.1464,-25.9277,0.9199,0.187,-0.141,0.3146,2.7945,-3.7659,8.4984,-149.4751,17.2119,33.4473,48.0542,4.8779,-96.3831,0.2422,0.3291,-0.6686,0.6212,0,0,0,0,0,0,0,0,0,0,0,0,0,0,0,0,0,0,0,0,15118,45837,0,0,0,0,18199,64782,41728,0,0,0,60681,61954,13058,0
1777289315.2042823,345254,1777289305.6933644,1777289313.3932796,1777289306.6134102,0,0,-7699.915170669556,-920.0458526611328,1,1,0.0,0.0,0.0,0.0,0.0,0.0,0.0,0.0,0.0,0.0,0.0,0.0,0.0,0.0,0.0,0.0,0.0,0.0,0.0,0.0,0.0,0.0,0.0,0.0,0.0,0.0,0.0,0.0,0.0,0.0,0.0,0.0,0.0,0.0,0.0,0.0,0.0,0.0,0.0,0.0,0.0,0.0,0.0,0.0,0.0,0.0,0.0,0.0,0.0,0.0,0.0,0.0,0.0,0.0,0.0,0.0,0.0,0.0,0.0,0.0,0.0,0.0,0.0,0.0,0.0,0.0,0.0,0.0,0.0,0.0,0.0,0.0,0.0,0.0,0.0,0.2105,8.7521,0.9044,13.3057,-1.0986,-12.7563,83.3972,-1.3129,-22.2693,0.6543,0.1201,-0.1517,0.7311,2.0385,9.3263,-0.6986,76.7212,55.481,-5.0049,94.5319,1.3129,-29.6906,0.708,0.1957,-0.1657,0.6581,-0.2058,9.3502,-2.9381,18.8599,18.7378,-11.7798,103.6395,-0.2692,-27.5922,0.7637,0.186,-0.1492,0.5999,-0.8805,0.7321,9.9005,3.418,3.2349,1.2207,3.8452,5.4657,-86.0339,-0.008,0.0577,-0.6799,0.731,0.067,9.8909,-1.8136,-123.0469,41.0156,29.6631,85.2594,-5.614,-23.4943,0.6696,0.1024,-0.1821,0.7127,1.4595,7.6754,-7.9386,-96.4966,-5.188,16.3574,140.3558,-8.1464,-25.9277,0.9199,0.187,-0.141,0.3146,2.7945,-3.7659,8.4984,-149.4751,17.2119,33.4473,48.0542,4.8779,-96.3831,0.2422,0.3291,-0.6686,0.6212,0,0,0,0,0,0,0,0,0,0,0,0,0,0,0,0,0,0,0,0,15118,45837,0,0,0,0,18199,64782,41728,0,0,0,60681,61954,13058,0
1777289315.2042823,345255,1777289305.703397,1777289313.3932796,1777289306.6134102,0,0,-7689.882516860962,-910.0131988525391,1,1,0.0,0.0,0.0,0.0,0.0,0.0,0.0,0.0,0.0,0.0,0.0,0.0,0.0,0.0,0.0,0.0,0.0,0.0,0.0,0.0,0.0,0.0,0.0,0.0,0.0,0.0,0.0,0.0,0.0,0.0,0.0,0.0,0.0,0.0,0.0,0.0,0.0,0.0,0.0,0.0,0.0,0.0,0.0,0.0,0.0,0.0,0.0,0.0,0.0,0.0,0.0,0.0,0.0,0.0,0.0,0.0,0.0,0.0,0.0,0.0,0.0,0.0,0.0,0.0,0.0,0.0,0.0,0.0,0.0,0.0,0.0,0.0,0.0,0.0,0.0,0.2105,8.7521,0.9044,13.3057,-1.0986,-12.7563,83.3972,-1.3129,-22.2693,0.6543,0.1201,-0.1517,0.7311,2.0385,9.3263,-0.6986,76.7212,55.481,-5.0049,94.5319,1.3129,-29.6906,0.708,0.1957,-0.1657,0.6581,-0.2058,9.3502,-2.9381,18.8599,18.7378,-11.7798,103.6395,-0.2692,-27.5922,0.7637,0.186,-0.1492,0.5999,-0.8805,0.7321,9.9005,3.418,3.2349,1.2207,3.8452,5.4657,-86.0339,-0.008,0.0577,-0.6799,0.731,0.067,9.8909,-1.8136,-123.0469,41.0156,29.6631,85.2594,-5.614,-23.4943,0.6696,0.1024,-0.1821,0.7127,1.4595,7.6754,-7.9386,-96.4966,-5.188,16.3574,140.3558,-8.1464,-25.9277,0.9199,0.187,-0.141,0.3146,2.7945,-3.7659,8.4984,-149.4751,17.2119,33.4473,48.0542,4.8779,-96.3831,0.2422,0.3291,-0.6686,0.6212,0,0,0,0,0,0,0,0,0,0,0,0,0,0,0,0,0,0,0,0,15118,45837,0,0,0,0,18199,64782,41728,0,0,0,60681,61954,13058,0
1777289315.2042823,345256,1777289305.713422,1777289313.3932796,1777289306.6134102,0,0,-7679.857492446899,-899.9881744384766,1,1,0.0,0.0,0.0,0.0,0.0,0.0,0.0,0.0,0.0,0.0,0.0,0.0,0.0,0.0,0.0,0.0,0.0,0.0,0.0,0.0,0.0,0.0,0.0,0.0,0.0,0.0,0.0,0.0,0.0,0.0,0.0,0.0,0.0,0.0,0.0,0.0,0.0,0.0,0.0,0.0,0.0,0.0,0.0,0.0,0.0,0.0,0.0,0.0,0.0,0.0,0.0,0.0,0.0,0.0,0.0,0.0,0.0,0.0,0.0,0.0,0.0,0.0,0.0,0.0,0.0,0.0,0.0,0.0,0.0,0.0,0.0,0.0,0.0,0.0,0.0,0.2105,8.7521,0.9044,13.3057,-1.0986,-12.7563,83.3972,-1.3129,-22.2693,0.6543,0.1201,-0.1517,0.7311,2.0385,9.3263,-0.6986,76.7212,55.481,-5.0049,94.5319,1.3129,-29.6906,0.708,0.1957,-0.1657,0.6581,-0.2058,9.3502,-2.9381,18.8599,18.7378,-11.7798,103.6395,-0.2692,-27.5922,0.7637,0.186,-0.1492,0.5999,-0.8805,0.7321,9.9005,3.418,3.2349,1.2207,3.8452,5.4657,-86.0339,-0.008,0.0577,-0.6799,0.731,0.067,9.8909,-1.8136,-123.0469,41.0156,29.6631,85.2594,-5.614,-23.4943,0.6696,0.1024,-0.1821,0.7127,1.4595,7.6754,-7.9386,-96.4966,-5.188,16.3574,140.3558,-8.1464,-25.9277,0.9199,0.187,-0.141,0.3146,2.7945,-3.7659,8.4984,-149.4751,17.2119,33.4473,48.0542,4.8779,-96.3831,0.2422,0.3291,-0.6686,0.6212,0,0,0,0,0,0,0,0,0,0,0,0,0,0,0,0,0,0,0,0,15118,45837,0,0,0,0,18199,64782,41728,0,0,0,60681,61954,13058,0
1777289315.2042823,345257,1777289305.7229242,1777289313.3932796,1777289306.6134102,0,0,-7670.355319976807,-890.4860019683838,1,1,0.0,0.0,0.0,0.0,0.0,0.0,0.0,0.0,0.0,0.0,0.0,0.0,0.0,0.0,0.0,0.0,0.0,0.0,0.0,0.0,0.0,0.0,0.0,0.0,0.0,0.0,0.0,0.0,0.0,0.0,0.0,0.0,0.0,0.0,0.0,0.0,0.0,0.0,0.0,0.0,0.0,0.0,0.0,0.0,0.0,0.0,0.0,0.0,0.0,0.0,0.0,0.0,0.0,0.0,0.0,0.0,0.0,0.0,0.0,0.0,0.0,0.0,0.0,0.0,0.0,0.0,0.0,0.0,0.0,0.0,0.0,0.0,0.0,0.0,0.0,0.2105,8.7521,0.9044,13.3057,-1.0986,-12.7563,83.3972,-1.3129,-22.2693,0.6543,0.1201,-0.1517,0.7311,2.0385,9.3263,-0.6986,76.7212,55.481,-5.0049,94.5319,1.3129,-29.6906,0.708,0.1957,-0.1657,0.6581,-0.2058,9.3502,-2.9381,18.8599,18.7378,-11.7798,103.6395,-0.2692,-27.5922,0.7637,0.186,-0.1492,0.5999,-0.8805,0.7321,9.9005,3.418,3.2349,1.2207,3.8452,5.4657,-86.0339,-0.008,0.0577,-0.6799,0.731,0.067,9.8909,-1.8136,-123.0469,41.0156,29.6631,85.2594,-5.614,-23.4943,0.6696,0.1024,-0.1821,0.7127,1.4595,7.6754,-7.9386,-96.4966,-5.188,16.3574,140.3558,-8.1464,-25.9277,0.9199,0.187,-0.141,0.3146,2.7945,-3.7659,8.4984,-149.4751,17.2119,33.4473,48.0542,4.8779,-96.3831,0.2422,0.3291,-0.6686,0.6212,0,0,0,0,0,0,0,0,0,0,0,0,0,0,0,0,0,0,0,0,15118,45837,0,0,0,0,18199,64782,41728,0,0,0,60681,61954,13058,0
1777289315.2042823,345258,1777289305.7408779,1777289313.3932796,1777289306.6134102,0,0,-7652.401685714722,-872.5323677062988,1,1,0.0,0.0,0.0,0.0,0.0,0.0,0.0,0.0,0.0,0.0,0.0,0.0,0.0,0.0,0.0,0.0,0.0,0.0,0.0,0.0,0.0,0.0,0.0,0.0,0.0,0.0,0.0,0.0,0.0,0.0,0.0,0.0,0.0,0.0,0.0,0.0,0.0,0.0,0.0,0.0,0.0,0.0,0.0,0.0,0.0,0.0,0.0,0.0,0.0,0.0,0.0,0.0,0.0,0.0,0.0,0.0,0.0,0.0,0.0,0.0,0.0,0.0,0.0,0.0,0.0,0.0,0.0,0.0,0.0,0.0,0.0,0.0,0.0,0.0,0.0,0.2105,8.7521,0.9044,13.3057,-1.0986,-12.7563,83.3972,-1.3129,-22.2693,0.6543,0.1201,-0.1517,0.7311,2.0385,9.3263,-0.6986,76.7212,55.481,-5.0049,94.5319,1.3129,-29.6906,0.708,0.1957,-0.1657,0.6581,-0.2058,9.3502,-2.9381,18.8599,18.7378,-11.7798,103.6395,-0.2692,-27.5922,0.7637,0.186,-0.1492,0.5999,-0.8805,0.7321,9.9005,3.418,3.2349,1.2207,3.8452,5.4657,-86.0339,-0.008,0.0577,-0.6799,0.731,0.067,9.8909,-1.8136,-123.0469,41.0156,29.6631,85.2594,-5.614,-23.4943,0.6696,0.1024,-0.1821,0.7127,1.4595,7.6754,-7.9386,-96.4966,-5.188,16.3574,140.3558,-8.1464,-25.9277,0.9199,0.187,-0.141,0.3146,2.7945,-3.7659,8.4984,-149.4751,17.2119,33.4473,48.0542,4.8779,-96.3831,0.2422,0.3291,-0.6686,0.6212,0,0,0,0,0,0,0,0,0,0,0,0,0,0,0,0,0,0,0,0,15118,45837,0,0,0,0,18199,64782,41728,0,0,0,60681,61954,13058,0
1777289315.2042823,345259,1777289305.7428746,1777289313.3932796,1777289306.6134102,0,0,-7650.404930114746,-870.5356121063232,1,1,0.0,0.0,0.0,0.0,0.0,0.0,0.0,0.0,0.0,0.0,0.0,0.0,0.0,0.0,0.0,0.0,0.0,0.0,0.0,0.0,0.0,0.0,0.0,0.0,0.0,0.0,0.0,0.0,0.0,0.0,0.0,0.0,0.0,0.0,0.0,0.0,0.0,0.0,0.0,0.0,0.0,0.0,0.0,0.0,0.0,0.0,0.0,0.0,0.0,0.0,0.0,0.0,0.0,0.0,0.0,0.0,0.0,0.0,0.0,0.0,0.0,0.0,0.0,0.0,0.0,0.0,0.0,0.0,0.0,0.0,0.0,0.0,0.0,0.0,0.0,0.2105,8.7521,0.9044,13.3057,-1.0986,-12.7563,83.3972,-1.3129,-22.2693,0.6543,0.1201,-0.1517,0.7311,2.0385,9.3263,-0.6986,76.7212,55.481,-5.0049,94.5319,1.3129,-29.6906,0.708,0.1957,-0.1657,0.6581,-0.2058,9.3502,-2.9381,18.8599,18.7378,-11.7798,103.6395,-0.2692,-27.5922,0.7637,0.186,-0.1492,0.5999,-0.8805,0.7321,9.9005,3.418,3.2349,1.2207,3.8452,5.4657,-86.0339,-0.008,0.0577,-0.6799,0.731,0.067,9.8909,-1.8136,-123.0469,41.0156,29.6631,85.2594,-5.614,-23.4943,0.6696,0.1024,-0.1821,0.7127,1.4595,7.6754,-7.9386,-96.4966,-5.188,16.3574,140.3558,-8.1464,-25.9277,0.9199,0.187,-0.141,0.3146,2.7945,-3.7659,8.4984,-149.4751,17.2119,33.4473,48.0542,4.8779,-96.3831,0.2422,0.3291,-0.6686,0.6212,0,0,0,0,0,0,0,0,0,0,0,0,0,0,0,0,0,0,0,0,15118,45837,0,0,0,0,18199,64782,41728,0,0,0,60681,61954,13058,0
1777289315.2054162,345260,1777289305.7528722,1777289313.3932796,1777289306.6134102,0,0,-7640.40732383728,-860.5380058288574,1,1,0.0,0.0,0.0,0.0,0.0,0.0,0.0,0.0,0.0,0.0,0.0,0.0,0.0,0.0,0.0,0.0,0.0,0.0,0.0,0.0,0.0,0.0,0.0,0.0,0.0,0.0,0.0,0.0,0.0,0.0,0.0,0.0,0.0,0.0,0.0,0.0,0.0,0.0,0.0,0.0,0.0,0.0,0.0,0.0,0.0,0.0,0.0,0.0,0.0,0.0,0.0,0.0,0.0,0.0,0.0,0.0,0.0,0.0,0.0,0.0,0.0,0.0,0.0,0.0,0.0,0.0,0.0,0.0,0.0,0.0,0.0,0.0,0.0,0.0,0.0,0.2105,8.7521,0.9044,13.3057,-1.0986,-12.7563,83.3972,-1.3129,-22.2693,0.6543,0.1201,-0.1517,0.7311,2.0385,9.3263,-0.6986,76.7212,55.481,-5.0049,94.5319,1.3129,-29.6906,0.708,0.1957,-0.1657,0.6581,-0.2058,9.3502,-2.9381,18.8599,18.7378,-11.7798,103.6395,-0.2692,-27.5922,0.7637,0.186,-0.1492,0.5999,-0.8805,0.7321,9.9005,3.418,3.2349,1.2207,3.8452,5.4657,-86.0339,-0.008,0.0577,-0.6799,0.731,0.067,9.8909,-1.8136,-123.0469,41.0156,29.6631,85.2594,-5.614,-23.4943,0.6696,0.1024,-0.1821,0.7127,1.4595,7.6754,-7.9386,-96.4966,-5.188,16.3574,140.3558,-8.1464,-25.9277,0.9199,0.187,-0.141,0.3146,2.7945,-3.7659,8.4984,-149.4751,17.2119,33.4473,48.0542,4.8779,-96.3831,0.2422,0.3291,-0.6686,0.6212,0,0,0,0,0,0,0,0,0,0,0,0,0,0,0,0,0,0,0,0,15118,45837,0,0,0,0,18199,64782,41728,0,0,0,60681,61954,13058,0
1777289315.2054162,345261,1777289305.7633681,1777289313.3932796,1777289306.6134102,0,0,-7629.911422729492,-850.0421047210693,1,1,0.0,0.0,0.0,0.0,0.0,0.0,0.0,0.0,0.0,0.0,0.0,0.0,0.0,0.0,0.0,0.0,0.0,0.0,0.0,0.0,0.0,0.0,0.0,0.0,0.0,0.0,0.0,0.0,0.0,0.0,0.0,0.0,0.0,0.0,0.0,0.0,0.0,0.0,0.0,0.0,0.0,0.0,0.0,0.0,0.0,0.0,0.0,0.0,0.0,0.0,0.0,0.0,0.0,0.0,0.0,0.0,0.0,0.0,0.0,0.0,0.0,0.0,0.0,0.0,0.0,0.0,0.0,0.0,0.0,0.0,0.0,0.0,0.0,0.0,0.0,0.2105,8.7521,0.9044,13.3057,-1.0986,-12.7563,83.3972,-1.3129,-22.2693,0.6543,0.1201,-0.1517,0.7311,2.0385,9.3263,-0.6986,76.7212,55.481,-5.0049,94.5319,1.3129,-29.6906,0.708,0.1957,-0.1657,0.6581,-0.2058,9.3502,-2.9381,18.8599,18.7378,-11.7798,103.6395,-0.2692,-27.5922,0.7637,0.186,-0.1492,0.5999,-0.8805,0.7321,9.9005,3.418,3.2349,1.2207,3.8452,5.4657,-86.0339,-0.008,0.0577,-0.6799,0.731,0.067,9.8909,-1.8136,-123.0469,41.0156,29.6631,85.2594,-5.614,-23.4943,0.6696,0.1024,-0.1821,0.7127,1.4595,7.6754,-7.9386,-96.4966,-5.188,16.3574,140.3558,-8.1464,-25.9277,0.9199,0.187,-0.141,0.3146,2.7945,-3.7659,8.4984,-149.4751,17.2119,33.4473,48.0542,4.8779,-96.3831,0.2422,0.3291,-0.6686,0.6212,0,0,0,0,0,0,0,0,0,0,0,0,0,0,0,0,0,0,0,0,15118,45837,0,0,0,0,18199,64782,41728,0,0,0,60681,61954,13058,0
1777289315.2054162,345262,1777289305.7728982,1777289313.3932796,1777289306.6134102,0,0,-7620.3813552856445,-840.5120372772217,1,1,0.0,0.0,0.0,0.0,0.0,0.0,0.0,0.0,0.0,0.0,0.0,0.0,0.0,0.0,0.0,0.0,0.0,0.0,0.0,0.0,0.0,0.0,0.0,0.0,0.0,0.0,0.0,0.0,0.0,0.0,0.0,0.0,0.0,0.0,0.0,0.0,0.0,0.0,0.0,0.0,0.0,0.0,0.0,0.0,0.0,0.0,0.0,0.0,0.0,0.0,0.0,0.0,0.0,0.0,0.0,0.0,0.0,0.0,0.0,0.0,0.0,0.0,0.0,0.0,0.0,0.0,0.0,0.0,0.0,0.0,0.0,0.0,0.0,0.0,0.0,0.2105,8.7521,0.9044,13.3057,-1.0986,-12.7563,83.3972,-1.3129,-22.2693,0.6543,0.1201,-0.1517,0.7311,2.0385,9.3263,-0.6986,76.7212,55.481,-5.0049,94.5319,1.3129,-29.6906,0.708,0.1957,-0.1657,0.6581,-0.2058,9.3502,-2.9381,18.8599,18.7378,-11.7798,103.6395,-0.2692,-27.5922,0.7637,0.186,-0.1492,0.5999,-0.8805,0.7321,9.9005,3.418,3.2349,1.2207,3.8452,5.4657,-86.0339,-0.008,0.0577,-0.6799,0.731,0.067,9.8909,-1.8136,-123.0469,41.0156,29.6631,85.2594,-5.614,-23.4943,0.6696,0.1024,-0.1821,0.7127,1.4595,7.6754,-7.9386,-96.4966,-5.188,16.3574,140.3558,-8.1464,-25.9277,0.9199,0.187,-0.141,0.3146,2.7945,-3.7659,8.4984,-149.4751,17.2119,33.4473,48.0542,4.8779,-96.3831,0.2422,0.3291,-0.6686,0.6212,0,0,0,0,0,0,0,0,0,0,0,0,0,0,0,0,0,0,0,0,15118,45837,0,0,0,0,18199,64782,41728,0,0,0,60681,61954,13058,0
1777289315.2054162,345263,1777289305.7837205,1777289313.3932796,1777289306.6134102,0,0,-7609.559059143066,-829.6897411346436,1,1,0.0,0.0,0.0,0.0,0.0,0.0,0.0,0.0,0.0,0.0,0.0,0.0,0.0,0.0,0.0,0.0,0.0,0.0,0.0,0.0,0.0,0.0,0.0,0.0,0.0,0.0,0.0,0.0,0.0,0.0,0.0,0.0,0.0,0.0,0.0,0.0,0.0,0.0,0.0,0.0,0.0,0.0,0.0,0.0,0.0,0.0,0.0,0.0,0.0,0.0,0.0,0.0,0.0,0.0,0.0,0.0,0.0,0.0,0.0,0.0,0.0,0.0,0.0,0.0,0.0,0.0,0.0,0.0,0.0,0.0,0.0,0.0,0.0,0.0,0.0,0.2105,8.7521,0.9044,13.3057,-1.0986,-12.7563,83.3972,-1.3129,-22.2693,0.6543,0.1201,-0.1517,0.7311,2.0385,9.3263,-0.6986,76.7212,55.481,-5.0049,94.5319,1.3129,-29.6906,0.708,0.1957,-0.1657,0.6581,-0.2058,9.3502,-2.9381,18.8599,18.7378,-11.7798,103.6395,-0.2692,-27.5922,0.7637,0.186,-0.1492,0.5999,-0.8805,0.7321,9.9005,3.418,3.2349,1.2207,3.8452,5.4657,-86.0339,-0.008,0.0577,-0.6799,0.731,0.067,9.8909,-1.8136,-123.0469,41.0156,29.6631,85.2594,-5.614,-23.4943,0.6696,0.1024,-0.1821,0.7127,1.4595,7.6754,-7.9386,-96.4966,-5.188,16.3574,140.3558,-8.1464,-25.9277,0.9199,0.187,-0.141,0.3146,2.7945,-3.7659,8.4984,-149.4751,17.2119,33.4473,48.0542,4.8779,-96.3831,0.2422,0.3291,-0.6686,0.6212,0,0,0,0,0,0,0,0,0,0,0,0,0,0,0,0,0,0,0,0,15118,45837,0,0,0,0,18199,64782,41728,0,0,0,60681,61954,13058,0
1777289315.2054162,345264,1777289305.7926028,1777289313.3932796,1777289306.6134102,0,0,-7600.676774978638,-820.8074569702148,1,1,0.0,0.0,0.0,0.0,0.0,0.0,0.0,0.0,0.0,0.0,0.0,0.0,0.0,0.0,0.0,0.0,0.0,0.0,0.0,0.0,0.0,0.0,0.0,0.0,0.0,0.0,0.0,0.0,0.0,0.0,0.0,0.0,0.0,0.0,0.0,0.0,0.0,0.0,0.0,0.0,0.0,0.0,0.0,0.0,0.0,0.0,0.0,0.0,0.0,0.0,0.0,0.0,0.0,0.0,0.0,0.0,0.0,0.0,0.0,0.0,0.0,0.0,0.0,0.0,0.0,0.0,0.0,0.0,0.0,0.0,0.0,0.0,0.0,0.0,0.0,0.2105,8.7521,0.9044,13.3057,-1.0986,-12.7563,83.3972,-1.3129,-22.2693,0.6543,0.1201,-0.1517,0.7311,2.0385,9.3263,-0.6986,76.7212,55.481,-5.0049,94.5319,1.3129,-29.6906,0.708,0.1957,-0.1657,0.6581,-0.2058,9.3502,-2.9381,18.8599,18.7378,-11.7798,103.6395,-0.2692,-27.5922,0.7637,0.186,-0.1492,0.5999,-0.8805,0.7321,9.9005,3.418,3.2349,1.2207,3.8452,5.4657,-86.0339,-0.008,0.0577,-0.6799,0.731,0.067,9.8909,-1.8136,-123.0469,41.0156,29.6631,85.2594,-5.614,-23.4943,0.6696,0.1024,-0.1821,0.7127,1.4595,7.6754,-7.9386,-96.4966,-5.188,16.3574,140.3558,-8.1464,-25.9277,0.9199,0.187,-0.141,0.3146,2.7945,-3.7659,8.4984,-149.4751,17.2119,33.4473,48.0542,4.8779,-96.3831,0.2422,0.3291,-0.6686,0.6212,0,0,0,0,0,0,0,0,0,0,0,0,0,0,0,0,0,0,0,0,15118,45837,0,0,0,0,18199,64782,41728,0,0,0,60681,61954,13058,0
1777289315.2054162,345265,1777289305.8033912,1777289313.3932796,1777289306.6134102,0,0,-7589.888334274292,-810.0190162658691,1,1,0.0,0.0,0.0,0.0,0.0,0.0,0.0,0.0,0.0,0.0,0.0,0.0,0.0,0.0,0.0,0.0,0.0,0.0,0.0,0.0,0.0,0.0,0.0,0.0,0.0,0.0,0.0,0.0,0.0,0.0,0.0,0.0,0.0,0.0,0.0,0.0,0.0,0.0,0.0,0.0,0.0,0.0,0.0,0.0,0.0,0.0,0.0,0.0,0.0,0.0,0.0,0.0,0.0,0.0,0.0,0.0,0.0,0.0,0.0,0.0,0.0,0.0,0.0,0.0,0.0,0.0,0.0,0.0,0.0,0.0,0.0,0.0,0.0,0.0,0.0,0.2105,8.7521,0.9044,13.3057,-1.0986,-12.7563,83.3972,-1.3129,-22.2693,0.6543,0.1201,-0.1517,0.7311,2.0385,9.3263,-0.6986,76.7212,55.481,-5.0049,94.5319,1.3129,-29.6906,0.708,0.1957,-0.1657,0.6581,-0.2058,9.3502,-2.9381,18.8599,18.7378,-11.7798,103.6395,-0.2692,-27.5922,0.7637,0.186,-0.1492,0.5999,-0.8805,0.7321,9.9005,3.418,3.2349,1.2207,3.8452,5.4657,-86.0339,-0.008,0.0577,-0.6799,0.731,0.067,9.8909,-1.8136,-123.0469,41.0156,29.6631,85.2594,-5.614,-23.4943,0.6696,0.1024,-0.1821,0.7127,1.4595,7.6754,-7.9386,-96.4966,-5.188,16.3574,140.3558,-8.1464,-25.9277,0.9199,0.187,-0.141,0.3146,2.7945,-3.7659,8.4984,-149.4751,17.2119,33.4473,48.0542,4.8779,-96.3831,0.2422,0.3291,-0.6686,0.6212,0,0,0,0,0,0,0,0,0,0,0,0,0,0,0,0,0,0,0,0,15118,45837,0,0,0,0,18199,64782,41728,0,0,0,60681,61954,13058,0
1777289315.2054162,345266,1777289305.8123908,1777289313.3932796,1777289306.6134102,0,0,-7580.888748168945,-801.0194301605225,1,1,0.0,0.0,0.0,0.0,0.0,0.0,0.0,0.0,0.0,0.0,0.0,0.0,0.0,0.0,0.0,0.0,0.0,0.0,0.0,0.0,0.0,0.0,0.0,0.0,0.0,0.0,0.0,0.0,0.0,0.0,0.0,0.0,0.0,0.0,0.0,0.0,0.0,0.0,0.0,0.0,0.0,0.0,0.0,0.0,0.0,0.0,0.0,0.0,0.0,0.0,0.0,0.0,0.0,0.0,0.0,0.0,0.0,0.0,0.0,0.0,0.0,0.0,0.0,0.0,0.0,0.0,0.0,0.0,0.0,0.0,0.0,0.0,0.0,0.0,0.0,0.2105,8.7521,0.9044,13.3057,-1.0986,-12.7563,83.3972,-1.3129,-22.2693,0.6543,0.1201,-0.1517,0.7311,2.0385,9.3263,-0.6986,76.7212,55.481,-5.0049,94.5319,1.3129,-29.6906,0.708,0.1957,-0.1657,0.6581,-0.2058,9.3502,-2.9381,18.8599,18.7378,-11.7798,103.6395,-0.2692,-27.5922,0.7637,0.186,-0.1492,0.5999,-0.8805,0.7321,9.9005,3.418,3.2349,1.2207,3.8452,5.4657,-86.0339,-0.008,0.0577,-0.6799,0.731,0.067,9.8909,-1.8136,-123.0469,41.0156,29.6631,85.2594,-5.614,-23.4943,0.6696,0.1024,-0.1821,0.7127,1.4595,7.6754,-7.9386,-96.4966,-5.188,16.3574,140.3558,-8.1464,-25.9277,0.9199,0.187,-0.141,0.3146,2.7945,-3.7659,8.4984,-149.4751,17.2119,33.4473,48.0542,4.8779,-96.3831,0.2422,0.3291,-0.6686,0.6212,0,0,0,0,0,0,0,0,0,0,0,0,0,0,0,0,0,0,0,0,15118,45837,0,0,0,0,18199,64782,41728,0,0,0,60681,61954,13058,0
1777289315.2054162,345267,1777289305.822909,1777289313.3932796,1777289306.6134102,0,0,-7570.370435714722,-790.5011177062988,1,1,0.0,0.0,0.0,0.0,0.0,0.0,0.0,0.0,0.0,0.0,0.0,0.0,0.0,0.0,0.0,0.0,0.0,0.0,0.0,0.0,0.0,0.0,0.0,0.0,0.0,0.0,0.0,0.0,0.0,0.0,0.0,0.0,0.0,0.0,0.0,0.0,0.0,0.0,0.0,0.0,0.0,0.0,0.0,0.0,0.0,0.0,0.0,0.0,0.0,0.0,0.0,0.0,0.0,0.0,0.0,0.0,0.0,0.0,0.0,0.0,0.0,0.0,0.0,0.0,0.0,0.0,0.0,0.0,0.0,0.0,0.0,0.0,0.0,0.0,0.0,0.2105,8.7521,0.9044,13.3057,-1.0986,-12.7563,83.3972,-1.3129,-22.2693,0.6543,0.1201,-0.1517,0.7311,2.0385,9.3263,-0.6986,76.7212,55.481,-5.0049,94.5319,1.3129,-29.6906,0.708,0.1957,-0.1657,0.6581,-0.2058,9.3502,-2.9381,18.8599,18.7378,-11.7798,103.6395,-0.2692,-27.5922,0.7637,0.186,-0.1492,0.5999,-0.8805,0.7321,9.9005,3.418,3.2349,1.2207,3.8452,5.4657,-86.0339,-0.008,0.0577,-0.6799,0.731,0.067,9.8909,-1.8136,-123.0469,41.0156,29.6631,85.2594,-5.614,-23.4943,0.6696,0.1024,-0.1821,0.7127,1.4595,7.6754,-7.9386,-96.4966,-5.188,16.3574,140.3558,-8.1464,-25.9277,0.9199,0.187,-0.141,0.3146,2.7945,-3.7659,8.4984,-149.4751,17.2119,33.4473,48.0542,4.8779,-96.3831,0.2422,0.3291,-0.6686,0.6212,0,0,0,0,0,0,0,0,0,0,0,0,0,0,0,0,0,0,0,0,15118,45837,0,0,0,0,18199,64782,41728,0,0,0,60681,61954,13058,0
1777289315.2054162,345268,1777289305.8334255,1777289313.3932796,1777289306.6134102,0,0,-7559.854030609131,-779.984712600708,1,1,0.0,0.0,0.0,0.0,0.0,0.0,0.0,0.0,0.0,0.0,0.0,0.0,0.0,0.0,0.0,0.0,0.0,0.0,0.0,0.0,0.0,0.0,0.0,0.0,0.0,0.0,0.0,0.0,0.0,0.0,0.0,0.0,0.0,0.0,0.0,0.0,0.0,0.0,0.0,0.0,0.0,0.0,0.0,0.0,0.0,0.0,0.0,0.0,0.0,0.0,0.0,0.0,0.0,0.0,0.0,0.0,0.0,0.0,0.0,0.0,0.0,0.0,0.0,0.0,0.0,0.0,0.0,0.0,0.0,0.0,0.0,0.0,0.0,0.0,0.0,0.2105,8.7521,0.9044,13.3057,-1.0986,-12.7563,83.3972,-1.3129,-22.2693,0.6543,0.1201,-0.1517,0.7311,2.0385,9.3263,-0.6986,76.7212,55.481,-5.0049,94.5319,1.3129,-29.6906,0.708,0.1957,-0.1657,0.6581,-0.2058,9.3502,-2.9381,18.8599,18.7378,-11.7798,103.6395,-0.2692,-27.5922,0.7637,0.186,-0.1492,0.5999,-0.8805,0.7321,9.9005,3.418,3.2349,1.2207,3.8452,5.4657,-86.0339,-0.008,0.0577,-0.6799,0.731,0.067,9.8909,-1.8136,-123.0469,41.0156,29.6631,85.2594,-5.614,-23.4943,0.6696,0.1024,-0.1821,0.7127,1.4595,7.6754,-7.9386,-96.4966,-5.188,16.3574,140.3558,-8.1464,-25.9277,0.9199,0.187,-0.141,0.3146,2.7945,-3.7659,8.4984,-149.4751,17.2119,33.4473,48.0542,4.8779,-96.3831,0.2422,0.3291,-0.6686,0.6212,0,0,0,0,0,0,0,0,0,0,0,0,0,0,0,0,0,0,0,0,15118,45837,0,0,0,0,18199,64782,41728,0,0,0,60681,61954,13058,0
1777289315.2054162,345269,1777289305.8427284,1777289313.3932796,1777289306.6134102,0,0,-7550.551176071167,-770.6818580627441,1,1,0.0,0.0,0.0,0.0,0.0,0.0,0.0,0.0,0.0,0.0,0.0,0.0,0.0,0.0,0.0,0.0,0.0,0.0,0.0,0.0,0.0,0.0,0.0,0.0,0.0,0.0,0.0,0.0,0.0,0.0,0.0,0.0,0.0,0.0,0.0,0.0,0.0,0.0,0.0,0.0,0.0,0.0,0.0,0.0,0.0,0.0,0.0,0.0,0.0,0.0,0.0,0.0,0.0,0.0,0.0,0.0,0.0,0.0,0.0,0.0,0.0,0.0,0.0,0.0,0.0,0.0,0.0,0.0,0.0,0.0,0.0,0.0,0.0,0.0,0.0,0.2105,8.7521,0.9044,13.3057,-1.0986,-12.7563,83.3972,-1.3129,-22.2693,0.6543,0.1201,-0.1517,0.7311,2.0385,9.3263,-0.6986,76.7212,55.481,-5.0049,94.5319,1.3129,-29.6906,0.708,0.1957,-0.1657,0.6581,-0.2058,9.3502,-2.9381,18.8599,18.7378,-11.7798,103.6395,-0.2692,-27.5922,0.7637,0.186,-0.1492,0.5999,-0.8805,0.7321,9.9005,3.418,3.2349,1.2207,3.8452,5.4657,-86.0339,-0.008,0.0577,-0.6799,0.731,0.067,9.8909,-1.8136,-123.0469,41.0156,29.6631,85.2594,-5.614,-23.4943,0.6696,0.1024,-0.1821,0.7127,1.4595,7.6754,-7.9386,-96.4966,-5.188,16.3574,140.3558,-8.1464,-25.9277,0.9199,0.187,-0.141,0.3146,2.7945,-3.7659,8.4984,-149.4751,17.2119,33.4473,48.0542,4.8779,-96.3831,0.2422,0.3291,-0.6686,0.6212,0,0,0,0,0,0,0,0,0,0,0,0,0,0,0,0,0,0,0,0,15118,45837,0,0,0,0,18199,64782,41728,0,0,0,60681,61954,13058,0
1777289315.2064202,345270,1777289305.8547597,1777289313.3932796,1777289306.6134102,0,0,-7538.519859313965,-758.650541305542,1,1,0.0,0.0,0.0,0.0,0.0,0.0,0.0,0.0,0.0,0.0,0.0,0.0,0.0,0.0,0.0,0.0,0.0,0.0,0.0,0.0,0.0,0.0,0.0,0.0,0.0,0.0,0.0,0.0,0.0,0.0,0.0,0.0,0.0,0.0,0.0,0.0,0.0,0.0,0.0,0.0,0.0,0.0,0.0,0.0,0.0,0.0,0.0,0.0,0.0,0.0,0.0,0.0,0.0,0.0,0.0,0.0,0.0,0.0,0.0,0.0,0.0,0.0,0.0,0.0,0.0,0.0,0.0,0.0,0.0,0.0,0.0,0.0,0.0,0.0,0.0,0.2105,8.7521,0.9044,13.3057,-1.0986,-12.7563,83.3972,-1.3129,-22.2693,0.6543,0.1201,-0.1517,0.7311,2.0385,9.3263,-0.6986,76.7212,55.481,-5.0049,94.5319,1.3129,-29.6906,0.708,0.1957,-0.1657,0.6581,-0.2058,9.3502,-2.9381,18.8599,18.7378,-11.7798,103.6395,-0.2692,-27.5922,0.7637,0.186,-0.1492,0.5999,-0.8805,0.7321,9.9005,3.418,3.2349,1.2207,3.8452,5.4657,-86.0339,-0.008,0.0577,-0.6799,0.731,0.067,9.8909,-1.8136,-123.0469,41.0156,29.6631,85.2594,-5.614,-23.4943,0.6696,0.1024,-0.1821,0.7127,1.4595,7.6754,-7.9386,-96.4966,-5.188,16.3574,140.3558,-8.1464,-25.9277,0.9199,0.187,-0.141,0.3146,2.7945,-3.7659,8.4984,-149.4751,17.2119,33.4473,48.0542,4.8779,-96.3831,0.2422,0.3291,-0.6686,0.6212,0,0,0,0,0,0,0,0,0,0,0,0,0,0,0,0,0,0,0,0,15118,45837,0,0,0,0,18199,64782,41728,0,0,0,60681,61954,13058,0
1777289315.2064202,345271,1777289305.862943,1777289313.3932796,1777289306.6134102,0,0,-7530.336618423462,-750.4673004150391,1,1,0.0,0.0,0.0,0.0,0.0,0.0,0.0,0.0,0.0,0.0,0.0,0.0,0.0,0.0,0.0,0.0,0.0,0.0,0.0,0.0,0.0,0.0,0.0,0.0,0.0,0.0,0.0,0.0,0.0,0.0,0.0,0.0,0.0,0.0,0.0,0.0,0.0,0.0,0.0,0.0,0.0,0.0,0.0,0.0,0.0,0.0,0.0,0.0,0.0,0.0,0.0,0.0,0.0,0.0,0.0,0.0,0.0,0.0,0.0,0.0,0.0,0.0,0.0,0.0,0.0,0.0,0.0,0.0,0.0,0.0,0.0,0.0,0.0,0.0,0.0,0.2105,8.7521,0.9044,13.3057,-1.0986,-12.7563,83.3972,-1.3129,-22.2693,0.6543,0.1201,-0.1517,0.7311,2.0385,9.3263,-0.6986,76.7212,55.481,-5.0049,94.5319,1.3129,-29.6906,0.708,0.1957,-0.1657,0.6581,-0.2058,9.3502,-2.9381,18.8599,18.7378,-11.7798,103.6395,-0.2692,-27.5922,0.7637,0.186,-0.1492,0.5999,-0.8805,0.7321,9.9005,3.418,3.2349,1.2207,3.8452,5.4657,-86.0339,-0.008,0.0577,-0.6799,0.731,0.067,9.8909,-1.8136,-123.0469,41.0156,29.6631,85.2594,-5.614,-23.4943,0.6696,0.1024,-0.1821,0.7127,1.4595,7.6754,-7.9386,-96.4966,-5.188,16.3574,140.3558,-8.1464,-25.9277,0.9199,0.187,-0.141,0.3146,2.7945,-3.7659,8.4984,-149.4751,17.2119,33.4473,48.0542,4.8779,-96.3831,0.2422,0.3291,-0.6686,0.6212,0,0,0,0,0,0,0,0,0,0,0,0,0,0,0,0,0,0,0,0,15118,45837,0,0,0,0,18199,64782,41728,0,0,0,60681,61954,13058,0
1777289315.2064202,345272,1777289305.8735077,1777289313.3932796,1777289306.6134102,0,0,-7519.7718143463135,-739.9024963378906,1,1,0.0,0.0,0.0,0.0,0.0,0.0,0.0,0.0,0.0,0.0,0.0,0.0,0.0,0.0,0.0,0.0,0.0,0.0,0.0,0.0,0.0,0.0,0.0,0.0,0.0,0.0,0.0,0.0,0.0,0.0,0.0,0.0,0.0,0.0,0.0,0.0,0.0,0.0,0.0,0.0,0.0,0.0,0.0,0.0,0.0,0.0,0.0,0.0,0.0,0.0,0.0,0.0,0.0,0.0,0.0,0.0,0.0,0.0,0.0,0.0,0.0,0.0,0.0,0.0,0.0,0.0,0.0,0.0,0.0,0.0,0.0,0.0,0.0,0.0,0.0,0.2105,8.7521,0.9044,13.3057,-1.0986,-12.7563,83.3972,-1.3129,-22.2693,0.6543,0.1201,-0.1517,0.7311,2.0385,9.3263,-0.6986,76.7212,55.481,-5.0049,94.5319,1.3129,-29.6906,0.708,0.1957,-0.1657,0.6581,-0.2058,9.3502,-2.9381,18.8599,18.7378,-11.7798,103.6395,-0.2692,-27.5922,0.7637,0.186,-0.1492,0.5999,-0.8805,0.7321,9.9005,3.418,3.2349,1.2207,3.8452,5.4657,-86.0339,-0.008,0.0577,-0.6799,0.731,0.067,9.8909,-1.8136,-123.0469,41.0156,29.6631,85.2594,-5.614,-23.4943,0.6696,0.1024,-0.1821,0.7127,1.4595,7.6754,-7.9386,-96.4966,-5.188,16.3574,140.3558,-8.1464,-25.9277,0.9199,0.187,-0.141,0.3146,2.7945,-3.7659,8.4984,-149.4751,17.2119,33.4473,48.0542,4.8779,-96.3831,0.2422,0.3291,-0.6686,0.6212,0,0,0,0,0,0,0,0,0,0,0,0,0,0,0,0,0,0,0,0,15118,45837,0,0,0,0,18199,64782,41728,0,0,0,60681,61954,13058,0
1777289315.2064202,345273,1777289305.8836262,1777289313.3932796,1777289306.6134102,0,0,-7509.653329849243,-729.7840118408203,1,1,0.0,0.0,0.0,0.0,0.0,0.0,0.0,0.0,0.0,0.0,0.0,0.0,0.0,0.0,0.0,0.0,0.0,0.0,0.0,0.0,0.0,0.0,0.0,0.0,0.0,0.0,0.0,0.0,0.0,0.0,0.0,0.0,0.0,0.0,0.0,0.0,0.0,0.0,0.0,0.0,0.0,0.0,0.0,0.0,0.0,0.0,0.0,0.0,0.0,0.0,0.0,0.0,0.0,0.0,0.0,0.0,0.0,0.0,0.0,0.0,0.0,0.0,0.0,0.0,0.0,0.0,0.0,0.0,0.0,0.0,0.0,0.0,0.0,0.0,0.0,0.2105,8.7521,0.9044,13.3057,-1.0986,-12.7563,83.3972,-1.3129,-22.2693,0.6543,0.1201,-0.1517,0.7311,2.0385,9.3263,-0.6986,76.7212,55.481,-5.0049,94.5319,1.3129,-29.6906,0.708,0.1957,-0.1657,0.6581,-0.2058,9.3502,-2.9381,18.8599,18.7378,-11.7798,103.6395,-0.2692,-27.5922,0.7637,0.186,-0.1492,0.5999,-0.8805,0.7321,9.9005,3.418,3.2349,1.2207,3.8452,5.4657,-86.0339,-0.008,0.0577,-0.6799,0.731,0.067,9.8909,-1.8136,-123.0469,41.0156,29.6631,85.2594,-5.614,-23.4943,0.6696,0.1024,-0.1821,0.7127,1.4595,7.6754,-7.9386,-96.4966,-5.188,16.3574,140.3558,-8.1464,-25.9277,0.9199,0.187,-0.141,0.3146,2.7945,-3.7659,8.4984,-149.4751,17.2119,33.4473,48.0542,4.8779,-96.3831,0.2422,0.3291,-0.6686,0.6212,0,0,0,0,0,0,0,0,0,0,0,0,0,0,0,0,0,0,0,0,15118,45837,0,0,0,0,18199,64782,41728,0,0,0,60681,61954,13058,0
1777289315.2064202,345274,1777289305.892786,1777289313.3932796,1777289306.6134102,0,0,-7500.49352645874,-720.6242084503174,1,1,0.0,0.0,0.0,0.0,0.0,0.0,0.0,0.0,0.0,0.0,0.0,0.0,0.0,0.0,0.0,0.0,0.0,0.0,0.0,0.0,0.0,0.0,0.0,0.0,0.0,0.0,0.0,0.0,0.0,0.0,0.0,0.0,0.0,0.0,0.0,0.0,0.0,0.0,0.0,0.0,0.0,0.0,0.0,0.0,0.0,0.0,0.0,0.0,0.0,0.0,0.0,0.0,0.0,0.0,0.0,0.0,0.0,0.0,0.0,0.0,0.0,0.0,0.0,0.0,0.0,0.0,0.0,0.0,0.0,0.0,0.0,0.0,0.0,0.0,0.0,0.2105,8.7521,0.9044,13.3057,-1.0986,-12.7563,83.3972,-1.3129,-22.2693,0.6543,0.1201,-0.1517,0.7311,2.0385,9.3263,-0.6986,76.7212,55.481,-5.0049,94.5319,1.3129,-29.6906,0.708,0.1957,-0.1657,0.6581,-0.2058,9.3502,-2.9381,18.8599,18.7378,-11.7798,103.6395,-0.2692,-27.5922,0.7637,0.186,-0.1492,0.5999,-0.8805,0.7321,9.9005,3.418,3.2349,1.2207,3.8452,5.4657,-86.0339,-0.008,0.0577,-0.6799,0.731,0.067,9.8909,-1.8136,-123.0469,41.0156,29.6631,85.2594,-5.614,-23.4943,0.6696,0.1024,-0.1821,0.7127,1.4595,7.6754,-7.9386,-96.4966,-5.188,16.3574,140.3558,-8.1464,-25.9277,0.9199,0.187,-0.141,0.3146,2.7945,-3.7659,8.4984,-149.4751,17.2119,33.4473,48.0542,4.8779,-96.3831,0.2422,0.3291,-0.6686,0.6212,0,0,0,0,0,0,0,0,0,0,0,0,0,0,0,0,0,0,0,0,15118,45837,0,0,0,0,18199,64782,41728,0,0,0,60681,61954,13058,0
1777289315.2069383,345275,1777289305.9077609,1777289313.3932796,1777289306.6134102,0,0,-7485.51869392395,-705.6493759155273,1,1,0.0,0.0,0.0,0.0,0.0,0.0,0.0,0.0,0.0,0.0,0.0,0.0,0.0,0.0,0.0,0.0,0.0,0.0,0.0,0.0,0.0,0.0,0.0,0.0,0.0,0.0,0.0,0.0,0.0,0.0,0.0,0.0,0.0,0.0,0.0,0.0,0.0,0.0,0.0,0.0,0.0,0.0,0.0,0.0,0.0,0.0,0.0,0.0,0.0,0.0,0.0,0.0,0.0,0.0,0.0,0.0,0.0,0.0,0.0,0.0,0.0,0.0,0.0,0.0,0.0,0.0,0.0,0.0,0.0,0.0,0.0,0.0,0.0,0.0,0.0,0.2105,8.7521,0.9044,13.3057,-1.0986,-12.7563,83.3972,-1.3129,-22.2693,0.6543,0.1201,-0.1517,0.7311,2.0385,9.3263,-0.6986,76.7212,55.481,-5.0049,94.5319,1.3129,-29.6906,0.708,0.1957,-0.1657,0.6581,-0.2058,9.3502,-2.9381,18.8599,18.7378,-11.7798,103.6395,-0.2692,-27.5922,0.7637,0.186,-0.1492,0.5999,-0.8805,0.7321,9.9005,3.418,3.2349,1.2207,3.8452,5.4657,-86.0339,-0.008,0.0577,-0.6799,0.731,0.067,9.8909,-1.8136,-123.0469,41.0156,29.6631,85.2594,-5.614,-23.4943,0.6696,0.1024,-0.1821,0.7127,1.4595,7.6754,-7.9386,-96.4966,-5.188,16.3574,140.3558,-8.1464,-25.9277,0.9199,0.187,-0.141,0.3146,2.7945,-3.7659,8.4984,-149.4751,17.2119,33.4473,48.0542,4.8779,-96.3831,0.2422,0.3291,-0.6686,0.6212,0,0,0,0,0,0,0,0,0,0,0,0,0,0,0,0,0,0,0,0,15118,45837,0,0,0,0,18199,64782,41728,0,0,0,60681,61954,13058,0
1777289315.2069383,345276,1777289305.91291,1777289313.3932796,1777289306.6134102,0,0,-7480.369567871094,-700.5002498626709,1,1,0.0,0.0,0.0,0.0,0.0,0.0,0.0,0.0,0.0,0.0,0.0,0.0,0.0,0.0,0.0,0.0,0.0,0.0,0.0,0.0,0.0,0.0,0.0,0.0,0.0,0.0,0.0,0.0,0.0,0.0,0.0,0.0,0.0,0.0,0.0,0.0,0.0,0.0,0.0,0.0,0.0,0.0,0.0,0.0,0.0,0.0,0.0,0.0,0.0,0.0,0.0,0.0,0.0,0.0,0.0,0.0,0.0,0.0,0.0,0.0,0.0,0.0,0.0,0.0,0.0,0.0,0.0,0.0,0.0,0.0,0.0,0.0,0.0,0.0,0.0,0.2105,8.7521,0.9044,13.3057,-1.0986,-12.7563,83.3972,-1.3129,-22.2693,0.6543,0.1201,-0.1517,0.7311,2.0385,9.3263,-0.6986,76.7212,55.481,-5.0049,94.5319,1.3129,-29.6906,0.708,0.1957,-0.1657,0.6581,-0.2058,9.3502,-2.9381,18.8599,18.7378,-11.7798,103.6395,-0.2692,-27.5922,0.7637,0.186,-0.1492,0.5999,-0.8805,0.7321,9.9005,3.418,3.2349,1.2207,3.8452,5.4657,-86.0339,-0.008,0.0577,-0.6799,0.731,0.067,9.8909,-1.8136,-123.0469,41.0156,29.6631,85.2594,-5.614,-23.4943,0.6696,0.1024,-0.1821,0.7127,1.4595,7.6754,-7.9386,-96.4966,-5.188,16.3574,140.3558,-8.1464,-25.9277,0.9199,0.187,-0.141,0.3146,2.7945,-3.7659,8.4984,-149.4751,17.2119,33.4473,48.0542,4.8779,-96.3831,0.2422,0.3291,-0.6686,0.6212,0,0,0,0,0,0,0,0,0,0,0,0,0,0,0,0,0,0,0,0,15118,45837,0,0,0,0,18199,64782,41728,0,0,0,60681,61954,13058,0
1777289315.2069383,345277,1777289305.922921,1777289313.3932796,1777289306.6134102,0,0,-7470.358610153198,-690.4892921447754,1,1,0.0,0.0,0.0,0.0,0.0,0.0,0.0,0.0,0.0,0.0,0.0,0.0,0.0,0.0,0.0,0.0,0.0,0.0,0.0,0.0,0.0,0.0,0.0,0.0,0.0,0.0,0.0,0.0,0.0,0.0,0.0,0.0,0.0,0.0,0.0,0.0,0.0,0.0,0.0,0.0,0.0,0.0,0.0,0.0,0.0,0.0,0.0,0.0,0.0,0.0,0.0,0.0,0.0,0.0,0.0,0.0,0.0,0.0,0.0,0.0,0.0,0.0,0.0,0.0,0.0,0.0,0.0,0.0,0.0,0.0,0.0,0.0,0.0,0.0,0.0,0.2105,8.7521,0.9044,13.3057,-1.0986,-12.7563,83.3972,-1.3129,-22.2693,0.6543,0.1201,-0.1517,0.7311,2.0385,9.3263,-0.6986,76.7212,55.481,-5.0049,94.5319,1.3129,-29.6906,0.708,0.1957,-0.1657,0.6581,-0.2058,9.3502,-2.9381,18.8599,18.7378,-11.7798,103.6395,-0.2692,-27.5922,0.7637,0.186,-0.1492,0.5999,-0.8805,0.7321,9.9005,3.418,3.2349,1.2207,3.8452,5.4657,-86.0339,-0.008,0.0577,-0.6799,0.731,0.067,9.8909,-1.8136,-123.0469,41.0156,29.6631,85.2594,-5.614,-23.4943,0.6696,0.1024,-0.1821,0.7127,1.4595,7.6754,-7.9386,-96.4966,-5.188,16.3574,140.3558,-8.1464,-25.9277,0.9199,0.187,-0.141,0.3146,2.7945,-3.7659,8.4984,-149.4751,17.2119,33.4473,48.0542,4.8779,-96.3831,0.2422,0.3291,-0.6686,0.6212,0,0,0,0,0,0,0,0,0,0,0,0,0,0,0,0,0,0,0,0,15118,45837,0,0,0,0,18199,64782,41728,0,0,0,60681,61954,13058,0
1777289315.2069383,345278,1777289305.9405446,1777289313.3932796,1777289306.6134102,0,0,-7452.73494720459,-672.865629196167,1,1,0.0,0.0,0.0,0.0,0.0,0.0,0.0,0.0,0.0,0.0,0.0,0.0,0.0,0.0,0.0,0.0,0.0,0.0,0.0,0.0,0.0,0.0,0.0,0.0,0.0,0.0,0.0,0.0,0.0,0.0,0.0,0.0,0.0,0.0,0.0,0.0,0.0,0.0,0.0,0.0,0.0,0.0,0.0,0.0,0.0,0.0,0.0,0.0,0.0,0.0,0.0,0.0,0.0,0.0,0.0,0.0,0.0,0.0,0.0,0.0,0.0,0.0,0.0,0.0,0.0,0.0,0.0,0.0,0.0,0.0,0.0,0.0,0.0,0.0,0.0,0.2105,8.7521,0.9044,13.3057,-1.0986,-12.7563,83.3972,-1.3129,-22.2693,0.6543,0.1201,-0.1517,0.7311,2.0385,9.3263,-0.6986,76.7212,55.481,-5.0049,94.5319,1.3129,-29.6906,0.708,0.1957,-0.1657,0.6581,-0.2058,9.3502,-2.9381,18.8599,18.7378,-11.7798,103.6395,-0.2692,-27.5922,0.7637,0.186,-0.1492,0.5999,-0.8805,0.7321,9.9005,3.418,3.2349,1.2207,3.8452,5.4657,-86.0339,-0.008,0.0577,-0.6799,0.731,0.067,9.8909,-1.8136,-123.0469,41.0156,29.6631,85.2594,-5.614,-23.4943,0.6696,0.1024,-0.1821,0.7127,1.4595,7.6754,-7.9386,-96.4966,-5.188,16.3574,140.3558,-8.1464,-25.9277,0.9199,0.187,-0.141,0.3146,2.7945,-3.7659,8.4984,-149.4751,17.2119,33.4473,48.0542,4.8779,-96.3831,0.2422,0.3291,-0.6686,0.6212,0,0,0,0,0,0,0,0,0,0,0,0,0,0,0,0,0,0,0,0,15118,45837,0,0,0,0,18199,64782,41728,0,0,0,60681,61954,13058,0
1777289315.2069383,345279,1777289305.9508622,1777289313.3932796,1777289306.6134102,0,0,-7442.41738319397,-662.5480651855469,1,1,0.0,0.0,0.0,0.0,0.0,0.0,0.0,0.0,0.0,0.0,0.0,0.0,0.0,0.0,0.0,0.0,0.0,0.0,0.0,0.0,0.0,0.0,0.0,0.0,0.0,0.0,0.0,0.0,0.0,0.0,0.0,0.0,0.0,0.0,0.0,0.0,0.0,0.0,0.0,0.0,0.0,0.0,0.0,0.0,0.0,0.0,0.0,0.0,0.0,0.0,0.0,0.0,0.0,0.0,0.0,0.0,0.0,0.0,0.0,0.0,0.0,0.0,0.0,0.0,0.0,0.0,0.0,0.0,0.0,0.0,0.0,0.0,0.0,0.0,0.0,0.2105,8.7521,0.9044,13.3057,-1.0986,-12.7563,83.3972,-1.3129,-22.2693,0.6543,0.1201,-0.1517,0.7311,2.0385,9.3263,-0.6986,76.7212,55.481,-5.0049,94.5319,1.3129,-29.6906,0.708,0.1957,-0.1657,0.6581,-0.2058,9.3502,-2.9381,18.8599,18.7378,-11.7798,103.6395,-0.2692,-27.5922,0.7637,0.186,-0.1492,0.5999,-0.8805,0.7321,9.9005,3.418,3.2349,1.2207,3.8452,5.4657,-86.0339,-0.008,0.0577,-0.6799,0.731,0.067,9.8909,-1.8136,-123.0469,41.0156,29.6631,85.2594,-5.614,-23.4943,0.6696,0.1024,-0.1821,0.7127,1.4595,7.6754,-7.9386,-96.4966,-5.188,16.3574,140.3558,-8.1464,-25.9277,0.9199,0.187,-0.141,0.3146,2.7945,-3.7659,8.4984,-149.4751,17.2119,33.4473,48.0542,4.8779,-96.3831,0.2422,0.3291,-0.6686,0.6212,0,0,0,0,0,0,0,0,0,0,0,0,0,0,0,0,0,0,0,0,15118,45837,0,0,0,0,18199,64782,41728,0,0,0,60681,61954,13058,0
1777289315.2069383,345280,1777289305.952863,1777289313.3932796,1777289306.6134102,0,0,-7440.416574478149,-660.5472564697266,1,1,0.0,0.0,0.0,0.0,0.0,0.0,0.0,0.0,0.0,0.0,0.0,0.0,0.0,0.0,0.0,0.0,0.0,0.0,0.0,0.0,0.0,0.0,0.0,0.0,0.0,0.0,0.0,0.0,0.0,0.0,0.0,0.0,0.0,0.0,0.0,0.0,0.0,0.0,0.0,0.0,0.0,0.0,0.0,0.0,0.0,0.0,0.0,0.0,0.0,0.0,0.0,0.0,0.0,0.0,0.0,0.0,0.0,0.0,0.0,0.0,0.0,0.0,0.0,0.0,0.0,0.0,0.0,0.0,0.0,0.0,0.0,0.0,0.0,0.0,0.0,0.2105,8.7521,0.9044,13.3057,-1.0986,-12.7563,83.3972,-1.3129,-22.2693,0.6543,0.1201,-0.1517,0.7311,2.0385,9.3263,-0.6986,76.7212,55.481,-5.0049,94.5319,1.3129,-29.6906,0.708,0.1957,-0.1657,0.6581,-0.2058,9.3502,-2.9381,18.8599,18.7378,-11.7798,103.6395,-0.2692,-27.5922,0.7637,0.186,-0.1492,0.5999,-0.8805,0.7321,9.9005,3.418,3.2349,1.2207,3.8452,5.4657,-86.0339,-0.008,0.0577,-0.6799,0.731,0.067,9.8909,-1.8136,-123.0469,41.0156,29.6631,85.2594,-5.614,-23.4943,0.6696,0.1024,-0.1821,0.7127,1.4595,7.6754,-7.9386,-96.4966,-5.188,16.3574,140.3558,-8.1464,-25.9277,0.9199,0.187,-0.141,0.3146,2.7945,-3.7659,8.4984,-149.4751,17.2119,33.4473,48.0542,4.8779,-96.3831,0.2422,0.3291,-0.6686,0.6212,0,0,0,0,0,0,0,0,0,0,0,0,0,0,0,0,0,0,0,0,15118,45837,0,0,0,0,18199,64782,41728,0,0,0,60681,61954,13058,0
1777289315.2069383,345281,1777289305.9629817,1777289313.3932796,1777289306.6134102,0,0,-7430.2978515625,-650.4285335540771,1,1,0.0,0.0,0.0,0.0,0.0,0.0,0.0,0.0,0.0,0.0,0.0,0.0,0.0,0.0,0.0,0.0,0.0,0.0,0.0,0.0,0.0,0.0,0.0,0.0,0.0,0.0,0.0,0.0,0.0,0.0,0.0,0.0,0.0,0.0,0.0,0.0,0.0,0.0,0.0,0.0,0.0,0.0,0.0,0.0,0.0,0.0,0.0,0.0,0.0,0.0,0.0,0.0,0.0,0.0,0.0,0.0,0.0,0.0,0.0,0.0,0.0,0.0,0.0,0.0,0.0,0.0,0.0,0.0,0.0,0.0,0.0,0.0,0.0,0.0,0.0,0.2105,8.7521,0.9044,13.3057,-1.0986,-12.7563,83.3972,-1.3129,-22.2693,0.6543,0.1201,-0.1517,0.7311,2.0385,9.3263,-0.6986,76.7212,55.481,-5.0049,94.5319,1.3129,-29.6906,0.708,0.1957,-0.1657,0.6581,-0.2058,9.3502,-2.9381,18.8599,18.7378,-11.7798,103.6395,-0.2692,-27.5922,0.7637,0.186,-0.1492,0.5999,-0.8805,0.7321,9.9005,3.418,3.2349,1.2207,3.8452,5.4657,-86.0339,-0.008,0.0577,-0.6799,0.731,0.067,9.8909,-1.8136,-123.0469,41.0156,29.6631,85.2594,-5.614,-23.4943,0.6696,0.1024,-0.1821,0.7127,1.4595,7.6754,-7.9386,-96.4966,-5.188,16.3574,140.3558,-8.1464,-25.9277,0.9199,0.187,-0.141,0.3146,2.7945,-3.7659,8.4984,-149.4751,17.2119,33.4473,48.0542,4.8779,-96.3831,0.2422,0.3291,-0.6686,0.6212,0,0,0,0,0,0,0,0,0,0,0,0,0,0,0,0,0,0,0,0,15118,45837,0,0,0,0,18199,64782,41728,0,0,0,60681,61954,13058,0
1777289315.2069383,345282,1777289305.9734833,1777289313.3932796,1777289306.6134102,0,0,-7419.7962284088135,-639.9269104003906,1,1,0.0,0.0,0.0,0.0,0.0,0.0,0.0,0.0,0.0,0.0,0.0,0.0,0.0,0.0,0.0,0.0,0.0,0.0,0.0,0.0,0.0,0.0,0.0,0.0,0.0,0.0,0.0,0.0,0.0,0.0,0.0,0.0,0.0,0.0,0.0,0.0,0.0,0.0,0.0,0.0,0.0,0.0,0.0,0.0,0.0,0.0,0.0,0.0,0.0,0.0,0.0,0.0,0.0,0.0,0.0,0.0,0.0,0.0,0.0,0.0,0.0,0.0,0.0,0.0,0.0,0.0,0.0,0.0,0.0,0.0,0.0,0.0,0.0,0.0,0.0,0.2105,8.7521,0.9044,13.3057,-1.0986,-12.7563,83.3972,-1.3129,-22.2693,0.6543,0.1201,-0.1517,0.7311,2.0385,9.3263,-0.6986,76.7212,55.481,-5.0049,94.5319,1.3129,-29.6906,0.708,0.1957,-0.1657,0.6581,-0.2058,9.3502,-2.9381,18.8599,18.7378,-11.7798,103.6395,-0.2692,-27.5922,0.7637,0.186,-0.1492,0.5999,-0.8805,0.7321,9.9005,3.418,3.2349,1.2207,3.8452,5.4657,-86.0339,-0.008,0.0577,-0.6799,0.731,0.067,9.8909,-1.8136,-123.0469,41.0156,29.6631,85.2594,-5.614,-23.4943,0.6696,0.1024,-0.1821,0.7127,1.4595,7.6754,-7.9386,-96.4966,-5.188,16.3574,140.3558,-8.1464,-25.9277,0.9199,0.187,-0.141,0.3146,2.7945,-3.7659,8.4984,-149.4751,17.2119,33.4473,48.0542,4.8779,-96.3831,0.2422,0.3291,-0.6686,0.6212,0,0,0,0,0,0,0,0,0,0,0,0,0,0,0,0,0,0,0,0,15118,45837,0,0,0,0,18199,64782,41728,0,0,0,60681,61954,13058,0
1777289315.2069383,345283,1777289305.9836273,1777289313.3932796,1777289306.6134102,0,0,-7409.652233123779,-629.7829151153564,1,1,0.0,0.0,0.0,0.0,0.0,0.0,0.0,0.0,0.0,0.0,0.0,0.0,0.0,0.0,0.0,0.0,0.0,0.0,0.0,0.0,0.0,0.0,0.0,0.0,0.0,0.0,0.0,0.0,0.0,0.0,0.0,0.0,0.0,0.0,0.0,0.0,0.0,0.0,0.0,0.0,0.0,0.0,0.0,0.0,0.0,0.0,0.0,0.0,0.0,0.0,0.0,0.0,0.0,0.0,0.0,0.0,0.0,0.0,0.0,0.0,0.0,0.0,0.0,0.0,0.0,0.0,0.0,0.0,0.0,0.0,0.0,0.0,0.0,0.0,0.0,0.2105,8.7521,0.9044,13.3057,-1.0986,-12.7563,83.3972,-1.3129,-22.2693,0.6543,0.1201,-0.1517,0.7311,2.0385,9.3263,-0.6986,76.7212,55.481,-5.0049,94.5319,1.3129,-29.6906,0.708,0.1957,-0.1657,0.6581,-0.2058,9.3502,-2.9381,18.8599,18.7378,-11.7798,103.6395,-0.2692,-27.5922,0.7637,0.186,-0.1492,0.5999,-0.8805,0.7321,9.9005,3.418,3.2349,1.2207,3.8452,5.4657,-86.0339,-0.008,0.0577,-0.6799,0.731,0.067,9.8909,-1.8136,-123.0469,41.0156,29.6631,85.2594,-5.614,-23.4943,0.6696,0.1024,-0.1821,0.7127,1.4595,7.6754,-7.9386,-96.4966,-5.188,16.3574,140.3558,-8.1464,-25.9277,0.9199,0.187,-0.141,0.3146,2.7945,-3.7659,8.4984,-149.4751,17.2119,33.4473,48.0542,4.8779,-96.3831,0.2422,0.3291,-0.6686,0.6212,0,0,0,0,0,0,0,0,0,0,0,0,0,0,0,0,0,0,0,0,15118,45837,0,0,0,0,18199,64782,41728,0,0,0,60681,61954,13058,0
1777289315.2069383,345284,1777289305.9995408,1777289313.3932796,1777289306.6134102,0,0,-7393.738746643066,-613.8694286346436,1,1,0.0,0.0,0.0,0.0,0.0,0.0,0.0,0.0,0.0,0.0,0.0,0.0,0.0,0.0,0.0,0.0,0.0,0.0,0.0,0.0,0.0,0.0,0.0,0.0,0.0,0.0,0.0,0.0,0.0,0.0,0.0,0.0,0.0,0.0,0.0,0.0,0.0,0.0,0.0,0.0,0.0,0.0,0.0,0.0,0.0,0.0,0.0,0.0,0.0,0.0,0.0,0.0,0.0,0.0,0.0,0.0,0.0,0.0,0.0,0.0,0.0,0.0,0.0,0.0,0.0,0.0,0.0,0.0,0.0,0.0,0.0,0.0,0.0,0.0,0.0,0.2105,8.7521,0.9044,13.3057,-1.0986,-12.7563,83.3972,-1.3129,-22.2693,0.6543,0.1201,-0.1517,0.7311,2.0385,9.3263,-0.6986,76.7212,55.481,-5.0049,94.5319,1.3129,-29.6906,0.708,0.1957,-0.1657,0.6581,-0.2058,9.3502,-2.9381,18.8599,18.7378,-11.7798,103.6395,-0.2692,-27.5922,0.7637,0.186,-0.1492,0.5999,-0.8805,0.7321,9.9005,3.418,3.2349,1.2207,3.8452,5.4657,-86.0339,-0.008,0.0577,-0.6799,0.731,0.067,9.8909,-1.8136,-123.0469,41.0156,29.6631,85.2594,-5.614,-23.4943,0.6696,0.1024,-0.1821,0.7127,1.4595,7.6754,-7.9386,-96.4966,-5.188,16.3574,140.3558,-8.1464,-25.9277,0.9199,0.187,-0.141,0.3146,2.7945,-3.7659,8.4984,-149.4751,17.2119,33.4473,48.0542,4.8779,-96.3831,0.2422,0.3291,-0.6686,0.6212,0,0,0,0,0,0,0,0,0,0,0,0,0,0,0,0,0,0,0,0,15118,45837,0,0,0,0,18199,64782,41728,0,0,0,60681,61954,13058,0
1777289315.2069383,345285,1777289306.0051632,1777289313.3932796,1777289306.6134102,0,0,-7388.116359710693,-608.2470417022705,1,1,0.0,0.0,0.0,0.0,0.0,0.0,0.0,0.0,0.0,0.0,0.0,0.0,0.0,0.0,0.0,0.0,0.0,0.0,0.0,0.0,0.0,0.0,0.0,0.0,0.0,0.0,0.0,0.0,0.0,0.0,0.0,0.0,0.0,0.0,0.0,0.0,0.0,0.0,0.0,0.0,0.0,0.0,0.0,0.0,0.0,0.0,0.0,0.0,0.0,0.0,0.0,0.0,0.0,0.0,0.0,0.0,0.0,0.0,0.0,0.0,0.0,0.0,0.0,0.0,0.0,0.0,0.0,0.0,0.0,0.0,0.0,0.0,0.0,0.0,0.0,0.2105,8.7521,0.9044,13.3057,-1.0986,-12.7563,83.3972,-1.3129,-22.2693,0.6543,0.1201,-0.1517,0.7311,2.0385,9.3263,-0.6986,76.7212,55.481,-5.0049,94.5319,1.3129,-29.6906,0.708,0.1957,-0.1657,0.6581,-0.2058,9.3502,-2.9381,18.8599,18.7378,-11.7798,103.6395,-0.2692,-27.5922,0.7637,0.186,-0.1492,0.5999,-0.8805,0.7321,9.9005,3.418,3.2349,1.2207,3.8452,5.4657,-86.0339,-0.008,0.0577,-0.6799,0.731,0.067,9.8909,-1.8136,-123.0469,41.0156,29.6631,85.2594,-5.614,-23.4943,0.6696,0.1024,-0.1821,0.7127,1.4595,7.6754,-7.9386,-96.4966,-5.188,16.3574,140.3558,-8.1464,-25.9277,0.9199,0.187,-0.141,0.3146,2.7945,-3.7659,8.4984,-149.4751,17.2119,33.4473,48.0542,4.8779,-96.3831,0.2422,0.3291,-0.6686,0.6212,0,0,0,0,0,0,0,0,0,0,0,0,0,0,0,0,0,0,0,0,15118,45837,0,0,0,0,18199,64782,41728,0,0,0,60681,61954,13058,0
1777289315.2079465,345286,1777289306.0129836,1777289313.3932796,1777289306.6134102,0,0,-7380.295991897583,-600.4266738891602,1,1,0.0,0.0,0.0,0.0,0.0,0.0,0.0,0.0,0.0,0.0,0.0,0.0,0.0,0.0,0.0,0.0,0.0,0.0,0.0,0.0,0.0,0.0,0.0,0.0,0.0,0.0,0.0,0.0,0.0,0.0,0.0,0.0,0.0,0.0,0.0,0.0,0.0,0.0,0.0,0.0,0.0,0.0,0.0,0.0,0.0,0.0,0.0,0.0,0.0,0.0,0.0,0.0,0.0,0.0,0.0,0.0,0.0,0.0,0.0,0.0,0.0,0.0,0.0,0.0,0.0,0.0,0.0,0.0,0.0,0.0,0.0,0.0,0.0,0.0,0.0,0.2105,8.7521,0.9044,13.3057,-1.0986,-12.7563,83.3972,-1.3129,-22.2693,0.6543,0.1201,-0.1517,0.7311,2.0385,9.3263,-0.6986,76.7212,55.481,-5.0049,94.5319,1.3129,-29.6906,0.708,0.1957,-0.1657,0.6581,-0.2058,9.3502,-2.9381,18.8599,18.7378,-11.7798,103.6395,-0.2692,-27.5922,0.7637,0.186,-0.1492,0.5999,-0.8805,0.7321,9.9005,3.418,3.2349,1.2207,3.8452,5.4657,-86.0339,-0.008,0.0577,-0.6799,0.731,0.067,9.8909,-1.8136,-123.0469,41.0156,29.6631,85.2594,-5.614,-23.4943,0.6696,0.1024,-0.1821,0.7127,1.4595,7.6754,-7.9386,-96.4966,-5.188,16.3574,140.3558,-8.1464,-25.9277,0.9199,0.187,-0.141,0.3146,2.7945,-3.7659,8.4984,-149.4751,17.2119,33.4473,48.0542,4.8779,-96.3831,0.2422,0.3291,-0.6686,0.6212,0,0,0,0,0,0,0,0,0,0,0,0,0,0,0,0,0,0,0,0,15118,45837,0,0,0,0,18199,64782,41728,0,0,0,60681,61954,13058,0
1777289315.2079465,345287,1777289306.0224526,1777289313.3932796,1777289306.6134102,0,0,-7370.826959609985,-590.9576416015625,1,1,0.0,0.0,0.0,0.0,0.0,0.0,0.0,0.0,0.0,0.0,0.0,0.0,0.0,0.0,0.0,0.0,0.0,0.0,0.0,0.0,0.0,0.0,0.0,0.0,0.0,0.0,0.0,0.0,0.0,0.0,0.0,0.0,0.0,0.0,0.0,0.0,0.0,0.0,0.0,0.0,0.0,0.0,0.0,0.0,0.0,0.0,0.0,0.0,0.0,0.0,0.0,0.0,0.0,0.0,0.0,0.0,0.0,0.0,0.0,0.0,0.0,0.0,0.0,0.0,0.0,0.0,0.0,0.0,0.0,0.0,0.0,0.0,0.0,0.0,0.0,0.2105,8.7521,0.9044,13.3057,-1.0986,-12.7563,83.3972,-1.3129,-22.2693,0.6543,0.1201,-0.1517,0.7311,2.0385,9.3263,-0.6986,76.7212,55.481,-5.0049,94.5319,1.3129,-29.6906,0.708,0.1957,-0.1657,0.6581,-0.2058,9.3502,-2.9381,18.8599,18.7378,-11.7798,103.6395,-0.2692,-27.5922,0.7637,0.186,-0.1492,0.5999,-0.8805,0.7321,9.9005,3.418,3.2349,1.2207,3.8452,5.4657,-86.0339,-0.008,0.0577,-0.6799,0.731,0.067,9.8909,-1.8136,-123.0469,41.0156,29.6631,85.2594,-5.614,-23.4943,0.6696,0.1024,-0.1821,0.7127,1.4595,7.6754,-7.9386,-96.4966,-5.188,16.3574,140.3558,-8.1464,-25.9277,0.9199,0.187,-0.141,0.3146,2.7945,-3.7659,8.4984,-149.4751,17.2119,33.4473,48.0542,4.8779,-96.3831,0.2422,0.3291,-0.6686,0.6212,0,0,0,0,0,0,0,0,0,0,0,0,0,0,0,0,0,0,0,0,15118,45837,0,0,0,0,18199,64782,41728,0,0,0,60681,61954,13058,0
1777289315.2079465,345288,1777289306.0407507,1777289313.3932796,1777289306.6134102,0,0,-7352.528810501099,-572.6594924926758,1,1,0.0,0.0,0.0,0.0,0.0,0.0,0.0,0.0,0.0,0.0,0.0,0.0,0.0,0.0,0.0,0.0,0.0,0.0,0.0,0.0,0.0,0.0,0.0,0.0,0.0,0.0,0.0,0.0,0.0,0.0,0.0,0.0,0.0,0.0,0.0,0.0,0.0,0.0,0.0,0.0,0.0,0.0,0.0,0.0,0.0,0.0,0.0,0.0,0.0,0.0,0.0,0.0,0.0,0.0,0.0,0.0,0.0,0.0,0.0,0.0,0.0,0.0,0.0,0.0,0.0,0.0,0.0,0.0,0.0,0.0,0.0,0.0,0.0,0.0,0.0,0.2105,8.7521,0.9044,13.3057,-1.0986,-12.7563,83.3972,-1.3129,-22.2693,0.6543,0.1201,-0.1517,0.7311,2.0385,9.3263,-0.6986,76.7212,55.481,-5.0049,94.5319,1.3129,-29.6906,0.708,0.1957,-0.1657,0.6581,-0.2058,9.3502,-2.9381,18.8599,18.7378,-11.7798,103.6395,-0.2692,-27.5922,0.7637,0.186,-0.1492,0.5999,-0.8805,0.7321,9.9005,3.418,3.2349,1.2207,3.8452,5.4657,-86.0339,-0.008,0.0577,-0.6799,0.731,0.067,9.8909,-1.8136,-123.0469,41.0156,29.6631,85.2594,-5.614,-23.4943,0.6696,0.1024,-0.1821,0.7127,1.4595,7.6754,-7.9386,-96.4966,-5.188,16.3574,140.3558,-8.1464,-25.9277,0.9199,0.187,-0.141,0.3146,2.7945,-3.7659,8.4984,-149.4751,17.2119,33.4473,48.0542,4.8779,-96.3831,0.2422,0.3291,-0.6686,0.6212,0,0,0,0,0,0,0,0,0,0,0,0,0,0,0,0,0,0,0,0,15118,45837,0,0,0,0,18199,64782,41728,0,0,0,60681,61954,13058,0
1777289315.2079465,345289,1777289306.042259,1777289313.3932796,1777289306.6134102,0,0,-7351.020574569702,-571.1512565612793,1,1,0.0,0.0,0.0,0.0,0.0,0.0,0.0,0.0,0.0,0.0,0.0,0.0,0.0,0.0,0.0,0.0,0.0,0.0,0.0,0.0,0.0,0.0,0.0,0.0,0.0,0.0,0.0,0.0,0.0,0.0,0.0,0.0,0.0,0.0,0.0,0.0,0.0,0.0,0.0,0.0,0.0,0.0,0.0,0.0,0.0,0.0,0.0,0.0,0.0,0.0,0.0,0.0,0.0,0.0,0.0,0.0,0.0,0.0,0.0,0.0,0.0,0.0,0.0,0.0,0.0,0.0,0.0,0.0,0.0,0.0,0.0,0.0,0.0,0.0,0.0,0.2105,8.7521,0.9044,13.3057,-1.0986,-12.7563,83.3972,-1.3129,-22.2693,0.6543,0.1201,-0.1517,0.7311,2.0385,9.3263,-0.6986,76.7212,55.481,-5.0049,94.5319,1.3129,-29.6906,0.708,0.1957,-0.1657,0.6581,-0.2058,9.3502,-2.9381,18.8599,18.7378,-11.7798,103.6395,-0.2692,-27.5922,0.7637,0.186,-0.1492,0.5999,-0.8805,0.7321,9.9005,3.418,3.2349,1.2207,3.8452,5.4657,-86.0339,-0.008,0.0577,-0.6799,0.731,0.067,9.8909,-1.8136,-123.0469,41.0156,29.6631,85.2594,-5.614,-23.4943,0.6696,0.1024,-0.1821,0.7127,1.4595,7.6754,-7.9386,-96.4966,-5.188,16.3574,140.3558,-8.1464,-25.9277,0.9199,0.187,-0.141,0.3146,2.7945,-3.7659,8.4984,-149.4751,17.2119,33.4473,48.0542,4.8779,-96.3831,0.2422,0.3291,-0.6686,0.6212,0,0,0,0,0,0,0,0,0,0,0,0,0,0,0,0,0,0,0,0,15118,45837,0,0,0,0,18199,64782,41728,0,0,0,60681,61954,13058,0
1777289315.2079465,345290,1777289306.05347,1777289313.3932796,1777289306.6134102,0,0,-7339.8096561431885,-559.9403381347656,1,1,0.0,0.0,0.0,0.0,0.0,0.0,0.0,0.0,0.0,0.0,0.0,0.0,0.0,0.0,0.0,0.0,0.0,0.0,0.0,0.0,0.0,0.0,0.0,0.0,0.0,0.0,0.0,0.0,0.0,0.0,0.0,0.0,0.0,0.0,0.0,0.0,0.0,0.0,0.0,0.0,0.0,0.0,0.0,0.0,0.0,0.0,0.0,0.0,0.0,0.0,0.0,0.0,0.0,0.0,0.0,0.0,0.0,0.0,0.0,0.0,0.0,0.0,0.0,0.0,0.0,0.0,0.0,0.0,0.0,0.0,0.0,0.0,0.0,0.0,0.0,0.2105,8.7521,0.9044,13.3057,-1.0986,-12.7563,83.3972,-1.3129,-22.2693,0.6543,0.1201,-0.1517,0.7311,2.0385,9.3263,-0.6986,76.7212,55.481,-5.0049,94.5319,1.3129,-29.6906,0.708,0.1957,-0.1657,0.6581,-0.2058,9.3502,-2.9381,18.8599,18.7378,-11.7798,103.6395,-0.2692,-27.5922,0.7637,0.186,-0.1492,0.5999,-0.8805,0.7321,9.9005,3.418,3.2349,1.2207,3.8452,5.4657,-86.0339,-0.008,0.0577,-0.6799,0.731,0.067,9.8909,-1.8136,-123.0469,41.0156,29.6631,85.2594,-5.614,-23.4943,0.6696,0.1024,-0.1821,0.7127,1.4595,7.6754,-7.9386,-96.4966,-5.188,16.3574,140.3558,-8.1464,-25.9277,0.9199,0.187,-0.141,0.3146,2.7945,-3.7659,8.4984,-149.4751,17.2119,33.4473,48.0542,4.8779,-96.3831,0.2422,0.3291,-0.6686,0.6212,0,0,0,0,0,0,0,0,0,0,0,0,0,0,0,0,0,0,0,0,15118,45837,0,0,0,0,18199,64782,41728,0,0,0,60681,61954,13058,0
1777289315.2079465,345291,1777289306.061922,1777289313.3932796,1777289306.6134102,0,0,-7331.357479095459,-551.4881610870361,1,1,0.0,0.0,0.0,0.0,0.0,0.0,0.0,0.0,0.0,0.0,0.0,0.0,0.0,0.0,0.0,0.0,0.0,0.0,0.0,0.0,0.0,0.0,0.0,0.0,0.0,0.0,0.0,0.0,0.0,0.0,0.0,0.0,0.0,0.0,0.0,0.0,0.0,0.0,0.0,0.0,0.0,0.0,0.0,0.0,0.0,0.0,0.0,0.0,0.0,0.0,0.0,0.0,0.0,0.0,0.0,0.0,0.0,0.0,0.0,0.0,0.0,0.0,0.0,0.0,0.0,0.0,0.0,0.0,0.0,0.0,0.0,0.0,0.0,0.0,0.0,0.2105,8.7521,0.9044,13.3057,-1.0986,-12.7563,83.3972,-1.3129,-22.2693,0.6543,0.1201,-0.1517,0.7311,2.0385,9.3263,-0.6986,76.7212,55.481,-5.0049,94.5319,1.3129,-29.6906,0.708,0.1957,-0.1657,0.6581,-0.2058,9.3502,-2.9381,18.8599,18.7378,-11.7798,103.6395,-0.2692,-27.5922,0.7637,0.186,-0.1492,0.5999,-0.8805,0.7321,9.9005,3.418,3.2349,1.2207,3.8452,5.4657,-86.0339,-0.008,0.0577,-0.6799,0.731,0.067,9.8909,-1.8136,-123.0469,41.0156,29.6631,85.2594,-5.614,-23.4943,0.6696,0.1024,-0.1821,0.7127,1.4595,7.6754,-7.9386,-96.4966,-5.188,16.3574,140.3558,-8.1464,-25.9277,0.9199,0.187,-0.141,0.3146,2.7945,-3.7659,8.4984,-149.4751,17.2119,33.4473,48.0542,4.8779,-96.3831,0.2422,0.3291,-0.6686,0.6212,0,0,0,0,0,0,0,0,0,0,0,0,0,0,0,0,0,0,0,0,15118,45837,0,0,0,0,18199,64782,41728,0,0,0,60681,61954,13058,0
1777289315.2079465,345292,1777289306.073382,1777289313.3932796,1777289306.6134102,0,0,-7319.897651672363,-540.0283336639404,1,1,0.0,0.0,0.0,0.0,0.0,0.0,0.0,0.0,0.0,0.0,0.0,0.0,0.0,0.0,0.0,0.0,0.0,0.0,0.0,0.0,0.0,0.0,0.0,0.0,0.0,0.0,0.0,0.0,0.0,0.0,0.0,0.0,0.0,0.0,0.0,0.0,0.0,0.0,0.0,0.0,0.0,0.0,0.0,0.0,0.0,0.0,0.0,0.0,0.0,0.0,0.0,0.0,0.0,0.0,0.0,0.0,0.0,0.0,0.0,0.0,0.0,0.0,0.0,0.0,0.0,0.0,0.0,0.0,0.0,0.0,0.0,0.0,0.0,0.0,0.0,0.2105,8.7521,0.9044,13.3057,-1.0986,-12.7563,83.3972,-1.3129,-22.2693,0.6543,0.1201,-0.1517,0.7311,2.0385,9.3263,-0.6986,76.7212,55.481,-5.0049,94.5319,1.3129,-29.6906,0.708,0.1957,-0.1657,0.6581,-0.2058,9.3502,-2.9381,18.8599,18.7378,-11.7798,103.6395,-0.2692,-27.5922,0.7637,0.186,-0.1492,0.5999,-0.8805,0.7321,9.9005,3.418,3.2349,1.2207,3.8452,5.4657,-86.0339,-0.008,0.0577,-0.6799,0.731,0.067,9.8909,-1.8136,-123.0469,41.0156,29.6631,85.2594,-5.614,-23.4943,0.6696,0.1024,-0.1821,0.7127,1.4595,7.6754,-7.9386,-96.4966,-5.188,16.3574,140.3558,-8.1464,-25.9277,0.9199,0.187,-0.141,0.3146,2.7945,-3.7659,8.4984,-149.4751,17.2119,33.4473,48.0542,4.8779,-96.3831,0.2422,0.3291,-0.6686,0.6212,0,0,0,0,0,0,0,0,0,0,0,0,0,0,0,0,0,0,0,0,15118,45837,0,0,0,0,18199,64782,41728,0,0,0,60681,61954,13058,0
1777289315.2079465,345293,1777289306.0834117,1777289313.3932796,1777289306.6134102,0,0,-7309.867858886719,-529.9985408782959,1,1,0.0,0.0,0.0,0.0,0.0,0.0,0.0,0.0,0.0,0.0,0.0,0.0,0.0,0.0,0.0,0.0,0.0,0.0,0.0,0.0,0.0,0.0,0.0,0.0,0.0,0.0,0.0,0.0,0.0,0.0,0.0,0.0,0.0,0.0,0.0,0.0,0.0,0.0,0.0,0.0,0.0,0.0,0.0,0.0,0.0,0.0,0.0,0.0,0.0,0.0,0.0,0.0,0.0,0.0,0.0,0.0,0.0,0.0,0.0,0.0,0.0,0.0,0.0,0.0,0.0,0.0,0.0,0.0,0.0,0.0,0.0,0.0,0.0,0.0,0.0,0.2105,8.7521,0.9044,13.3057,-1.0986,-12.7563,83.3972,-1.3129,-22.2693,0.6543,0.1201,-0.1517,0.7311,2.0385,9.3263,-0.6986,76.7212,55.481,-5.0049,94.5319,1.3129,-29.6906,0.708,0.1957,-0.1657,0.6581,-0.2058,9.3502,-2.9381,18.8599,18.7378,-11.7798,103.6395,-0.2692,-27.5922,0.7637,0.186,-0.1492,0.5999,-0.8805,0.7321,9.9005,3.418,3.2349,1.2207,3.8452,5.4657,-86.0339,-0.008,0.0577,-0.6799,0.731,0.067,9.8909,-1.8136,-123.0469,41.0156,29.6631,85.2594,-5.614,-23.4943,0.6696,0.1024,-0.1821,0.7127,1.4595,7.6754,-7.9386,-96.4966,-5.188,16.3574,140.3558,-8.1464,-25.9277,0.9199,0.187,-0.141,0.3146,2.7945,-3.7659,8.4984,-149.4751,17.2119,33.4473,48.0542,4.8779,-96.3831,0.2422,0.3291,-0.6686,0.6212,0,0,0,0,0,0,0,0,0,0,0,0,0,0,0,0,0,0,0,0,15118,45837,0,0,0,0,18199,64782,41728,0,0,0,60681,61954,13058,0
1777289315.2079465,345294,1777289306.0931978,1777289313.3932796,1777289306.6134102,0,0,-7300.081729888916,-520.2124118804932,1,1,0.0,0.0,0.0,0.0,0.0,0.0,0.0,0.0,0.0,0.0,0.0,0.0,0.0,0.0,0.0,0.0,0.0,0.0,0.0,0.0,0.0,0.0,0.0,0.0,0.0,0.0,0.0,0.0,0.0,0.0,0.0,0.0,0.0,0.0,0.0,0.0,0.0,0.0,0.0,0.0,0.0,0.0,0.0,0.0,0.0,0.0,0.0,0.0,0.0,0.0,0.0,0.0,0.0,0.0,0.0,0.0,0.0,0.0,0.0,0.0,0.0,0.0,0.0,0.0,0.0,0.0,0.0,0.0,0.0,0.0,0.0,0.0,0.0,0.0,0.0,0.2105,8.7521,0.9044,13.3057,-1.0986,-12.7563,83.3972,-1.3129,-22.2693,0.6543,0.1201,-0.1517,0.7311,2.0385,9.3263,-0.6986,76.7212,55.481,-5.0049,94.5319,1.3129,-29.6906,0.708,0.1957,-0.1657,0.6581,-0.2058,9.3502,-2.9381,18.8599,18.7378,-11.7798,103.6395,-0.2692,-27.5922,0.7637,0.186,-0.1492,0.5999,-0.8805,0.7321,9.9005,3.418,3.2349,1.2207,3.8452,5.4657,-86.0339,-0.008,0.0577,-0.6799,0.731,0.067,9.8909,-1.8136,-123.0469,41.0156,29.6631,85.2594,-5.614,-23.4943,0.6696,0.1024,-0.1821,0.7127,1.4595,7.6754,-7.9386,-96.4966,-5.188,16.3574,140.3558,-8.1464,-25.9277,0.9199,0.187,-0.141,0.3146,2.7945,-3.7659,8.4984,-149.4751,17.2119,33.4473,48.0542,4.8779,-96.3831,0.2422,0.3291,-0.6686,0.6212,0,0,0,0,0,0,0,0,0,0,0,0,0,0,0,0,0,0,0,0,15118,45837,0,0,0,0,18199,64782,41728,0,0,0,60681,61954,13058,0
1777289315.2079465,345295,1777289306.102314,1777289313.3932796,1777289306.6134102,0,0,-7290.965557098389,-511.0962390899658,1,1,0.0,0.0,0.0,0.0,0.0,0.0,0.0,0.0,0.0,0.0,0.0,0.0,0.0,0.0,0.0,0.0,0.0,0.0,0.0,0.0,0.0,0.0,0.0,0.0,0.0,0.0,0.0,0.0,0.0,0.0,0.0,0.0,0.0,0.0,0.0,0.0,0.0,0.0,0.0,0.0,0.0,0.0,0.0,0.0,0.0,0.0,0.0,0.0,0.0,0.0,0.0,0.0,0.0,0.0,0.0,0.0,0.0,0.0,0.0,0.0,0.0,0.0,0.0,0.0,0.0,0.0,0.0,0.0,0.0,0.0,0.0,0.0,0.0,0.0,0.0,0.2105,8.7521,0.9044,13.3057,-1.0986,-12.7563,83.3972,-1.3129,-22.2693,0.6543,0.1201,-0.1517,0.7311,2.0385,9.3263,-0.6986,76.7212,55.481,-5.0049,94.5319,1.3129,-29.6906,0.708,0.1957,-0.1657,0.6581,-0.2058,9.3502,-2.9381,18.8599,18.7378,-11.7798,103.6395,-0.2692,-27.5922,0.7637,0.186,-0.1492,0.5999,-0.8805,0.7321,9.9005,3.418,3.2349,1.2207,3.8452,5.4657,-86.0339,-0.008,0.0577,-0.6799,0.731,0.067,9.8909,-1.8136,-123.0469,41.0156,29.6631,85.2594,-5.614,-23.4943,0.6696,0.1024,-0.1821,0.7127,1.4595,7.6754,-7.9386,-96.4966,-5.188,16.3574,140.3558,-8.1464,-25.9277,0.9199,0.187,-0.141,0.3146,2.7945,-3.7659,8.4984,-149.4751,17.2119,33.4473,48.0542,4.8779,-96.3831,0.2422,0.3291,-0.6686,0.6212,0,0,0,0,0,0,0,0,0,0,0,0,0,0,0,0,0,0,0,0,15118,45837,0,0,0,0,18199,64782,41728,0,0,0,60681,61954,13058,0
1777289315.2079465,345296,1777289306.1154377,1777289313.3932796,1777289306.6134102,0,0,-7277.841806411743,-497.9724884033203,1,1,0.0,0.0,0.0,0.0,0.0,0.0,0.0,0.0,0.0,0.0,0.0,0.0,0.0,0.0,0.0,0.0,0.0,0.0,0.0,0.0,0.0,0.0,0.0,0.0,0.0,0.0,0.0,0.0,0.0,0.0,0.0,0.0,0.0,0.0,0.0,0.0,0.0,0.0,0.0,0.0,0.0,0.0,0.0,0.0,0.0,0.0,0.0,0.0,0.0,0.0,0.0,0.0,0.0,0.0,0.0,0.0,0.0,0.0,0.0,0.0,0.0,0.0,0.0,0.0,0.0,0.0,0.0,0.0,0.0,0.0,0.0,0.0,0.0,0.0,0.0,0.2105,8.7521,0.9044,13.3057,-1.0986,-12.7563,83.3972,-1.3129,-22.2693,0.6543,0.1201,-0.1517,0.7311,2.0385,9.3263,-0.6986,76.7212,55.481,-5.0049,94.5319,1.3129,-29.6906,0.708,0.1957,-0.1657,0.6581,-0.2058,9.3502,-2.9381,18.8599,18.7378,-11.7798,103.6395,-0.2692,-27.5922,0.7637,0.186,-0.1492,0.5999,-0.8805,0.7321,9.9005,3.418,3.2349,1.2207,3.8452,5.4657,-86.0339,-0.008,0.0577,-0.6799,0.731,0.067,9.8909,-1.8136,-123.0469,41.0156,29.6631,85.2594,-5.614,-23.4943,0.6696,0.1024,-0.1821,0.7127,1.4595,7.6754,-7.9386,-96.4966,-5.188,16.3574,140.3558,-8.1464,-25.9277,0.9199,0.187,-0.141,0.3146,2.7945,-3.7659,8.4984,-149.4751,17.2119,33.4473,48.0542,4.8779,-96.3831,0.2422,0.3291,-0.6686,0.6212,0,0,0,0,0,0,0,0,0,0,0,0,0,0,0,0,0,0,0,0,15118,45837,0,0,0,0,18199,64782,41728,0,0,0,60681,61954,13058,0
1777289315.2089462,345297,1777289306.122918,1777289313.3932796,1777289306.6134102,0,0,-7270.361661911011,-490.4923439025879,1,1,0.0,0.0,0.0,0.0,0.0,0.0,0.0,0.0,0.0,0.0,0.0,0.0,0.0,0.0,0.0,0.0,0.0,0.0,0.0,0.0,0.0,0.0,0.0,0.0,0.0,0.0,0.0,0.0,0.0,0.0,0.0,0.0,0.0,0.0,0.0,0.0,0.0,0.0,0.0,0.0,0.0,0.0,0.0,0.0,0.0,0.0,0.0,0.0,0.0,0.0,0.0,0.0,0.0,0.0,0.0,0.0,0.0,0.0,0.0,0.0,0.0,0.0,0.0,0.0,0.0,0.0,0.0,0.0,0.0,0.0,0.0,0.0,0.0,0.0,0.0,0.2105,8.7521,0.9044,13.3057,-1.0986,-12.7563,83.3972,-1.3129,-22.2693,0.6543,0.1201,-0.1517,0.7311,2.0385,9.3263,-0.6986,76.7212,55.481,-5.0049,94.5319,1.3129,-29.6906,0.708,0.1957,-0.1657,0.6581,-0.2058,9.3502,-2.9381,18.8599,18.7378,-11.7798,103.6395,-0.2692,-27.5922,0.7637,0.186,-0.1492,0.5999,-0.8805,0.7321,9.9005,3.418,3.2349,1.2207,3.8452,5.4657,-86.0339,-0.008,0.0577,-0.6799,0.731,0.067,9.8909,-1.8136,-123.0469,41.0156,29.6631,85.2594,-5.614,-23.4943,0.6696,0.1024,-0.1821,0.7127,1.4595,7.6754,-7.9386,-96.4966,-5.188,16.3574,140.3558,-8.1464,-25.9277,0.9199,0.187,-0.141,0.3146,2.7945,-3.7659,8.4984,-149.4751,17.2119,33.4473,48.0542,4.8779,-96.3831,0.2422,0.3291,-0.6686,0.6212,0,0,0,0,0,0,0,0,0,0,0,0,0,0,0,0,0,0,0,0,15118,45837,0,0,0,0,18199,64782,41728,0,0,0,60681,61954,13058,0
1777289315.2089462,345298,1777289306.1335168,1777289313.3932796,1777289306.6134102,0,0,-7259.762763977051,-479.89344596862793,1,1,0.0,0.0,0.0,0.0,0.0,0.0,0.0,0.0,0.0,0.0,0.0,0.0,0.0,0.0,0.0,0.0,0.0,0.0,0.0,0.0,0.0,0.0,0.0,0.0,0.0,0.0,0.0,0.0,0.0,0.0,0.0,0.0,0.0,0.0,0.0,0.0,0.0,0.0,0.0,0.0,0.0,0.0,0.0,0.0,0.0,0.0,0.0,0.0,0.0,0.0,0.0,0.0,0.0,0.0,0.0,0.0,0.0,0.0,0.0,0.0,0.0,0.0,0.0,0.0,0.0,0.0,0.0,0.0,0.0,0.0,0.0,0.0,0.0,0.0,0.0,0.2105,8.7521,0.9044,13.3057,-1.0986,-12.7563,83.3972,-1.3129,-22.2693,0.6543,0.1201,-0.1517,0.7311,2.0385,9.3263,-0.6986,76.7212,55.481,-5.0049,94.5319,1.3129,-29.6906,0.708,0.1957,-0.1657,0.6581,-0.2058,9.3502,-2.9381,18.8599,18.7378,-11.7798,103.6395,-0.2692,-27.5922,0.7637,0.186,-0.1492,0.5999,-0.8805,0.7321,9.9005,3.418,3.2349,1.2207,3.8452,5.4657,-86.0339,-0.008,0.0577,-0.6799,0.731,0.067,9.8909,-1.8136,-123.0469,41.0156,29.6631,85.2594,-5.614,-23.4943,0.6696,0.1024,-0.1821,0.7127,1.4595,7.6754,-7.9386,-96.4966,-5.188,16.3574,140.3558,-8.1464,-25.9277,0.9199,0.187,-0.141,0.3146,2.7945,-3.7659,8.4984,-149.4751,17.2119,33.4473,48.0542,4.8779,-96.3831,0.2422,0.3291,-0.6686,0.6212,0,0,0,0,0,0,0,0,0,0,0,0,0,0,0,0,0,0,0,0,15118,45837,0,0,0,0,18199,64782,41728,0,0,0,60681,61954,13058,0
1777289315.2089462,345299,1777289306.142768,1777289313.3932796,1777289306.6134102,0,0,-7250.511646270752,-470.6423282623291,1,1,0.0,0.0,0.0,0.0,0.0,0.0,0.0,0.0,0.0,0.0,0.0,0.0,0.0,0.0,0.0,0.0,0.0,0.0,0.0,0.0,0.0,0.0,0.0,0.0,0.0,0.0,0.0,0.0,0.0,0.0,0.0,0.0,0.0,0.0,0.0,0.0,0.0,0.0,0.0,0.0,0.0,0.0,0.0,0.0,0.0,0.0,0.0,0.0,0.0,0.0,0.0,0.0,0.0,0.0,0.0,0.0,0.0,0.0,0.0,0.0,0.0,0.0,0.0,0.0,0.0,0.0,0.0,0.0,0.0,0.0,0.0,0.0,0.0,0.0,0.0,0.2105,8.7521,0.9044,13.3057,-1.0986,-12.7563,83.3972,-1.3129,-22.2693,0.6543,0.1201,-0.1517,0.7311,2.0385,9.3263,-0.6986,76.7212,55.481,-5.0049,94.5319,1.3129,-29.6906,0.708,0.1957,-0.1657,0.6581,-0.2058,9.3502,-2.9381,18.8599,18.7378,-11.7798,103.6395,-0.2692,-27.5922,0.7637,0.186,-0.1492,0.5999,-0.8805,0.7321,9.9005,3.418,3.2349,1.2207,3.8452,5.4657,-86.0339,-0.008,0.0577,-0.6799,0.731,0.067,9.8909,-1.8136,-123.0469,41.0156,29.6631,85.2594,-5.614,-23.4943,0.6696,0.1024,-0.1821,0.7127,1.4595,7.6754,-7.9386,-96.4966,-5.188,16.3574,140.3558,-8.1464,-25.9277,0.9199,0.187,-0.141,0.3146,2.7945,-3.7659,8.4984,-149.4751,17.2119,33.4473,48.0542,4.8779,-96.3831,0.2422,0.3291,-0.6686,0.6212,0,0,0,0,0,0,0,0,0,0,0,0,0,0,0,0,0,0,0,0,15118,45837,0,0,0,0,18199,64782,41728,0,0,0,60681,61954,13058,0
1777289315.2089462,345300,1777289306.1570263,1777289313.3932796,1777289306.6134102,0,0,-7236.253261566162,-456.38394355773926,1,1,0.0,0.0,0.0,0.0,0.0,0.0,0.0,0.0,0.0,0.0,0.0,0.0,0.0,0.0,0.0,0.0,0.0,0.0,0.0,0.0,0.0,0.0,0.0,0.0,0.0,0.0,0.0,0.0,0.0,0.0,0.0,0.0,0.0,0.0,0.0,0.0,0.0,0.0,0.0,0.0,0.0,0.0,0.0,0.0,0.0,0.0,0.0,0.0,0.0,0.0,0.0,0.0,0.0,0.0,0.0,0.0,0.0,0.0,0.0,0.0,0.0,0.0,0.0,0.0,0.0,0.0,0.0,0.0,0.0,0.0,0.0,0.0,0.0,0.0,0.0,0.2105,8.7521,0.9044,13.3057,-1.0986,-12.7563,83.3972,-1.3129,-22.2693,0.6543,0.1201,-0.1517,0.7311,2.0385,9.3263,-0.6986,76.7212,55.481,-5.0049,94.5319,1.3129,-29.6906,0.708,0.1957,-0.1657,0.6581,-0.2058,9.3502,-2.9381,18.8599,18.7378,-11.7798,103.6395,-0.2692,-27.5922,0.7637,0.186,-0.1492,0.5999,-0.8805,0.7321,9.9005,3.418,3.2349,1.2207,3.8452,5.4657,-86.0339,-0.008,0.0577,-0.6799,0.731,0.067,9.8909,-1.8136,-123.0469,41.0156,29.6631,85.2594,-5.614,-23.4943,0.6696,0.1024,-0.1821,0.7127,1.4595,7.6754,-7.9386,-96.4966,-5.188,16.3574,140.3558,-8.1464,-25.9277,0.9199,0.187,-0.141,0.3146,2.7945,-3.7659,8.4984,-149.4751,17.2119,33.4473,48.0542,4.8779,-96.3831,0.2422,0.3291,-0.6686,0.6212,0,0,0,0,0,0,0,0,0,0,0,0,0,0,0,0,0,0,0,0,15118,45837,0,0,0,0,18199,64782,41728,0,0,0,60681,61954,13058,0
1777289315.2089462,345301,1777289306.1619458,1777289313.3932796,1777289306.6134102,0,0,-7231.3337326049805,-451.4644145965576,1,1,0.0,0.0,0.0,0.0,0.0,0.0,0.0,0.0,0.0,0.0,0.0,0.0,0.0,0.0,0.0,0.0,0.0,0.0,0.0,0.0,0.0,0.0,0.0,0.0,0.0,0.0,0.0,0.0,0.0,0.0,0.0,0.0,0.0,0.0,0.0,0.0,0.0,0.0,0.0,0.0,0.0,0.0,0.0,0.0,0.0,0.0,0.0,0.0,0.0,0.0,0.0,0.0,0.0,0.0,0.0,0.0,0.0,0.0,0.0,0.0,0.0,0.0,0.0,0.0,0.0,0.0,0.0,0.0,0.0,0.0,0.0,0.0,0.0,0.0,0.0,0.2105,8.7521,0.9044,13.3057,-1.0986,-12.7563,83.3972,-1.3129,-22.2693,0.6543,0.1201,-0.1517,0.7311,2.0385,9.3263,-0.6986,76.7212,55.481,-5.0049,94.5319,1.3129,-29.6906,0.708,0.1957,-0.1657,0.6581,-0.2058,9.3502,-2.9381,18.8599,18.7378,-11.7798,103.6395,-0.2692,-27.5922,0.7637,0.186,-0.1492,0.5999,-0.8805,0.7321,9.9005,3.418,3.2349,1.2207,3.8452,5.4657,-86.0339,-0.008,0.0577,-0.6799,0.731,0.067,9.8909,-1.8136,-123.0469,41.0156,29.6631,85.2594,-5.614,-23.4943,0.6696,0.1024,-0.1821,0.7127,1.4595,7.6754,-7.9386,-96.4966,-5.188,16.3574,140.3558,-8.1464,-25.9277,0.9199,0.187,-0.141,0.3146,2.7945,-3.7659,8.4984,-149.4751,17.2119,33.4473,48.0542,4.8779,-96.3831,0.2422,0.3291,-0.6686,0.6212,0,0,0,0,0,0,0,0,0,0,0,0,0,0,0,0,0,0,0,0,15118,45837,0,0,0,0,18199,64782,41728,0,0,0,60681,61954,13058,0
1777289315.2089462,345302,1777289306.1725106,1777289313.3932796,1777289306.6134102,0,0,-7220.768928527832,-440.8996105194092,1,1,0.0,0.0,0.0,0.0,0.0,0.0,0.0,0.0,0.0,0.0,0.0,0.0,0.0,0.0,0.0,0.0,0.0,0.0,0.0,0.0,0.0,0.0,0.0,0.0,0.0,0.0,0.0,0.0,0.0,0.0,0.0,0.0,0.0,0.0,0.0,0.0,0.0,0.0,0.0,0.0,0.0,0.0,0.0,0.0,0.0,0.0,0.0,0.0,0.0,0.0,0.0,0.0,0.0,0.0,0.0,0.0,0.0,0.0,0.0,0.0,0.0,0.0,0.0,0.0,0.0,0.0,0.0,0.0,0.0,0.0,0.0,0.0,0.0,0.0,0.0,0.2105,8.7521,0.9044,13.3057,-1.0986,-12.7563,83.3972,-1.3129,-22.2693,0.6543,0.1201,-0.1517,0.7311,2.0385,9.3263,-0.6986,76.7212,55.481,-5.0049,94.5319,1.3129,-29.6906,0.708,0.1957,-0.1657,0.6581,-0.2058,9.3502,-2.9381,18.8599,18.7378,-11.7798,103.6395,-0.2692,-27.5922,0.7637,0.186,-0.1492,0.5999,-0.8805,0.7321,9.9005,3.418,3.2349,1.2207,3.8452,5.4657,-86.0339,-0.008,0.0577,-0.6799,0.731,0.067,9.8909,-1.8136,-123.0469,41.0156,29.6631,85.2594,-5.614,-23.4943,0.6696,0.1024,-0.1821,0.7127,1.4595,7.6754,-7.9386,-96.4966,-5.188,16.3574,140.3558,-8.1464,-25.9277,0.9199,0.187,-0.141,0.3146,2.7945,-3.7659,8.4984,-149.4751,17.2119,33.4473,48.0542,4.8779,-96.3831,0.2422,0.3291,-0.6686,0.6212,0,0,0,0,0,0,0,0,0,0,0,0,0,0,0,0,0,0,0,0,15118,45837,0,0,0,0,18199,64782,41728,0,0,0,60681,61954,13058,0
1777289315.2089462,345303,1777289306.1833837,1777289313.3932796,1777289306.6134102,0,0,-7209.895849227905,-430.0265312194824,1,1,0.0,0.0,0.0,0.0,0.0,0.0,0.0,0.0,0.0,0.0,0.0,0.0,0.0,0.0,0.0,0.0,0.0,0.0,0.0,0.0,0.0,0.0,0.0,0.0,0.0,0.0,0.0,0.0,0.0,0.0,0.0,0.0,0.0,0.0,0.0,0.0,0.0,0.0,0.0,0.0,0.0,0.0,0.0,0.0,0.0,0.0,0.0,0.0,0.0,0.0,0.0,0.0,0.0,0.0,0.0,0.0,0.0,0.0,0.0,0.0,0.0,0.0,0.0,0.0,0.0,0.0,0.0,0.0,0.0,0.0,0.0,0.0,0.0,0.0,0.0,0.2105,8.7521,0.9044,13.3057,-1.0986,-12.7563,83.3972,-1.3129,-22.2693,0.6543,0.1201,-0.1517,0.7311,2.0385,9.3263,-0.6986,76.7212,55.481,-5.0049,94.5319,1.3129,-29.6906,0.708,0.1957,-0.1657,0.6581,-0.2058,9.3502,-2.9381,18.8599,18.7378,-11.7798,103.6395,-0.2692,-27.5922,0.7637,0.186,-0.1492,0.5999,-0.8805,0.7321,9.9005,3.418,3.2349,1.2207,3.8452,5.4657,-86.0339,-0.008,0.0577,-0.6799,0.731,0.067,9.8909,-1.8136,-123.0469,41.0156,29.6631,85.2594,-5.614,-23.4943,0.6696,0.1024,-0.1821,0.7127,1.4595,7.6754,-7.9386,-96.4966,-5.188,16.3574,140.3558,-8.1464,-25.9277,0.9199,0.187,-0.141,0.3146,2.7945,-3.7659,8.4984,-149.4751,17.2119,33.4473,48.0542,4.8779,-96.3831,0.2422,0.3291,-0.6686,0.6212,0,0,0,0,0,0,0,0,0,0,0,0,0,0,0,0,0,0,0,0,15118,45837,0,0,0,0,18199,64782,41728,0,0,0,60681,61954,13058,0
1777289315.2089462,345304,1777289306.1932461,1777289313.3932796,1777289306.6134102,0,0,-7200.03342628479,-420.1641082763672,1,1,0.0,0.0,0.0,0.0,0.0,0.0,0.0,0.0,0.0,0.0,0.0,0.0,0.0,0.0,0.0,0.0,0.0,0.0,0.0,0.0,0.0,0.0,0.0,0.0,0.0,0.0,0.0,0.0,0.0,0.0,0.0,0.0,0.0,0.0,0.0,0.0,0.0,0.0,0.0,0.0,0.0,0.0,0.0,0.0,0.0,0.0,0.0,0.0,0.0,0.0,0.0,0.0,0.0,0.0,0.0,0.0,0.0,0.0,0.0,0.0,0.0,0.0,0.0,0.0,0.0,0.0,0.0,0.0,0.0,0.0,0.0,0.0,0.0,0.0,0.0,0.2105,8.7521,0.9044,13.3057,-1.0986,-12.7563,83.3972,-1.3129,-22.2693,0.6543,0.1201,-0.1517,0.7311,2.0385,9.3263,-0.6986,76.7212,55.481,-5.0049,94.5319,1.3129,-29.6906,0.708,0.1957,-0.1657,0.6581,-0.2058,9.3502,-2.9381,18.8599,18.7378,-11.7798,103.6395,-0.2692,-27.5922,0.7637,0.186,-0.1492,0.5999,-0.8805,0.7321,9.9005,3.418,3.2349,1.2207,3.8452,5.4657,-86.0339,-0.008,0.0577,-0.6799,0.731,0.067,9.8909,-1.8136,-123.0469,41.0156,29.6631,85.2594,-5.614,-23.4943,0.6696,0.1024,-0.1821,0.7127,1.4595,7.6754,-7.9386,-96.4966,-5.188,16.3574,140.3558,-8.1464,-25.9277,0.9199,0.187,-0.141,0.3146,2.7945,-3.7659,8.4984,-149.4751,17.2119,33.4473,48.0542,4.8779,-96.3831,0.2422,0.3291,-0.6686,0.6212,0,0,0,0,0,0,0,0,0,0,0,0,0,0,0,0,0,0,0,0,15118,45837,0,0,0,0,18199,64782,41728,0,0,0,60681,61954,13058,0
1777289315.2089462,345305,1777289306.2037861,1777289313.3932796,1777289306.6134102,0,0,-7189.493417739868,-409.6240997314453,1,1,0.0,0.0,0.0,0.0,0.0,0.0,0.0,0.0,0.0,0.0,0.0,0.0,0.0,0.0,0.0,0.0,0.0,0.0,0.0,0.0,0.0,0.0,0.0,0.0,0.0,0.0,0.0,0.0,0.0,0.0,0.0,0.0,0.0,0.0,0.0,0.0,0.0,0.0,0.0,0.0,0.0,0.0,0.0,0.0,0.0,0.0,0.0,0.0,0.0,0.0,0.0,0.0,0.0,0.0,0.0,0.0,0.0,0.0,0.0,0.0,0.0,0.0,0.0,0.0,0.0,0.0,0.0,0.0,0.0,0.0,0.0,0.0,0.0,0.0,0.0,0.2105,8.7521,0.9044,13.3057,-1.0986,-12.7563,83.3972,-1.3129,-22.2693,0.6543,0.1201,-0.1517,0.7311,2.0385,9.3263,-0.6986,76.7212,55.481,-5.0049,94.5319,1.3129,-29.6906,0.708,0.1957,-0.1657,0.6581,-0.2058,9.3502,-2.9381,18.8599,18.7378,-11.7798,103.6395,-0.2692,-27.5922,0.7637,0.186,-0.1492,0.5999,-0.8805,0.7321,9.9005,3.418,3.2349,1.2207,3.8452,5.4657,-86.0339,-0.008,0.0577,-0.6799,0.731,0.067,9.8909,-1.8136,-123.0469,41.0156,29.6631,85.2594,-5.614,-23.4943,0.6696,0.1024,-0.1821,0.7127,1.4595,7.6754,-7.9386,-96.4966,-5.188,16.3574,140.3558,-8.1464,-25.9277,0.9199,0.187,-0.141,0.3146,2.7945,-3.7659,8.4984,-149.4751,17.2119,33.4473,48.0542,4.8779,-96.3831,0.2422,0.3291,-0.6686,0.6212,0,0,0,0,0,0,0,0,0,0,0,0,0,0,0,0,0,0,0,0,15118,45837,0,0,0,0,18199,64782,41728,0,0,0,60681,61954,13058,0
1777289315.2089462,345306,1777289306.2124302,1777289313.3932796,1777289306.6134102,0,0,-7180.849313735962,-400.97999572753906,1,1,0.0,0.0,0.0,0.0,0.0,0.0,0.0,0.0,0.0,0.0,0.0,0.0,0.0,0.0,0.0,0.0,0.0,0.0,0.0,0.0,0.0,0.0,0.0,0.0,0.0,0.0,0.0,0.0,0.0,0.0,0.0,0.0,0.0,0.0,0.0,0.0,0.0,0.0,0.0,0.0,0.0,0.0,0.0,0.0,0.0,0.0,0.0,0.0,0.0,0.0,0.0,0.0,0.0,0.0,0.0,0.0,0.0,0.0,0.0,0.0,0.0,0.0,0.0,0.0,0.0,0.0,0.0,0.0,0.0,0.0,0.0,0.0,0.0,0.0,0.0,0.2105,8.7521,0.9044,13.3057,-1.0986,-12.7563,83.3972,-1.3129,-22.2693,0.6543,0.1201,-0.1517,0.7311,2.0385,9.3263,-0.6986,76.7212,55.481,-5.0049,94.5319,1.3129,-29.6906,0.708,0.1957,-0.1657,0.6581,-0.2058,9.3502,-2.9381,18.8599,18.7378,-11.7798,103.6395,-0.2692,-27.5922,0.7637,0.186,-0.1492,0.5999,-0.8805,0.7321,9.9005,3.418,3.2349,1.2207,3.8452,5.4657,-86.0339,-0.008,0.0577,-0.6799,0.731,0.067,9.8909,-1.8136,-123.0469,41.0156,29.6631,85.2594,-5.614,-23.4943,0.6696,0.1024,-0.1821,0.7127,1.4595,7.6754,-7.9386,-96.4966,-5.188,16.3574,140.3558,-8.1464,-25.9277,0.9199,0.187,-0.141,0.3146,2.7945,-3.7659,8.4984,-149.4751,17.2119,33.4473,48.0542,4.8779,-96.3831,0.2422,0.3291,-0.6686,0.6212,0,0,0,0,0,0,0,0,0,0,0,0,0,0,0,0,0,0,0,0,15118,45837,0,0,0,0,18199,64782,41728,0,0,0,60681,61954,13058,0
1777289315.2089462,345307,1777289306.2266922,1777289313.3932796,1777289306.6134102,0,0,-7166.587352752686,-386.7180347442627,1,1,0.0,0.0,0.0,0.0,0.0,0.0,0.0,0.0,0.0,0.0,0.0,0.0,0.0,0.0,0.0,0.0,0.0,0.0,0.0,0.0,0.0,0.0,0.0,0.0,0.0,0.0,0.0,0.0,0.0,0.0,0.0,0.0,0.0,0.0,0.0,0.0,0.0,0.0,0.0,0.0,0.0,0.0,0.0,0.0,0.0,0.0,0.0,0.0,0.0,0.0,0.0,0.0,0.0,0.0,0.0,0.0,0.0,0.0,0.0,0.0,0.0,0.0,0.0,0.0,0.0,0.0,0.0,0.0,0.0,0.0,0.0,0.0,0.0,0.0,0.0,0.2105,8.7521,0.9044,13.3057,-1.0986,-12.7563,83.3972,-1.3129,-22.2693,0.6543,0.1201,-0.1517,0.7311,2.0385,9.3263,-0.6986,76.7212,55.481,-5.0049,94.5319,1.3129,-29.6906,0.708,0.1957,-0.1657,0.6581,-0.2058,9.3502,-2.9381,18.8599,18.7378,-11.7798,103.6395,-0.2692,-27.5922,0.7637,0.186,-0.1492,0.5999,-0.8805,0.7321,9.9005,3.418,3.2349,1.2207,3.8452,5.4657,-86.0339,-0.008,0.0577,-0.6799,0.731,0.067,9.8909,-1.8136,-123.0469,41.0156,29.6631,85.2594,-5.614,-23.4943,0.6696,0.1024,-0.1821,0.7127,1.4595,7.6754,-7.9386,-96.4966,-5.188,16.3574,140.3558,-8.1464,-25.9277,0.9199,0.187,-0.141,0.3146,2.7945,-3.7659,8.4984,-149.4751,17.2119,33.4473,48.0542,4.8779,-96.3831,0.2422,0.3291,-0.6686,0.6212,0,0,0,0,0,0,0,0,0,0,0,0,0,0,0,0,0,0,0,0,15118,45837,0,0,0,0,18199,64782,41728,0,0,0,60681,61954,13058,0
1777289315.2099495,345308,1777289306.2330868,1777289313.3932796,1777289306.6134102,0,0,-7160.1927280426025,-380.3234100341797,1,1,0.0,0.0,0.0,0.0,0.0,0.0,0.0,0.0,0.0,0.0,0.0,0.0,0.0,0.0,0.0,0.0,0.0,0.0,0.0,0.0,0.0,0.0,0.0,0.0,0.0,0.0,0.0,0.0,0.0,0.0,0.0,0.0,0.0,0.0,0.0,0.0,0.0,0.0,0.0,0.0,0.0,0.0,0.0,0.0,0.0,0.0,0.0,0.0,0.0,0.0,0.0,0.0,0.0,0.0,0.0,0.0,0.0,0.0,0.0,0.0,0.0,0.0,0.0,0.0,0.0,0.0,0.0,0.0,0.0,0.0,0.0,0.0,0.0,0.0,0.0,0.2105,8.7521,0.9044,13.3057,-1.0986,-12.7563,83.3972,-1.3129,-22.2693,0.6543,0.1201,-0.1517,0.7311,2.0385,9.3263,-0.6986,76.7212,55.481,-5.0049,94.5319,1.3129,-29.6906,0.708,0.1957,-0.1657,0.6581,-0.2058,9.3502,-2.9381,18.8599,18.7378,-11.7798,103.6395,-0.2692,-27.5922,0.7637,0.186,-0.1492,0.5999,-0.8805,0.7321,9.9005,3.418,3.2349,1.2207,3.8452,5.4657,-86.0339,-0.008,0.0577,-0.6799,0.731,0.067,9.8909,-1.8136,-123.0469,41.0156,29.6631,85.2594,-5.614,-23.4943,0.6696,0.1024,-0.1821,0.7127,1.4595,7.6754,-7.9386,-96.4966,-5.188,16.3574,140.3558,-8.1464,-25.9277,0.9199,0.187,-0.141,0.3146,2.7945,-3.7659,8.4984,-149.4751,17.2119,33.4473,48.0542,4.8779,-96.3831,0.2422,0.3291,-0.6686,0.6212,0,0,0,0,0,0,0,0,0,0,0,0,0,0,0,0,0,0,0,0,15118,45837,0,0,0,0,18199,64782,41728,0,0,0,60681,61954,13058,0
1777289315.2099495,345309,1777289306.243124,1777289313.3932796,1777289306.6134102,0,0,-7150.155544281006,-370.286226272583,1,1,0.0,0.0,0.0,0.0,0.0,0.0,0.0,0.0,0.0,0.0,0.0,0.0,0.0,0.0,0.0,0.0,0.0,0.0,0.0,0.0,0.0,0.0,0.0,0.0,0.0,0.0,0.0,0.0,0.0,0.0,0.0,0.0,0.0,0.0,0.0,0.0,0.0,0.0,0.0,0.0,0.0,0.0,0.0,0.0,0.0,0.0,0.0,0.0,0.0,0.0,0.0,0.0,0.0,0.0,0.0,0.0,0.0,0.0,0.0,0.0,0.0,0.0,0.0,0.0,0.0,0.0,0.0,0.0,0.0,0.0,0.0,0.0,0.0,0.0,0.0,0.2105,8.7521,0.9044,13.3057,-1.0986,-12.7563,83.3972,-1.3129,-22.2693,0.6543,0.1201,-0.1517,0.7311,2.0385,9.3263,-0.6986,76.7212,55.481,-5.0049,94.5319,1.3129,-29.6906,0.708,0.1957,-0.1657,0.6581,-0.2058,9.3502,-2.9381,18.8599,18.7378,-11.7798,103.6395,-0.2692,-27.5922,0.7637,0.186,-0.1492,0.5999,-0.8805,0.7321,9.9005,3.418,3.2349,1.2207,3.8452,5.4657,-86.0339,-0.008,0.0577,-0.6799,0.731,0.067,9.8909,-1.8136,-123.0469,41.0156,29.6631,85.2594,-5.614,-23.4943,0.6696,0.1024,-0.1821,0.7127,1.4595,7.6754,-7.9386,-96.4966,-5.188,16.3574,140.3558,-8.1464,-25.9277,0.9199,0.187,-0.141,0.3146,2.7945,-3.7659,8.4984,-149.4751,17.2119,33.4473,48.0542,4.8779,-96.3831,0.2422,0.3291,-0.6686,0.6212,0,0,0,0,0,0,0,0,0,0,0,0,0,0,0,0,0,0,0,0,15118,45837,0,0,0,0,18199,64782,41728,0,0,0,60681,61954,13058,0
1777289315.2099495,345310,1777289306.253501,1777289313.3932796,1777289306.6134102,0,0,-7139.778614044189,-359.9092960357666,1,1,0.0,0.0,0.0,0.0,0.0,0.0,0.0,0.0,0.0,0.0,0.0,0.0,0.0,0.0,0.0,0.0,0.0,0.0,0.0,0.0,0.0,0.0,0.0,0.0,0.0,0.0,0.0,0.0,0.0,0.0,0.0,0.0,0.0,0.0,0.0,0.0,0.0,0.0,0.0,0.0,0.0,0.0,0.0,0.0,0.0,0.0,0.0,0.0,0.0,0.0,0.0,0.0,0.0,0.0,0.0,0.0,0.0,0.0,0.0,0.0,0.0,0.0,0.0,0.0,0.0,0.0,0.0,0.0,0.0,0.0,0.0,0.0,0.0,0.0,0.0,0.2105,8.7521,0.9044,13.3057,-1.0986,-12.7563,83.3972,-1.3129,-22.2693,0.6543,0.1201,-0.1517,0.7311,2.0385,9.3263,-0.6986,76.7212,55.481,-5.0049,94.5319,1.3129,-29.6906,0.708,0.1957,-0.1657,0.6581,-0.2058,9.3502,-2.9381,18.8599,18.7378,-11.7798,103.6395,-0.2692,-27.5922,0.7637,0.186,-0.1492,0.5999,-0.8805,0.7321,9.9005,3.418,3.2349,1.2207,3.8452,5.4657,-86.0339,-0.008,0.0577,-0.6799,0.731,0.067,9.8909,-1.8136,-123.0469,41.0156,29.6631,85.2594,-5.614,-23.4943,0.6696,0.1024,-0.1821,0.7127,1.4595,7.6754,-7.9386,-96.4966,-5.188,16.3574,140.3558,-8.1464,-25.9277,0.9199,0.187,-0.141,0.3146,2.7945,-3.7659,8.4984,-149.4751,17.2119,33.4473,48.0542,4.8779,-96.3831,0.2422,0.3291,-0.6686,0.6212,0,0,0,0,0,0,0,0,0,0,0,0,0,0,0,0,0,0,0,0,15118,45837,0,0,0,0,18199,64782,41728,0,0,0,60681,61954,13058,0
1777289315.2099495,345311,1777289306.2623606,1777289313.3932796,1777289306.6134102,0,0,-7130.918979644775,-351.04966163635254,1,1,0.0,0.0,0.0,0.0,0.0,0.0,0.0,0.0,0.0,0.0,0.0,0.0,0.0,0.0,0.0,0.0,0.0,0.0,0.0,0.0,0.0,0.0,0.0,0.0,0.0,0.0,0.0,0.0,0.0,0.0,0.0,0.0,0.0,0.0,0.0,0.0,0.0,0.0,0.0,0.0,0.0,0.0,0.0,0.0,0.0,0.0,0.0,0.0,0.0,0.0,0.0,0.0,0.0,0.0,0.0,0.0,0.0,0.0,0.0,0.0,0.0,0.0,0.0,0.0,0.0,0.0,0.0,0.0,0.0,0.0,0.0,0.0,0.0,0.0,0.0,0.2105,8.7521,0.9044,13.3057,-1.0986,-12.7563,83.3972,-1.3129,-22.2693,0.6543,0.1201,-0.1517,0.7311,2.0385,9.3263,-0.6986,76.7212,55.481,-5.0049,94.5319,1.3129,-29.6906,0.708,0.1957,-0.1657,0.6581,-0.2058,9.3502,-2.9381,18.8599,18.7378,-11.7798,103.6395,-0.2692,-27.5922,0.7637,0.186,-0.1492,0.5999,-0.8805,0.7321,9.9005,3.418,3.2349,1.2207,3.8452,5.4657,-86.0339,-0.008,0.0577,-0.6799,0.731,0.067,9.8909,-1.8136,-123.0469,41.0156,29.6631,85.2594,-5.614,-23.4943,0.6696,0.1024,-0.1821,0.7127,1.4595,7.6754,-7.9386,-96.4966,-5.188,16.3574,140.3558,-8.1464,-25.9277,0.9199,0.187,-0.141,0.3146,2.7945,-3.7659,8.4984,-149.4751,17.2119,33.4473,48.0542,4.8779,-96.3831,0.2422,0.3291,-0.6686,0.6212,0,0,0,0,0,0,0,0,0,0,0,0,0,0,0,0,0,0,0,0,15118,45837,0,0,0,0,18199,64782,41728,0,0,0,60681,61954,13058,0
1777289315.2099495,345312,1777289306.2730348,1777289313.3932796,1777289306.6134102,0,0,-7120.244741439819,-340.3754234313965,1,1,0.0,0.0,0.0,0.0,0.0,0.0,0.0,0.0,0.0,0.0,0.0,0.0,0.0,0.0,0.0,0.0,0.0,0.0,0.0,0.0,0.0,0.0,0.0,0.0,0.0,0.0,0.0,0.0,0.0,0.0,0.0,0.0,0.0,0.0,0.0,0.0,0.0,0.0,0.0,0.0,0.0,0.0,0.0,0.0,0.0,0.0,0.0,0.0,0.0,0.0,0.0,0.0,0.0,0.0,0.0,0.0,0.0,0.0,0.0,0.0,0.0,0.0,0.0,0.0,0.0,0.0,0.0,0.0,0.0,0.0,0.0,0.0,0.0,0.0,0.0,0.2105,8.7521,0.9044,13.3057,-1.0986,-12.7563,83.3972,-1.3129,-22.2693,0.6543,0.1201,-0.1517,0.7311,2.0385,9.3263,-0.6986,76.7212,55.481,-5.0049,94.5319,1.3129,-29.6906,0.708,0.1957,-0.1657,0.6581,-0.2058,9.3502,-2.9381,18.8599,18.7378,-11.7798,103.6395,-0.2692,-27.5922,0.7637,0.186,-0.1492,0.5999,-0.8805,0.7321,9.9005,3.418,3.2349,1.2207,3.8452,5.4657,-86.0339,-0.008,0.0577,-0.6799,0.731,0.067,9.8909,-1.8136,-123.0469,41.0156,29.6631,85.2594,-5.614,-23.4943,0.6696,0.1024,-0.1821,0.7127,1.4595,7.6754,-7.9386,-96.4966,-5.188,16.3574,140.3558,-8.1464,-25.9277,0.9199,0.187,-0.141,0.3146,2.7945,-3.7659,8.4984,-149.4751,17.2119,33.4473,48.0542,4.8779,-96.3831,0.2422,0.3291,-0.6686,0.6212,0,0,0,0,0,0,0,0,0,0,0,0,0,0,0,0,0,0,0,0,15118,45837,0,0,0,0,18199,64782,41728,0,0,0,60681,61954,13058,0
1777289315.2099495,345313,1777289306.2842453,1777289313.3932796,1777289306.6134102,0,0,-7109.034299850464,-329.164981842041,1,1,0.0,0.0,0.0,0.0,0.0,0.0,0.0,0.0,0.0,0.0,0.0,0.0,0.0,0.0,0.0,0.0,0.0,0.0,0.0,0.0,0.0,0.0,0.0,0.0,0.0,0.0,0.0,0.0,0.0,0.0,0.0,0.0,0.0,0.0,0.0,0.0,0.0,0.0,0.0,0.0,0.0,0.0,0.0,0.0,0.0,0.0,0.0,0.0,0.0,0.0,0.0,0.0,0.0,0.0,0.0,0.0,0.0,0.0,0.0,0.0,0.0,0.0,0.0,0.0,0.0,0.0,0.0,0.0,0.0,0.0,0.0,0.0,0.0,0.0,0.0,0.2105,8.7521,0.9044,13.3057,-1.0986,-12.7563,83.3972,-1.3129,-22.2693,0.6543,0.1201,-0.1517,0.7311,2.0385,9.3263,-0.6986,76.7212,55.481,-5.0049,94.5319,1.3129,-29.6906,0.708,0.1957,-0.1657,0.6581,-0.2058,9.3502,-2.9381,18.8599,18.7378,-11.7798,103.6395,-0.2692,-27.5922,0.7637,0.186,-0.1492,0.5999,-0.8805,0.7321,9.9005,3.418,3.2349,1.2207,3.8452,5.4657,-86.0339,-0.008,0.0577,-0.6799,0.731,0.067,9.8909,-1.8136,-123.0469,41.0156,29.6631,85.2594,-5.614,-23.4943,0.6696,0.1024,-0.1821,0.7127,1.4595,7.6754,-7.9386,-96.4966,-5.188,16.3574,140.3558,-8.1464,-25.9277,0.9199,0.187,-0.141,0.3146,2.7945,-3.7659,8.4984,-149.4751,17.2119,33.4473,48.0542,4.8779,-96.3831,0.2422,0.3291,-0.6686,0.6212,0,0,0,0,0,0,0,0,0,0,0,0,0,0,0,0,0,0,0,0,15118,45837,0,0,0,0,18199,64782,41728,0,0,0,60681,61954,13058,0
1777289315.2099495,345314,1777289306.2931306,1777289313.3932796,1777289306.6134102,0,0,-7100.148916244507,-320.279598236084,1,1,0.0,0.0,0.0,0.0,0.0,0.0,0.0,0.0,0.0,0.0,0.0,0.0,0.0,0.0,0.0,0.0,0.0,0.0,0.0,0.0,0.0,0.0,0.0,0.0,0.0,0.0,0.0,0.0,0.0,0.0,0.0,0.0,0.0,0.0,0.0,0.0,0.0,0.0,0.0,0.0,0.0,0.0,0.0,0.0,0.0,0.0,0.0,0.0,0.0,0.0,0.0,0.0,0.0,0.0,0.0,0.0,0.0,0.0,0.0,0.0,0.0,0.0,0.0,0.0,0.0,0.0,0.0,0.0,0.0,0.0,0.0,0.0,0.0,0.0,0.0,0.2105,8.7521,0.9044,13.3057,-1.0986,-12.7563,83.3972,-1.3129,-22.2693,0.6543,0.1201,-0.1517,0.7311,2.0385,9.3263,-0.6986,76.7212,55.481,-5.0049,94.5319,1.3129,-29.6906,0.708,0.1957,-0.1657,0.6581,-0.2058,9.3502,-2.9381,18.8599,18.7378,-11.7798,103.6395,-0.2692,-27.5922,0.7637,0.186,-0.1492,0.5999,-0.8805,0.7321,9.9005,3.418,3.2349,1.2207,3.8452,5.4657,-86.0339,-0.008,0.0577,-0.6799,0.731,0.067,9.8909,-1.8136,-123.0469,41.0156,29.6631,85.2594,-5.614,-23.4943,0.6696,0.1024,-0.1821,0.7127,1.4595,7.6754,-7.9386,-96.4966,-5.188,16.3574,140.3558,-8.1464,-25.9277,0.9199,0.187,-0.141,0.3146,2.7945,-3.7659,8.4984,-149.4751,17.2119,33.4473,48.0542,4.8779,-96.3831,0.2422,0.3291,-0.6686,0.6212,0,0,0,0,0,0,0,0,0,0,0,0,0,0,0,0,0,0,0,0,15118,45837,0,0,0,0,18199,64782,41728,0,0,0,60681,61954,13058,0
1777289315.2109406,345315,1777289306.3032763,1777289313.3932796,1777289306.6134102,0,0,-7090.003252029419,-310.1339340209961,1,1,0.0,0.0,0.0,0.0,0.0,0.0,0.0,0.0,0.0,0.0,0.0,0.0,0.0,0.0,0.0,0.0,0.0,0.0,0.0,0.0,0.0,0.0,0.0,0.0,0.0,0.0,0.0,0.0,0.0,0.0,0.0,0.0,0.0,0.0,0.0,0.0,0.0,0.0,0.0,0.0,0.0,0.0,0.0,0.0,0.0,0.0,0.0,0.0,0.0,0.0,0.0,0.0,0.0,0.0,0.0,0.0,0.0,0.0,0.0,0.0,0.0,0.0,0.0,0.0,0.0,0.0,0.0,0.0,0.0,0.0,0.0,0.0,0.0,0.0,0.0,0.2105,8.7521,0.9044,13.3057,-1.0986,-12.7563,83.3972,-1.3129,-22.2693,0.6543,0.1201,-0.1517,0.7311,2.0385,9.3263,-0.6986,76.7212,55.481,-5.0049,94.5319,1.3129,-29.6906,0.708,0.1957,-0.1657,0.6581,-0.2058,9.3502,-2.9381,18.8599,18.7378,-11.7798,103.6395,-0.2692,-27.5922,0.7637,0.186,-0.1492,0.5999,-0.8805,0.7321,9.9005,3.418,3.2349,1.2207,3.8452,5.4657,-86.0339,-0.008,0.0577,-0.6799,0.731,0.067,9.8909,-1.8136,-123.0469,41.0156,29.6631,85.2594,-5.614,-23.4943,0.6696,0.1024,-0.1821,0.7127,1.4595,7.6754,-7.9386,-96.4966,-5.188,16.3574,140.3558,-8.1464,-25.9277,0.9199,0.187,-0.141,0.3146,2.7945,-3.7659,8.4984,-149.4751,17.2119,33.4473,48.0542,4.8779,-96.3831,0.2422,0.3291,-0.6686,0.6212,0,0,0,0,0,0,0,0,0,0,0,0,0,0,0,0,0,0,0,0,15118,45837,0,0,0,0,18199,64782,41728,0,0,0,60681,61954,13058,0
1777289315.2109406,345316,1777289306.3254874,1777289313.3932796,1777289306.6134102,0,0,-7067.792177200317,-287.92285919189453,1,1,0.0,0.0,0.0,0.0,0.0,0.0,0.0,0.0,0.0,0.0,0.0,0.0,0.0,0.0,0.0,0.0,0.0,0.0,0.0,0.0,0.0,0.0,0.0,0.0,0.0,0.0,0.0,0.0,0.0,0.0,0.0,0.0,0.0,0.0,0.0,0.0,0.0,0.0,0.0,0.0,0.0,0.0,0.0,0.0,0.0,0.0,0.0,0.0,0.0,0.0,0.0,0.0,0.0,0.0,0.0,0.0,0.0,0.0,0.0,0.0,0.0,0.0,0.0,0.0,0.0,0.0,0.0,0.0,0.0,0.0,0.0,0.0,0.0,0.0,0.0,0.2105,8.7521,0.9044,13.3057,-1.0986,-12.7563,83.3972,-1.3129,-22.2693,0.6543,0.1201,-0.1517,0.7311,2.0385,9.3263,-0.6986,76.7212,55.481,-5.0049,94.5319,1.3129,-29.6906,0.708,0.1957,-0.1657,0.6581,-0.2058,9.3502,-2.9381,18.8599,18.7378,-11.7798,103.6395,-0.2692,-27.5922,0.7637,0.186,-0.1492,0.5999,-0.8805,0.7321,9.9005,3.418,3.2349,1.2207,3.8452,5.4657,-86.0339,-0.008,0.0577,-0.6799,0.731,0.067,9.8909,-1.8136,-123.0469,41.0156,29.6631,85.2594,-5.614,-23.4943,0.6696,0.1024,-0.1821,0.7127,1.4595,7.6754,-7.9386,-96.4966,-5.188,16.3574,140.3558,-8.1464,-25.9277,0.9199,0.187,-0.141,0.3146,2.7945,-3.7659,8.4984,-149.4751,17.2119,33.4473,48.0542,4.8779,-96.3831,0.2422,0.3291,-0.6686,0.6212,0,0,0,0,0,0,0,0,0,0,0,0,0,0,0,0,0,0,0,0,15118,45837,0,0,0,0,18199,64782,41728,0,0,0,60681,61954,13058,0
1777289315.2109406,345317,1777289306.3264966,1777289313.3932796,1777289306.6134102,0,0,-7066.7829513549805,-286.9136333465576,1,1,0.0,0.0,0.0,0.0,0.0,0.0,0.0,0.0,0.0,0.0,0.0,0.0,0.0,0.0,0.0,0.0,0.0,0.0,0.0,0.0,0.0,0.0,0.0,0.0,0.0,0.0,0.0,0.0,0.0,0.0,0.0,0.0,0.0,0.0,0.0,0.0,0.0,0.0,0.0,0.0,0.0,0.0,0.0,0.0,0.0,0.0,0.0,0.0,0.0,0.0,0.0,0.0,0.0,0.0,0.0,0.0,0.0,0.0,0.0,0.0,0.0,0.0,0.0,0.0,0.0,0.0,0.0,0.0,0.0,0.0,0.0,0.0,0.0,0.0,0.0,0.2105,8.7521,0.9044,13.3057,-1.0986,-12.7563,83.3972,-1.3129,-22.2693,0.6543,0.1201,-0.1517,0.7311,2.0385,9.3263,-0.6986,76.7212,55.481,-5.0049,94.5319,1.3129,-29.6906,0.708,0.1957,-0.1657,0.6581,-0.2058,9.3502,-2.9381,18.8599,18.7378,-11.7798,103.6395,-0.2692,-27.5922,0.7637,0.186,-0.1492,0.5999,-0.8805,0.7321,9.9005,3.418,3.2349,1.2207,3.8452,5.4657,-86.0339,-0.008,0.0577,-0.6799,0.731,0.067,9.8909,-1.8136,-123.0469,41.0156,29.6631,85.2594,-5.614,-23.4943,0.6696,0.1024,-0.1821,0.7127,1.4595,7.6754,-7.9386,-96.4966,-5.188,16.3574,140.3558,-8.1464,-25.9277,0.9199,0.187,-0.141,0.3146,2.7945,-3.7659,8.4984,-149.4751,17.2119,33.4473,48.0542,4.8779,-96.3831,0.2422,0.3291,-0.6686,0.6212,0,0,0,0,0,0,0,0,0,0,0,0,0,0,0,0,0,0,0,0,15118,45837,0,0,0,0,18199,64782,41728,0,0,0,60681,61954,13058,0
1777289315.2109406,345318,1777289306.3323288,1777289313.3932796,1777289306.6134102,0,0,-7060.950756072998,-281.0814380645752,1,1,0.0,0.0,0.0,0.0,0.0,0.0,0.0,0.0,0.0,0.0,0.0,0.0,0.0,0.0,0.0,0.0,0.0,0.0,0.0,0.0,0.0,0.0,0.0,0.0,0.0,0.0,0.0,0.0,0.0,0.0,0.0,0.0,0.0,0.0,0.0,0.0,0.0,0.0,0.0,0.0,0.0,0.0,0.0,0.0,0.0,0.0,0.0,0.0,0.0,0.0,0.0,0.0,0.0,0.0,0.0,0.0,0.0,0.0,0.0,0.0,0.0,0.0,0.0,0.0,0.0,0.0,0.0,0.0,0.0,0.0,0.0,0.0,0.0,0.0,0.0,0.2105,8.7521,0.9044,13.3057,-1.0986,-12.7563,83.3972,-1.3129,-22.2693,0.6543,0.1201,-0.1517,0.7311,2.0385,9.3263,-0.6986,76.7212,55.481,-5.0049,94.5319,1.3129,-29.6906,0.708,0.1957,-0.1657,0.6581,-0.2058,9.3502,-2.9381,18.8599,18.7378,-11.7798,103.6395,-0.2692,-27.5922,0.7637,0.186,-0.1492,0.5999,-0.8805,0.7321,9.9005,3.418,3.2349,1.2207,3.8452,5.4657,-86.0339,-0.008,0.0577,-0.6799,0.731,0.067,9.8909,-1.8136,-123.0469,41.0156,29.6631,85.2594,-5.614,-23.4943,0.6696,0.1024,-0.1821,0.7127,1.4595,7.6754,-7.9386,-96.4966,-5.188,16.3574,140.3558,-8.1464,-25.9277,0.9199,0.187,-0.141,0.3146,2.7945,-3.7659,8.4984,-149.4751,17.2119,33.4473,48.0542,4.8779,-96.3831,0.2422,0.3291,-0.6686,0.6212,0,0,0,0,0,0,0,0,0,0,0,0,0,0,0,0,0,0,0,0,15118,45837,0,0,0,0,18199,64782,41728,0,0,0,60681,61954,13058,0
1777289315.2109406,345319,1777289306.343299,1777289313.3932796,1777289306.6134102,0,0,-7049.980640411377,-270.1113224029541,1,1,0.0,0.0,0.0,0.0,0.0,0.0,0.0,0.0,0.0,0.0,0.0,0.0,0.0,0.0,0.0,0.0,0.0,0.0,0.0,0.0,0.0,0.0,0.0,0.0,0.0,0.0,0.0,0.0,0.0,0.0,0.0,0.0,0.0,0.0,0.0,0.0,0.0,0.0,0.0,0.0,0.0,0.0,0.0,0.0,0.0,0.0,0.0,0.0,0.0,0.0,0.0,0.0,0.0,0.0,0.0,0.0,0.0,0.0,0.0,0.0,0.0,0.0,0.0,0.0,0.0,0.0,0.0,0.0,0.0,0.0,0.0,0.0,0.0,0.0,0.0,0.2105,8.7521,0.9044,13.3057,-1.0986,-12.7563,83.3972,-1.3129,-22.2693,0.6543,0.1201,-0.1517,0.7311,2.0385,9.3263,-0.6986,76.7212,55.481,-5.0049,94.5319,1.3129,-29.6906,0.708,0.1957,-0.1657,0.6581,-0.2058,9.3502,-2.9381,18.8599,18.7378,-11.7798,103.6395,-0.2692,-27.5922,0.7637,0.186,-0.1492,0.5999,-0.8805,0.7321,9.9005,3.418,3.2349,1.2207,3.8452,5.4657,-86.0339,-0.008,0.0577,-0.6799,0.731,0.067,9.8909,-1.8136,-123.0469,41.0156,29.6631,85.2594,-5.614,-23.4943,0.6696,0.1024,-0.1821,0.7127,1.4595,7.6754,-7.9386,-96.4966,-5.188,16.3574,140.3558,-8.1464,-25.9277,0.9199,0.187,-0.141,0.3146,2.7945,-3.7659,8.4984,-149.4751,17.2119,33.4473,48.0542,4.8779,-96.3831,0.2422,0.3291,-0.6686,0.6212,0,0,0,0,0,0,0,0,0,0,0,0,0,0,0,0,0,0,0,0,15118,45837,0,0,0,0,18199,64782,41728,0,0,0,60681,61954,13058,0
1777289315.2109406,345320,1777289306.3535492,1777289313.3932796,1777289306.6134102,0,0,-7039.7303104400635,-259.8609924316406,1,1,0.0,0.0,0.0,0.0,0.0,0.0,0.0,0.0,0.0,0.0,0.0,0.0,0.0,0.0,0.0,0.0,0.0,0.0,0.0,0.0,0.0,0.0,0.0,0.0,0.0,0.0,0.0,0.0,0.0,0.0,0.0,0.0,0.0,0.0,0.0,0.0,0.0,0.0,0.0,0.0,0.0,0.0,0.0,0.0,0.0,0.0,0.0,0.0,0.0,0.0,0.0,0.0,0.0,0.0,0.0,0.0,0.0,0.0,0.0,0.0,0.0,0.0,0.0,0.0,0.0,0.0,0.0,0.0,0.0,0.0,0.0,0.0,0.0,0.0,0.0,0.2105,8.7521,0.9044,13.3057,-1.0986,-12.7563,83.3972,-1.3129,-22.2693,0.6543,0.1201,-0.1517,0.7311,2.0385,9.3263,-0.6986,76.7212,55.481,-5.0049,94.5319,1.3129,-29.6906,0.708,0.1957,-0.1657,0.6581,-0.2058,9.3502,-2.9381,18.8599,18.7378,-11.7798,103.6395,-0.2692,-27.5922,0.7637,0.186,-0.1492,0.5999,-0.8805,0.7321,9.9005,3.418,3.2349,1.2207,3.8452,5.4657,-86.0339,-0.008,0.0577,-0.6799,0.731,0.067,9.8909,-1.8136,-123.0469,41.0156,29.6631,85.2594,-5.614,-23.4943,0.6696,0.1024,-0.1821,0.7127,1.4595,7.6754,-7.9386,-96.4966,-5.188,16.3574,140.3558,-8.1464,-25.9277,0.9199,0.187,-0.141,0.3146,2.7945,-3.7659,8.4984,-149.4751,17.2119,33.4473,48.0542,4.8779,-96.3831,0.2422,0.3291,-0.6686,0.6212,0,0,0,0,0,0,0,0,0,0,0,0,0,0,0,0,0,0,0,0,15118,45837,0,0,0,0,18199,64782,41728,0,0,0,60681,61954,13058,0
1777289315.2109406,345321,1777289306.3631723,1777289313.3932796,1777289306.6134102,0,0,-7030.107259750366,-250.23794174194336,1,1,0.0,0.0,0.0,0.0,0.0,0.0,0.0,0.0,0.0,0.0,0.0,0.0,0.0,0.0,0.0,0.0,0.0,0.0,0.0,0.0,0.0,0.0,0.0,0.0,0.0,0.0,0.0,0.0,0.0,0.0,0.0,0.0,0.0,0.0,0.0,0.0,0.0,0.0,0.0,0.0,0.0,0.0,0.0,0.0,0.0,0.0,0.0,0.0,0.0,0.0,0.0,0.0,0.0,0.0,0.0,0.0,0.0,0.0,0.0,0.0,0.0,0.0,0.0,0.0,0.0,0.0,0.0,0.0,0.0,0.0,0.0,0.0,0.0,0.0,0.0,0.2105,8.7521,0.9044,13.3057,-1.0986,-12.7563,83.3972,-1.3129,-22.2693,0.6543,0.1201,-0.1517,0.7311,2.0385,9.3263,-0.6986,76.7212,55.481,-5.0049,94.5319,1.3129,-29.6906,0.708,0.1957,-0.1657,0.6581,-0.2058,9.3502,-2.9381,18.8599,18.7378,-11.7798,103.6395,-0.2692,-27.5922,0.7637,0.186,-0.1492,0.5999,-0.8805,0.7321,9.9005,3.418,3.2349,1.2207,3.8452,5.4657,-86.0339,-0.008,0.0577,-0.6799,0.731,0.067,9.8909,-1.8136,-123.0469,41.0156,29.6631,85.2594,-5.614,-23.4943,0.6696,0.1024,-0.1821,0.7127,1.4595,7.6754,-7.9386,-96.4966,-5.188,16.3574,140.3558,-8.1464,-25.9277,0.9199,0.187,-0.141,0.3146,2.7945,-3.7659,8.4984,-149.4751,17.2119,33.4473,48.0542,4.8779,-96.3831,0.2422,0.3291,-0.6686,0.6212,0,0,0,0,0,0,0,0,0,0,0,0,0,0,0,0,0,0,0,0,15118,45837,0,0,0,0,18199,64782,41728,0,0,0,60681,61954,13058,0
1777289315.2109406,345322,1777289306.3732781,1777289313.3932796,1777289306.6134102,0,0,-7020.001411437988,-240.13209342956543,1,1,0.0,0.0,0.0,0.0,0.0,0.0,0.0,0.0,0.0,0.0,0.0,0.0,0.0,0.0,0.0,0.0,0.0,0.0,0.0,0.0,0.0,0.0,0.0,0.0,0.0,0.0,0.0,0.0,0.0,0.0,0.0,0.0,0.0,0.0,0.0,0.0,0.0,0.0,0.0,0.0,0.0,0.0,0.0,0.0,0.0,0.0,0.0,0.0,0.0,0.0,0.0,0.0,0.0,0.0,0.0,0.0,0.0,0.0,0.0,0.0,0.0,0.0,0.0,0.0,0.0,0.0,0.0,0.0,0.0,0.0,0.0,0.0,0.0,0.0,0.0,0.2105,8.7521,0.9044,13.3057,-1.0986,-12.7563,83.3972,-1.3129,-22.2693,0.6543,0.1201,-0.1517,0.7311,2.0385,9.3263,-0.6986,76.7212,55.481,-5.0049,94.5319,1.3129,-29.6906,0.708,0.1957,-0.1657,0.6581,-0.2058,9.3502,-2.9381,18.8599,18.7378,-11.7798,103.6395,-0.2692,-27.5922,0.7637,0.186,-0.1492,0.5999,-0.8805,0.7321,9.9005,3.418,3.2349,1.2207,3.8452,5.4657,-86.0339,-0.008,0.0577,-0.6799,0.731,0.067,9.8909,-1.8136,-123.0469,41.0156,29.6631,85.2594,-5.614,-23.4943,0.6696,0.1024,-0.1821,0.7127,1.4595,7.6754,-7.9386,-96.4966,-5.188,16.3574,140.3558,-8.1464,-25.9277,0.9199,0.187,-0.141,0.3146,2.7945,-3.7659,8.4984,-149.4751,17.2119,33.4473,48.0542,4.8779,-96.3831,0.2422,0.3291,-0.6686,0.6212,0,0,0,0,0,0,0,0,0,0,0,0,0,0,0,0,0,0,0,0,15118,45837,0,0,0,0,18199,64782,41728,0,0,0,60681,61954,13058,0
1777289315.2109406,345323,1777289306.3830702,1777289313.3932796,1777289306.6134102,0,0,-7010.209321975708,-230.34000396728516,1,1,0.0,0.0,0.0,0.0,0.0,0.0,0.0,0.0,0.0,0.0,0.0,0.0,0.0,0.0,0.0,0.0,0.0,0.0,0.0,0.0,0.0,0.0,0.0,0.0,0.0,0.0,0.0,0.0,0.0,0.0,0.0,0.0,0.0,0.0,0.0,0.0,0.0,0.0,0.0,0.0,0.0,0.0,0.0,0.0,0.0,0.0,0.0,0.0,0.0,0.0,0.0,0.0,0.0,0.0,0.0,0.0,0.0,0.0,0.0,0.0,0.0,0.0,0.0,0.0,0.0,0.0,0.0,0.0,0.0,0.0,0.0,0.0,0.0,0.0,0.0,0.2105,8.7521,0.9044,13.3057,-1.0986,-12.7563,83.3972,-1.3129,-22.2693,0.6543,0.1201,-0.1517,0.7311,2.0385,9.3263,-0.6986,76.7212,55.481,-5.0049,94.5319,1.3129,-29.6906,0.708,0.1957,-0.1657,0.6581,-0.2058,9.3502,-2.9381,18.8599,18.7378,-11.7798,103.6395,-0.2692,-27.5922,0.7637,0.186,-0.1492,0.5999,-0.8805,0.7321,9.9005,3.418,3.2349,1.2207,3.8452,5.4657,-86.0339,-0.008,0.0577,-0.6799,0.731,0.067,9.8909,-1.8136,-123.0469,41.0156,29.6631,85.2594,-5.614,-23.4943,0.6696,0.1024,-0.1821,0.7127,1.4595,7.6754,-7.9386,-96.4966,-5.188,16.3574,140.3558,-8.1464,-25.9277,0.9199,0.187,-0.141,0.3146,2.7945,-3.7659,8.4984,-149.4751,17.2119,33.4473,48.0542,4.8779,-96.3831,0.2422,0.3291,-0.6686,0.6212,0,0,0,0,0,0,0,0,0,0,0,0,0,0,0,0,0,0,0,0,15118,45837,0,0,0,0,18199,64782,41728,0,0,0,60681,61954,13058,0
1777289315.2109406,345324,1777289306.3932564,1777289313.3932796,1777289306.6134102,0,0,-7000.023126602173,-220.15380859375,1,1,0.0,0.0,0.0,0.0,0.0,0.0,0.0,0.0,0.0,0.0,0.0,0.0,0.0,0.0,0.0,0.0,0.0,0.0,0.0,0.0,0.0,0.0,0.0,0.0,0.0,0.0,0.0,0.0,0.0,0.0,0.0,0.0,0.0,0.0,0.0,0.0,0.0,0.0,0.0,0.0,0.0,0.0,0.0,0.0,0.0,0.0,0.0,0.0,0.0,0.0,0.0,0.0,0.0,0.0,0.0,0.0,0.0,0.0,0.0,0.0,0.0,0.0,0.0,0.0,0.0,0.0,0.0,0.0,0.0,0.0,0.0,0.0,0.0,0.0,0.0,0.2105,8.7521,0.9044,13.3057,-1.0986,-12.7563,83.3972,-1.3129,-22.2693,0.6543,0.1201,-0.1517,0.7311,2.0385,9.3263,-0.6986,76.7212,55.481,-5.0049,94.5319,1.3129,-29.6906,0.708,0.1957,-0.1657,0.6581,-0.2058,9.3502,-2.9381,18.8599,18.7378,-11.7798,103.6395,-0.2692,-27.5922,0.7637,0.186,-0.1492,0.5999,-0.8805,0.7321,9.9005,3.418,3.2349,1.2207,3.8452,5.4657,-86.0339,-0.008,0.0577,-0.6799,0.731,0.067,9.8909,-1.8136,-123.0469,41.0156,29.6631,85.2594,-5.614,-23.4943,0.6696,0.1024,-0.1821,0.7127,1.4595,7.6754,-7.9386,-96.4966,-5.188,16.3574,140.3558,-8.1464,-25.9277,0.9199,0.187,-0.141,0.3146,2.7945,-3.7659,8.4984,-149.4751,17.2119,33.4473,48.0542,4.8779,-96.3831,0.2422,0.3291,-0.6686,0.6212,0,0,0,0,0,0,0,0,0,0,0,0,0,0,0,0,0,0,0,0,15118,45837,0,0,0,0,18199,64782,41728,0,0,0,60681,61954,13058,0
1777289315.2119405,345325,1777289306.402599,1777289313.3932796,1777289306.6134102,0,0,-6990.680456161499,-210.81113815307617,1,1,0.0,0.0,0.0,0.0,0.0,0.0,0.0,0.0,0.0,0.0,0.0,0.0,0.0,0.0,0.0,0.0,0.0,0.0,0.0,0.0,0.0,0.0,0.0,0.0,0.0,0.0,0.0,0.0,0.0,0.0,0.0,0.0,0.0,0.0,0.0,0.0,0.0,0.0,0.0,0.0,0.0,0.0,0.0,0.0,0.0,0.0,0.0,0.0,0.0,0.0,0.0,0.0,0.0,0.0,0.0,0.0,0.0,0.0,0.0,0.0,0.0,0.0,0.0,0.0,0.0,0.0,0.0,0.0,0.0,0.0,0.0,0.0,0.0,0.0,0.0,0.2105,8.7521,0.9044,13.3057,-1.0986,-12.7563,83.3972,-1.3129,-22.2693,0.6543,0.1201,-0.1517,0.7311,2.0385,9.3263,-0.6986,76.7212,55.481,-5.0049,94.5319,1.3129,-29.6906,0.708,0.1957,-0.1657,0.6581,-0.2058,9.3502,-2.9381,18.8599,18.7378,-11.7798,103.6395,-0.2692,-27.5922,0.7637,0.186,-0.1492,0.5999,-0.8805,0.7321,9.9005,3.418,3.2349,1.2207,3.8452,5.4657,-86.0339,-0.008,0.0577,-0.6799,0.731,0.067,9.8909,-1.8136,-123.0469,41.0156,29.6631,85.2594,-5.614,-23.4943,0.6696,0.1024,-0.1821,0.7127,1.4595,7.6754,-7.9386,-96.4966,-5.188,16.3574,140.3558,-8.1464,-25.9277,0.9199,0.187,-0.141,0.3146,2.7945,-3.7659,8.4984,-149.4751,17.2119,33.4473,48.0542,4.8779,-96.3831,0.2422,0.3291,-0.6686,0.6212,0,0,0,0,0,0,0,0,0,0,0,0,0,0,0,0,0,0,0,0,15118,45837,0,0,0,0,18199,64782,41728,0,0,0,60681,61954,13058,0
1777289315.2119405,345326,1777289306.419825,1777289313.3932796,1777289306.6134102,0,0,-6973.454475402832,-193.58515739440918,1,1,0.0,0.0,0.0,0.0,0.0,0.0,0.0,0.0,0.0,0.0,0.0,0.0,0.0,0.0,0.0,0.0,0.0,0.0,0.0,0.0,0.0,0.0,0.0,0.0,0.0,0.0,0.0,0.0,0.0,0.0,0.0,0.0,0.0,0.0,0.0,0.0,0.0,0.0,0.0,0.0,0.0,0.0,0.0,0.0,0.0,0.0,0.0,0.0,0.0,0.0,0.0,0.0,0.0,0.0,0.0,0.0,0.0,0.0,0.0,0.0,0.0,0.0,0.0,0.0,0.0,0.0,0.0,0.0,0.0,0.0,0.0,0.0,0.0,0.0,0.0,0.2105,8.7521,0.9044,13.3057,-1.0986,-12.7563,83.3972,-1.3129,-22.2693,0.6543,0.1201,-0.1517,0.7311,2.0385,9.3263,-0.6986,76.7212,55.481,-5.0049,94.5319,1.3129,-29.6906,0.708,0.1957,-0.1657,0.6581,-0.2058,9.3502,-2.9381,18.8599,18.7378,-11.7798,103.6395,-0.2692,-27.5922,0.7637,0.186,-0.1492,0.5999,-0.8805,0.7321,9.9005,3.418,3.2349,1.2207,3.8452,5.4657,-86.0339,-0.008,0.0577,-0.6799,0.731,0.067,9.8909,-1.8136,-123.0469,41.0156,29.6631,85.2594,-5.614,-23.4943,0.6696,0.1024,-0.1821,0.7127,1.4595,7.6754,-7.9386,-96.4966,-5.188,16.3574,140.3558,-8.1464,-25.9277,0.9199,0.187,-0.141,0.3146,2.7945,-3.7659,8.4984,-149.4751,17.2119,33.4473,48.0542,4.8779,-96.3831,0.2422,0.3291,-0.6686,0.6212,0,0,0,0,0,0,0,0,0,0,0,0,0,0,0,0,0,0,0,0,15118,45837,0,0,0,0,18199,64782,41728,0,0,0,60681,61954,13058,0
1777289315.2119405,345327,1777289306.4208293,1777289313.3932796,1777289306.6134102,0,0,-6972.450256347656,-192.5809383392334,1,1,0.0,0.0,0.0,0.0,0.0,0.0,0.0,0.0,0.0,0.0,0.0,0.0,0.0,0.0,0.0,0.0,0.0,0.0,0.0,0.0,0.0,0.0,0.0,0.0,0.0,0.0,0.0,0.0,0.0,0.0,0.0,0.0,0.0,0.0,0.0,0.0,0.0,0.0,0.0,0.0,0.0,0.0,0.0,0.0,0.0,0.0,0.0,0.0,0.0,0.0,0.0,0.0,0.0,0.0,0.0,0.0,0.0,0.0,0.0,0.0,0.0,0.0,0.0,0.0,0.0,0.0,0.0,0.0,0.0,0.0,0.0,0.0,0.0,0.0,0.0,0.2105,8.7521,0.9044,13.3057,-1.0986,-12.7563,83.3972,-1.3129,-22.2693,0.6543,0.1201,-0.1517,0.7311,2.0385,9.3263,-0.6986,76.7212,55.481,-5.0049,94.5319,1.3129,-29.6906,0.708,0.1957,-0.1657,0.6581,-0.2058,9.3502,-2.9381,18.8599,18.7378,-11.7798,103.6395,-0.2692,-27.5922,0.7637,0.186,-0.1492,0.5999,-0.8805,0.7321,9.9005,3.418,3.2349,1.2207,3.8452,5.4657,-86.0339,-0.008,0.0577,-0.6799,0.731,0.067,9.8909,-1.8136,-123.0469,41.0156,29.6631,85.2594,-5.614,-23.4943,0.6696,0.1024,-0.1821,0.7127,1.4595,7.6754,-7.9386,-96.4966,-5.188,16.3574,140.3558,-8.1464,-25.9277,0.9199,0.187,-0.141,0.3146,2.7945,-3.7659,8.4984,-149.4751,17.2119,33.4473,48.0542,4.8779,-96.3831,0.2422,0.3291,-0.6686,0.6212,0,0,0,0,0,0,0,0,0,0,0,0,0,0,0,0,0,0,0,0,15118,45837,0,0,0,0,18199,64782,41728,0,0,0,60681,61954,13058,0
1777289315.2119405,345328,1777289306.4337628,1777289313.3932796,1777289306.6134102,0,0,-6959.516763687134,-179.64744567871094,1,1,0.0,0.0,0.0,0.0,0.0,0.0,0.0,0.0,0.0,0.0,0.0,0.0,0.0,0.0,0.0,0.0,0.0,0.0,0.0,0.0,0.0,0.0,0.0,0.0,0.0,0.0,0.0,0.0,0.0,0.0,0.0,0.0,0.0,0.0,0.0,0.0,0.0,0.0,0.0,0.0,0.0,0.0,0.0,0.0,0.0,0.0,0.0,0.0,0.0,0.0,0.0,0.0,0.0,0.0,0.0,0.0,0.0,0.0,0.0,0.0,0.0,0.0,0.0,0.0,0.0,0.0,0.0,0.0,0.0,0.0,0.0,0.0,0.0,0.0,0.0,0.2105,8.7521,0.9044,13.3057,-1.0986,-12.7563,83.3972,-1.3129,-22.2693,0.6543,0.1201,-0.1517,0.7311,2.0385,9.3263,-0.6986,76.7212,55.481,-5.0049,94.5319,1.3129,-29.6906,0.708,0.1957,-0.1657,0.6581,-0.2058,9.3502,-2.9381,18.8599,18.7378,-11.7798,103.6395,-0.2692,-27.5922,0.7637,0.186,-0.1492,0.5999,-0.8805,0.7321,9.9005,3.418,3.2349,1.2207,3.8452,5.4657,-86.0339,-0.008,0.0577,-0.6799,0.731,0.067,9.8909,-1.8136,-123.0469,41.0156,29.6631,85.2594,-5.614,-23.4943,0.6696,0.1024,-0.1821,0.7127,1.4595,7.6754,-7.9386,-96.4966,-5.188,16.3574,140.3558,-8.1464,-25.9277,0.9199,0.187,-0.141,0.3146,2.7945,-3.7659,8.4984,-149.4751,17.2119,33.4473,48.0542,4.8779,-96.3831,0.2422,0.3291,-0.6686,0.6212,0,0,0,0,0,0,0,0,0,0,0,0,0,0,0,0,0,0,0,0,15118,45837,0,0,0,0,18199,64782,41728,0,0,0,60681,61954,13058,0
1777289315.2119405,345329,1777289306.4426186,1777289313.3932796,1777289306.6134102,0,0,-6950.660943984985,-170.7916259765625,1,1,0.0,0.0,0.0,0.0,0.0,0.0,0.0,0.0,0.0,0.0,0.0,0.0,0.0,0.0,0.0,0.0,0.0,0.0,0.0,0.0,0.0,0.0,0.0,0.0,0.0,0.0,0.0,0.0,0.0,0.0,0.0,0.0,0.0,0.0,0.0,0.0,0.0,0.0,0.0,0.0,0.0,0.0,0.0,0.0,0.0,0.0,0.0,0.0,0.0,0.0,0.0,0.0,0.0,0.0,0.0,0.0,0.0,0.0,0.0,0.0,0.0,0.0,0.0,0.0,0.0,0.0,0.0,0.0,0.0,0.0,0.0,0.0,0.0,0.0,0.0,0.2105,8.7521,0.9044,13.3057,-1.0986,-12.7563,83.3972,-1.3129,-22.2693,0.6543,0.1201,-0.1517,0.7311,2.0385,9.3263,-0.6986,76.7212,55.481,-5.0049,94.5319,1.3129,-29.6906,0.708,0.1957,-0.1657,0.6581,-0.2058,9.3502,-2.9381,18.8599,18.7378,-11.7798,103.6395,-0.2692,-27.5922,0.7637,0.186,-0.1492,0.5999,-0.8805,0.7321,9.9005,3.418,3.2349,1.2207,3.8452,5.4657,-86.0339,-0.008,0.0577,-0.6799,0.731,0.067,9.8909,-1.8136,-123.0469,41.0156,29.6631,85.2594,-5.614,-23.4943,0.6696,0.1024,-0.1821,0.7127,1.4595,7.6754,-7.9386,-96.4966,-5.188,16.3574,140.3558,-8.1464,-25.9277,0.9199,0.187,-0.141,0.3146,2.7945,-3.7659,8.4984,-149.4751,17.2119,33.4473,48.0542,4.8779,-96.3831,0.2422,0.3291,-0.6686,0.6212,0,0,0,0,0,0,0,0,0,0,0,0,0,0,0,0,0,0,0,0,15118,45837,0,0,0,0,18199,64782,41728,0,0,0,60681,61954,13058,0
1777289315.2119405,345330,1777289306.4538162,1777289313.3932796,1777289306.6134102,0,0,-6939.463376998901,-159.59405899047852,1,1,0.0,0.0,0.0,0.0,0.0,0.0,0.0,0.0,0.0,0.0,0.0,0.0,0.0,0.0,0.0,0.0,0.0,0.0,0.0,0.0,0.0,0.0,0.0,0.0,0.0,0.0,0.0,0.0,0.0,0.0,0.0,0.0,0.0,0.0,0.0,0.0,0.0,0.0,0.0,0.0,0.0,0.0,0.0,0.0,0.0,0.0,0.0,0.0,0.0,0.0,0.0,0.0,0.0,0.0,0.0,0.0,0.0,0.0,0.0,0.0,0.0,0.0,0.0,0.0,0.0,0.0,0.0,0.0,0.0,0.0,0.0,0.0,0.0,0.0,0.0,0.2105,8.7521,0.9044,13.3057,-1.0986,-12.7563,83.3972,-1.3129,-22.2693,0.6543,0.1201,-0.1517,0.7311,2.0385,9.3263,-0.6986,76.7212,55.481,-5.0049,94.5319,1.3129,-29.6906,0.708,0.1957,-0.1657,0.6581,-0.2058,9.3502,-2.9381,18.8599,18.7378,-11.7798,103.6395,-0.2692,-27.5922,0.7637,0.186,-0.1492,0.5999,-0.8805,0.7321,9.9005,3.418,3.2349,1.2207,3.8452,5.4657,-86.0339,-0.008,0.0577,-0.6799,0.731,0.067,9.8909,-1.8136,-123.0469,41.0156,29.6631,85.2594,-5.614,-23.4943,0.6696,0.1024,-0.1821,0.7127,1.4595,7.6754,-7.9386,-96.4966,-5.188,16.3574,140.3558,-8.1464,-25.9277,0.9199,0.187,-0.141,0.3146,2.7945,-3.7659,8.4984,-149.4751,17.2119,33.4473,48.0542,4.8779,-96.3831,0.2422,0.3291,-0.6686,0.6212,0,0,0,0,0,0,0,0,0,0,0,0,0,0,0,0,0,0,0,0,15118,45837,0,0,0,0,18199,64782,41728,0,0,0,60681,61954,13058,0
1777289315.2119405,345331,1777289306.462815,1777289313.3932796,1777289306.6134102,0,0,-6930.464506149292,-150.59518814086914,1,1,0.0,0.0,0.0,0.0,0.0,0.0,0.0,0.0,0.0,0.0,0.0,0.0,0.0,0.0,0.0,0.0,0.0,0.0,0.0,0.0,0.0,0.0,0.0,0.0,0.0,0.0,0.0,0.0,0.0,0.0,0.0,0.0,0.0,0.0,0.0,0.0,0.0,0.0,0.0,0.0,0.0,0.0,0.0,0.0,0.0,0.0,0.0,0.0,0.0,0.0,0.0,0.0,0.0,0.0,0.0,0.0,0.0,0.0,0.0,0.0,0.0,0.0,0.0,0.0,0.0,0.0,0.0,0.0,0.0,0.0,0.0,0.0,0.0,0.0,0.0,0.2105,8.7521,0.9044,13.3057,-1.0986,-12.7563,83.3972,-1.3129,-22.2693,0.6543,0.1201,-0.1517,0.7311,2.0385,9.3263,-0.6986,76.7212,55.481,-5.0049,94.5319,1.3129,-29.6906,0.708,0.1957,-0.1657,0.6581,-0.2058,9.3502,-2.9381,18.8599,18.7378,-11.7798,103.6395,-0.2692,-27.5922,0.7637,0.186,-0.1492,0.5999,-0.8805,0.7321,9.9005,3.418,3.2349,1.2207,3.8452,5.4657,-86.0339,-0.008,0.0577,-0.6799,0.731,0.067,9.8909,-1.8136,-123.0469,41.0156,29.6631,85.2594,-5.614,-23.4943,0.6696,0.1024,-0.1821,0.7127,1.4595,7.6754,-7.9386,-96.4966,-5.188,16.3574,140.3558,-8.1464,-25.9277,0.9199,0.187,-0.141,0.3146,2.7945,-3.7659,8.4984,-149.4751,17.2119,33.4473,48.0542,4.8779,-96.3831,0.2422,0.3291,-0.6686,0.6212,0,0,0,0,0,0,0,0,0,0,0,0,0,0,0,0,0,0,0,0,15118,45837,0,0,0,0,18199,64782,41728,0,0,0,60681,61954,13058,0
1777289315.2119405,345332,1777289306.473322,1777289313.3932796,1777289306.6134102,0,0,-6919.957637786865,-140.08831977844238,1,1,0.0,0.0,0.0,0.0,0.0,0.0,0.0,0.0,0.0,0.0,0.0,0.0,0.0,0.0,0.0,0.0,0.0,0.0,0.0,0.0,0.0,0.0,0.0,0.0,0.0,0.0,0.0,0.0,0.0,0.0,0.0,0.0,0.0,0.0,0.0,0.0,0.0,0.0,0.0,0.0,0.0,0.0,0.0,0.0,0.0,0.0,0.0,0.0,0.0,0.0,0.0,0.0,0.0,0.0,0.0,0.0,0.0,0.0,0.0,0.0,0.0,0.0,0.0,0.0,0.0,0.0,0.0,0.0,0.0,0.0,0.0,0.0,0.0,0.0,0.0,0.2105,8.7521,0.9044,13.3057,-1.0986,-12.7563,83.3972,-1.3129,-22.2693,0.6543,0.1201,-0.1517,0.7311,2.0385,9.3263,-0.6986,76.7212,55.481,-5.0049,94.5319,1.3129,-29.6906,0.708,0.1957,-0.1657,0.6581,-0.2058,9.3502,-2.9381,18.8599,18.7378,-11.7798,103.6395,-0.2692,-27.5922,0.7637,0.186,-0.1492,0.5999,-0.8805,0.7321,9.9005,3.418,3.2349,1.2207,3.8452,5.4657,-86.0339,-0.008,0.0577,-0.6799,0.731,0.067,9.8909,-1.8136,-123.0469,41.0156,29.6631,85.2594,-5.614,-23.4943,0.6696,0.1024,-0.1821,0.7127,1.4595,7.6754,-7.9386,-96.4966,-5.188,16.3574,140.3558,-8.1464,-25.9277,0.9199,0.187,-0.141,0.3146,2.7945,-3.7659,8.4984,-149.4751,17.2119,33.4473,48.0542,4.8779,-96.3831,0.2422,0.3291,-0.6686,0.6212,0,0,0,0,0,0,0,0,0,0,0,0,0,0,0,0,0,0,0,0,15118,45837,0,0,0,0,18199,64782,41728,0,0,0,60681,61954,13058,0
1777289315.2119405,345333,1777289306.49104,1777289313.3932796,1777289306.6134102,0,0,-6902.239561080933,-122.37024307250977,1,1,0.0,0.0,0.0,0.0,0.0,0.0,0.0,0.0,0.0,0.0,0.0,0.0,0.0,0.0,0.0,0.0,0.0,0.0,0.0,0.0,0.0,0.0,0.0,0.0,0.0,0.0,0.0,0.0,0.0,0.0,0.0,0.0,0.0,0.0,0.0,0.0,0.0,0.0,0.0,0.0,0.0,0.0,0.0,0.0,0.0,0.0,0.0,0.0,0.0,0.0,0.0,0.0,0.0,0.0,0.0,0.0,0.0,0.0,0.0,0.0,0.0,0.0,0.0,0.0,0.0,0.0,0.0,0.0,0.0,0.0,0.0,0.0,0.0,0.0,0.0,0.2105,8.7521,0.9044,13.3057,-1.0986,-12.7563,83.3972,-1.3129,-22.2693,0.6543,0.1201,-0.1517,0.7311,2.0385,9.3263,-0.6986,76.7212,55.481,-5.0049,94.5319,1.3129,-29.6906,0.708,0.1957,-0.1657,0.6581,-0.2058,9.3502,-2.9381,18.8599,18.7378,-11.7798,103.6395,-0.2692,-27.5922,0.7637,0.186,-0.1492,0.5999,-0.8805,0.7321,9.9005,3.418,3.2349,1.2207,3.8452,5.4657,-86.0339,-0.008,0.0577,-0.6799,0.731,0.067,9.8909,-1.8136,-123.0469,41.0156,29.6631,85.2594,-5.614,-23.4943,0.6696,0.1024,-0.1821,0.7127,1.4595,7.6754,-7.9386,-96.4966,-5.188,16.3574,140.3558,-8.1464,-25.9277,0.9199,0.187,-0.141,0.3146,2.7945,-3.7659,8.4984,-149.4751,17.2119,33.4473,48.0542,4.8779,-96.3831,0.2422,0.3291,-0.6686,0.6212,0,0,0,0,0,0,0,0,0,0,0,0,0,0,0,0,0,0,0,0,15118,45837,0,0,0,0,18199,64782,41728,0,0,0,60681,61954,13058,0
1777289315.2119405,345334,1777289306.4935641,1777289313.3932796,1777289306.6134102,0,0,-6899.715423583984,-119.84610557556152,1,1,0.0,0.0,0.0,0.0,0.0,0.0,0.0,0.0,0.0,0.0,0.0,0.0,0.0,0.0,0.0,0.0,0.0,0.0,0.0,0.0,0.0,0.0,0.0,0.0,0.0,0.0,0.0,0.0,0.0,0.0,0.0,0.0,0.0,0.0,0.0,0.0,0.0,0.0,0.0,0.0,0.0,0.0,0.0,0.0,0.0,0.0,0.0,0.0,0.0,0.0,0.0,0.0,0.0,0.0,0.0,0.0,0.0,0.0,0.0,0.0,0.0,0.0,0.0,0.0,0.0,0.0,0.0,0.0,0.0,0.0,0.0,0.0,0.0,0.0,0.0,0.2105,8.7521,0.9044,13.3057,-1.0986,-12.7563,83.3972,-1.3129,-22.2693,0.6543,0.1201,-0.1517,0.7311,2.0385,9.3263,-0.6986,76.7212,55.481,-5.0049,94.5319,1.3129,-29.6906,0.708,0.1957,-0.1657,0.6581,-0.2058,9.3502,-2.9381,18.8599,18.7378,-11.7798,103.6395,-0.2692,-27.5922,0.7637,0.186,-0.1492,0.5999,-0.8805,0.7321,9.9005,3.418,3.2349,1.2207,3.8452,5.4657,-86.0339,-0.008,0.0577,-0.6799,0.731,0.067,9.8909,-1.8136,-123.0469,41.0156,29.6631,85.2594,-5.614,-23.4943,0.6696,0.1024,-0.1821,0.7127,1.4595,7.6754,-7.9386,-96.4966,-5.188,16.3574,140.3558,-8.1464,-25.9277,0.9199,0.187,-0.141,0.3146,2.7945,-3.7659,8.4984,-149.4751,17.2119,33.4473,48.0542,4.8779,-96.3831,0.2422,0.3291,-0.6686,0.6212,0,0,0,0,0,0,0,0,0,0,0,0,0,0,0,0,0,0,0,0,15118,45837,0,0,0,0,18199,64782,41728,0,0,0,60681,61954,13058,0
1777289315.2119405,345335,1777289306.5032063,1777289313.3932796,1777289306.6134102,0,0,-6890.073299407959,-110.20398139953613,1,1,0.0,0.0,0.0,0.0,0.0,0.0,0.0,0.0,0.0,0.0,0.0,0.0,0.0,0.0,0.0,0.0,0.0,0.0,0.0,0.0,0.0,0.0,0.0,0.0,0.0,0.0,0.0,0.0,0.0,0.0,0.0,0.0,0.0,0.0,0.0,0.0,0.0,0.0,0.0,0.0,0.0,0.0,0.0,0.0,0.0,0.0,0.0,0.0,0.0,0.0,0.0,0.0,0.0,0.0,0.0,0.0,0.0,0.0,0.0,0.0,0.0,0.0,0.0,0.0,0.0,0.0,0.0,0.0,0.0,0.0,0.0,0.0,0.0,0.0,0.0,0.2105,8.7521,0.9044,13.3057,-1.0986,-12.7563,83.3972,-1.3129,-22.2693,0.6543,0.1201,-0.1517,0.7311,2.0385,9.3263,-0.6986,76.7212,55.481,-5.0049,94.5319,1.3129,-29.6906,0.708,0.1957,-0.1657,0.6581,-0.2058,9.3502,-2.9381,18.8599,18.7378,-11.7798,103.6395,-0.2692,-27.5922,0.7637,0.186,-0.1492,0.5999,-0.8805,0.7321,9.9005,3.418,3.2349,1.2207,3.8452,5.4657,-86.0339,-0.008,0.0577,-0.6799,0.731,0.067,9.8909,-1.8136,-123.0469,41.0156,29.6631,85.2594,-5.614,-23.4943,0.6696,0.1024,-0.1821,0.7127,1.4595,7.6754,-7.9386,-96.4966,-5.188,16.3574,140.3558,-8.1464,-25.9277,0.9199,0.187,-0.141,0.3146,2.7945,-3.7659,8.4984,-149.4751,17.2119,33.4473,48.0542,4.8779,-96.3831,0.2422,0.3291,-0.6686,0.6212,0,0,0,0,0,0,0,0,0,0,0,0,0,0,0,0,0,0,0,0,15118,45837,0,0,0,0,18199,64782,41728,0,0,0,60681,61954,13058,0
1777289315.2129393,345336,1777289306.5203786,1777289313.3932796,1777289306.6134102,0,0,-6872.90096282959,-93.03164482116699,1,1,0.0,0.0,0.0,0.0,0.0,0.0,0.0,0.0,0.0,0.0,0.0,0.0,0.0,0.0,0.0,0.0,0.0,0.0,0.0,0.0,0.0,0.0,0.0,0.0,0.0,0.0,0.0,0.0,0.0,0.0,0.0,0.0,0.0,0.0,0.0,0.0,0.0,0.0,0.0,0.0,0.0,0.0,0.0,0.0,0.0,0.0,0.0,0.0,0.0,0.0,0.0,0.0,0.0,0.0,0.0,0.0,0.0,0.0,0.0,0.0,0.0,0.0,0.0,0.0,0.0,0.0,0.0,0.0,0.0,0.0,0.0,0.0,0.0,0.0,0.0,0.2105,8.7521,0.9044,13.3057,-1.0986,-12.7563,83.3972,-1.3129,-22.2693,0.6543,0.1201,-0.1517,0.7311,2.0385,9.3263,-0.6986,76.7212,55.481,-5.0049,94.5319,1.3129,-29.6906,0.708,0.1957,-0.1657,0.6581,-0.2058,9.3502,-2.9381,18.8599,18.7378,-11.7798,103.6395,-0.2692,-27.5922,0.7637,0.186,-0.1492,0.5999,-0.8805,0.7321,9.9005,3.418,3.2349,1.2207,3.8452,5.4657,-86.0339,-0.008,0.0577,-0.6799,0.731,0.067,9.8909,-1.8136,-123.0469,41.0156,29.6631,85.2594,-5.614,-23.4943,0.6696,0.1024,-0.1821,0.7127,1.4595,7.6754,-7.9386,-96.4966,-5.188,16.3574,140.3558,-8.1464,-25.9277,0.9199,0.187,-0.141,0.3146,2.7945,-3.7659,8.4984,-149.4751,17.2119,33.4473,48.0542,4.8779,-96.3831,0.2422,0.3291,-0.6686,0.6212,0,0,0,0,0,0,0,0,0,0,0,0,0,0,0,0,0,0,0,0,15118,45837,0,0,0,0,18199,64782,41728,0,0,0,60681,61954,13058,0
1777289315.2129393,345337,1777289306.5336053,1777289313.3932796,1777289306.6134102,0,0,-6859.6742153167725,-79.80489730834961,1,1,0.0,0.0,0.0,0.0,0.0,0.0,0.0,0.0,0.0,0.0,0.0,0.0,0.0,0.0,0.0,0.0,0.0,0.0,0.0,0.0,0.0,0.0,0.0,0.0,0.0,0.0,0.0,0.0,0.0,0.0,0.0,0.0,0.0,0.0,0.0,0.0,0.0,0.0,0.0,0.0,0.0,0.0,0.0,0.0,0.0,0.0,0.0,0.0,0.0,0.0,0.0,0.0,0.0,0.0,0.0,0.0,0.0,0.0,0.0,0.0,0.0,0.0,0.0,0.0,0.0,0.0,0.0,0.0,0.0,0.0,0.0,0.0,0.0,0.0,0.0,0.2105,8.7521,0.9044,13.3057,-1.0986,-12.7563,83.3972,-1.3129,-22.2693,0.6543,0.1201,-0.1517,0.7311,2.0385,9.3263,-0.6986,76.7212,55.481,-5.0049,94.5319,1.3129,-29.6906,0.708,0.1957,-0.1657,0.6581,-0.2058,9.3502,-2.9381,18.8599,18.7378,-11.7798,103.6395,-0.2692,-27.5922,0.7637,0.186,-0.1492,0.5999,-0.8805,0.7321,9.9005,3.418,3.2349,1.2207,3.8452,5.4657,-86.0339,-0.008,0.0577,-0.6799,0.731,0.067,9.8909,-1.8136,-123.0469,41.0156,29.6631,85.2594,-5.614,-23.4943,0.6696,0.1024,-0.1821,0.7127,1.4595,7.6754,-7.9386,-96.4966,-5.188,16.3574,140.3558,-8.1464,-25.9277,0.9199,0.187,-0.141,0.3146,2.7945,-3.7659,8.4984,-149.4751,17.2119,33.4473,48.0542,4.8779,-96.3831,0.2422,0.3291,-0.6686,0.6212,0,0,0,0,0,0,0,0,0,0,0,0,0,0,0,0,0,0,0,0,15118,45837,0,0,0,0,18199,64782,41728,0,0,0,60681,61954,13058,0
1777289315.2129393,345338,1777289306.5361135,1777289313.3932796,1777289306.6134102,0,0,-6857.166051864624,-77.29673385620117,1,1,0.0,0.0,0.0,0.0,0.0,0.0,0.0,0.0,0.0,0.0,0.0,0.0,0.0,0.0,0.0,0.0,0.0,0.0,0.0,0.0,0.0,0.0,0.0,0.0,0.0,0.0,0.0,0.0,0.0,0.0,0.0,0.0,0.0,0.0,0.0,0.0,0.0,0.0,0.0,0.0,0.0,0.0,0.0,0.0,0.0,0.0,0.0,0.0,0.0,0.0,0.0,0.0,0.0,0.0,0.0,0.0,0.0,0.0,0.0,0.0,0.0,0.0,0.0,0.0,0.0,0.0,0.0,0.0,0.0,0.0,0.0,0.0,0.0,0.0,0.0,0.2105,8.7521,0.9044,13.3057,-1.0986,-12.7563,83.3972,-1.3129,-22.2693,0.6543,0.1201,-0.1517,0.7311,2.0385,9.3263,-0.6986,76.7212,55.481,-5.0049,94.5319,1.3129,-29.6906,0.708,0.1957,-0.1657,0.6581,-0.2058,9.3502,-2.9381,18.8599,18.7378,-11.7798,103.6395,-0.2692,-27.5922,0.7637,0.186,-0.1492,0.5999,-0.8805,0.7321,9.9005,3.418,3.2349,1.2207,3.8452,5.4657,-86.0339,-0.008,0.0577,-0.6799,0.731,0.067,9.8909,-1.8136,-123.0469,41.0156,29.6631,85.2594,-5.614,-23.4943,0.6696,0.1024,-0.1821,0.7127,1.4595,7.6754,-7.9386,-96.4966,-5.188,16.3574,140.3558,-8.1464,-25.9277,0.9199,0.187,-0.141,0.3146,2.7945,-3.7659,8.4984,-149.4751,17.2119,33.4473,48.0542,4.8779,-96.3831,0.2422,0.3291,-0.6686,0.6212,0,0,0,0,0,0,0,0,0,0,0,0,0,0,0,0,0,0,0,0,15118,45837,0,0,0,0,18199,64782,41728,0,0,0,60681,61954,13058,0
1777289315.2129393,345339,1777289306.543317,1777289313.3932796,1777289306.6134102,0,0,-6849.962472915649,-70.09315490722656,1,1,0.0,0.0,0.0,0.0,0.0,0.0,0.0,0.0,0.0,0.0,0.0,0.0,0.0,0.0,0.0,0.0,0.0,0.0,0.0,0.0,0.0,0.0,0.0,0.0,0.0,0.0,0.0,0.0,0.0,0.0,0.0,0.0,0.0,0.0,0.0,0.0,0.0,0.0,0.0,0.0,0.0,0.0,0.0,0.0,0.0,0.0,0.0,0.0,0.0,0.0,0.0,0.0,0.0,0.0,0.0,0.0,0.0,0.0,0.0,0.0,0.0,0.0,0.0,0.0,0.0,0.0,0.0,0.0,0.0,0.0,0.0,0.0,0.0,0.0,0.0,0.2105,8.7521,0.9044,13.3057,-1.0986,-12.7563,83.3972,-1.3129,-22.2693,0.6543,0.1201,-0.1517,0.7311,2.0385,9.3263,-0.6986,76.7212,55.481,-5.0049,94.5319,1.3129,-29.6906,0.708,0.1957,-0.1657,0.6581,-0.2058,9.3502,-2.9381,18.8599,18.7378,-11.7798,103.6395,-0.2692,-27.5922,0.7637,0.186,-0.1492,0.5999,-0.8805,0.7321,9.9005,3.418,3.2349,1.2207,3.8452,5.4657,-86.0339,-0.008,0.0577,-0.6799,0.731,0.067,9.8909,-1.8136,-123.0469,41.0156,29.6631,85.2594,-5.614,-23.4943,0.6696,0.1024,-0.1821,0.7127,1.4595,7.6754,-7.9386,-96.4966,-5.188,16.3574,140.3558,-8.1464,-25.9277,0.9199,0.187,-0.141,0.3146,2.7945,-3.7659,8.4984,-149.4751,17.2119,33.4473,48.0542,4.8779,-96.3831,0.2422,0.3291,-0.6686,0.6212,0,0,0,0,0,0,0,0,0,0,0,0,0,0,0,0,0,0,0,0,15118,45837,0,0,0,0,18199,64782,41728,0,0,0,60681,61954,13058,0
1777289315.2129393,345340,1777289306.5524373,1777289313.3932796,1777289306.6134102,0,0,-6840.842247009277,-60.97292900085449,1,1,0.0,0.0,0.0,0.0,0.0,0.0,0.0,0.0,0.0,0.0,0.0,0.0,0.0,0.0,0.0,0.0,0.0,0.0,0.0,0.0,0.0,0.0,0.0,0.0,0.0,0.0,0.0,0.0,0.0,0.0,0.0,0.0,0.0,0.0,0.0,0.0,0.0,0.0,0.0,0.0,0.0,0.0,0.0,0.0,0.0,0.0,0.0,0.0,0.0,0.0,0.0,0.0,0.0,0.0,0.0,0.0,0.0,0.0,0.0,0.0,0.0,0.0,0.0,0.0,0.0,0.0,0.0,0.0,0.0,0.0,0.0,0.0,0.0,0.0,0.0,0.2105,8.7521,0.9044,13.3057,-1.0986,-12.7563,83.3972,-1.3129,-22.2693,0.6543,0.1201,-0.1517,0.7311,2.0385,9.3263,-0.6986,76.7212,55.481,-5.0049,94.5319,1.3129,-29.6906,0.708,0.1957,-0.1657,0.6581,-0.2058,9.3502,-2.9381,18.8599,18.7378,-11.7798,103.6395,-0.2692,-27.5922,0.7637,0.186,-0.1492,0.5999,-0.8805,0.7321,9.9005,3.418,3.2349,1.2207,3.8452,5.4657,-86.0339,-0.008,0.0577,-0.6799,0.731,0.067,9.8909,-1.8136,-123.0469,41.0156,29.6631,85.2594,-5.614,-23.4943,0.6696,0.1024,-0.1821,0.7127,1.4595,7.6754,-7.9386,-96.4966,-5.188,16.3574,140.3558,-8.1464,-25.9277,0.9199,0.187,-0.141,0.3146,2.7945,-3.7659,8.4984,-149.4751,17.2119,33.4473,48.0542,4.8779,-96.3831,0.2422,0.3291,-0.6686,0.6212,0,0,0,0,0,0,0,0,0,0,0,0,0,0,0,0,0,0,0,0,15118,45837,0,0,0,0,18199,64782,41728,0,0,0,60681,61954,13058,0
1777289315.2129393,345341,1777289306.5628898,1777289313.3932796,1777289306.6134102,0,0,-6830.389738082886,-50.52042007446289,1,1,0.0,0.0,0.0,0.0,0.0,0.0,0.0,0.0,0.0,0.0,0.0,0.0,0.0,0.0,0.0,0.0,0.0,0.0,0.0,0.0,0.0,0.0,0.0,0.0,0.0,0.0,0.0,0.0,0.0,0.0,0.0,0.0,0.0,0.0,0.0,0.0,0.0,0.0,0.0,0.0,0.0,0.0,0.0,0.0,0.0,0.0,0.0,0.0,0.0,0.0,0.0,0.0,0.0,0.0,0.0,0.0,0.0,0.0,0.0,0.0,0.0,0.0,0.0,0.0,0.0,0.0,0.0,0.0,0.0,0.0,0.0,0.0,0.0,0.0,0.0,0.2105,8.7521,0.9044,13.3057,-1.0986,-12.7563,83.3972,-1.3129,-22.2693,0.6543,0.1201,-0.1517,0.7311,2.0385,9.3263,-0.6986,76.7212,55.481,-5.0049,94.5319,1.3129,-29.6906,0.708,0.1957,-0.1657,0.6581,-0.2058,9.3502,-2.9381,18.8599,18.7378,-11.7798,103.6395,-0.2692,-27.5922,0.7637,0.186,-0.1492,0.5999,-0.8805,0.7321,9.9005,3.418,3.2349,1.2207,3.8452,5.4657,-86.0339,-0.008,0.0577,-0.6799,0.731,0.067,9.8909,-1.8136,-123.0469,41.0156,29.6631,85.2594,-5.614,-23.4943,0.6696,0.1024,-0.1821,0.7127,1.4595,7.6754,-7.9386,-96.4966,-5.188,16.3574,140.3558,-8.1464,-25.9277,0.9199,0.187,-0.141,0.3146,2.7945,-3.7659,8.4984,-149.4751,17.2119,33.4473,48.0542,4.8779,-96.3831,0.2422,0.3291,-0.6686,0.6212,0,0,0,0,0,0,0,0,0,0,0,0,0,0,0,0,0,0,0,0,15118,45837,0,0,0,0,18199,64782,41728,0,0,0,60681,61954,13058,0
1777289315.2129393,345342,1777289306.5732496,1777289313.3932796,1777289306.6134102,0,0,-6820.029973983765,-40.1606559753418,1,1,0.0,0.0,0.0,0.0,0.0,0.0,0.0,0.0,0.0,0.0,0.0,0.0,0.0,0.0,0.0,0.0,0.0,0.0,0.0,0.0,0.0,0.0,0.0,0.0,0.0,0.0,0.0,0.0,0.0,0.0,0.0,0.0,0.0,0.0,0.0,0.0,0.0,0.0,0.0,0.0,0.0,0.0,0.0,0.0,0.0,0.0,0.0,0.0,0.0,0.0,0.0,0.0,0.0,0.0,0.0,0.0,0.0,0.0,0.0,0.0,0.0,0.0,0.0,0.0,0.0,0.0,0.0,0.0,0.0,0.0,0.0,0.0,0.0,0.0,0.0,0.2105,8.7521,0.9044,13.3057,-1.0986,-12.7563,83.3972,-1.3129,-22.2693,0.6543,0.1201,-0.1517,0.7311,2.0385,9.3263,-0.6986,76.7212,55.481,-5.0049,94.5319,1.3129,-29.6906,0.708,0.1957,-0.1657,0.6581,-0.2058,9.3502,-2.9381,18.8599,18.7378,-11.7798,103.6395,-0.2692,-27.5922,0.7637,0.186,-0.1492,0.5999,-0.8805,0.7321,9.9005,3.418,3.2349,1.2207,3.8452,5.4657,-86.0339,-0.008,0.0577,-0.6799,0.731,0.067,9.8909,-1.8136,-123.0469,41.0156,29.6631,85.2594,-5.614,-23.4943,0.6696,0.1024,-0.1821,0.7127,1.4595,7.6754,-7.9386,-96.4966,-5.188,16.3574,140.3558,-8.1464,-25.9277,0.9199,0.187,-0.141,0.3146,2.7945,-3.7659,8.4984,-149.4751,17.2119,33.4473,48.0542,4.8779,-96.3831,0.2422,0.3291,-0.6686,0.6212,0,0,0,0,0,0,0,0,0,0,0,0,0,0,0,0,0,0,0,0,15118,45837,0,0,0,0,18199,64782,41728,0,0,0,60681,61954,13058,0
1777289315.2129393,345343,1777289306.5826936,1777289313.3932796,1777289306.6134102,0,0,-6810.585975646973,-30.716657638549805,1,1,0.0,0.0,0.0,0.0,0.0,0.0,0.0,0.0,0.0,0.0,0.0,0.0,0.0,0.0,0.0,0.0,0.0,0.0,0.0,0.0,0.0,0.0,0.0,0.0,0.0,0.0,0.0,0.0,0.0,0.0,0.0,0.0,0.0,0.0,0.0,0.0,0.0,0.0,0.0,0.0,0.0,0.0,0.0,0.0,0.0,0.0,0.0,0.0,0.0,0.0,0.0,0.0,0.0,0.0,0.0,0.0,0.0,0.0,0.0,0.0,0.0,0.0,0.0,0.0,0.0,0.0,0.0,0.0,0.0,0.0,0.0,0.0,0.0,0.0,0.0,0.2105,8.7521,0.9044,13.3057,-1.0986,-12.7563,83.3972,-1.3129,-22.2693,0.6543,0.1201,-0.1517,0.7311,2.0385,9.3263,-0.6986,76.7212,55.481,-5.0049,94.5319,1.3129,-29.6906,0.708,0.1957,-0.1657,0.6581,-0.2058,9.3502,-2.9381,18.8599,18.7378,-11.7798,103.6395,-0.2692,-27.5922,0.7637,0.186,-0.1492,0.5999,-0.8805,0.7321,9.9005,3.418,3.2349,1.2207,3.8452,5.4657,-86.0339,-0.008,0.0577,-0.6799,0.731,0.067,9.8909,-1.8136,-123.0469,41.0156,29.6631,85.2594,-5.614,-23.4943,0.6696,0.1024,-0.1821,0.7127,1.4595,7.6754,-7.9386,-96.4966,-5.188,16.3574,140.3558,-8.1464,-25.9277,0.9199,0.187,-0.141,0.3146,2.7945,-3.7659,8.4984,-149.4751,17.2119,33.4473,48.0542,4.8779,-96.3831,0.2422,0.3291,-0.6686,0.6212,0,0,0,0,0,0,0,0,0,0,0,0,0,0,0,0,0,0,0,0,15118,45837,0,0,0,0,18199,64782,41728,0,0,0,60681,61954,13058,0
1777289315.2129393,345344,1777289306.5932224,1777289313.3932796,1777289306.6134102,0,0,-6800.057172775269,-20.187854766845703,1,1,0.0,0.0,0.0,0.0,0.0,0.0,0.0,0.0,0.0,0.0,0.0,0.0,0.0,0.0,0.0,0.0,0.0,0.0,0.0,0.0,0.0,0.0,0.0,0.0,0.0,0.0,0.0,0.0,0.0,0.0,0.0,0.0,0.0,0.0,0.0,0.0,0.0,0.0,0.0,0.0,0.0,0.0,0.0,0.0,0.0,0.0,0.0,0.0,0.0,0.0,0.0,0.0,0.0,0.0,0.0,0.0,0.0,0.0,0.0,0.0,0.0,0.0,0.0,0.0,0.0,0.0,0.0,0.0,0.0,0.0,0.0,0.0,0.0,0.0,0.0,0.2105,8.7521,0.9044,13.3057,-1.0986,-12.7563,83.3972,-1.3129,-22.2693,0.6543,0.1201,-0.1517,0.7311,2.0385,9.3263,-0.6986,76.7212,55.481,-5.0049,94.5319,1.3129,-29.6906,0.708,0.1957,-0.1657,0.6581,-0.2058,9.3502,-2.9381,18.8599,18.7378,-11.7798,103.6395,-0.2692,-27.5922,0.7637,0.186,-0.1492,0.5999,-0.8805,0.7321,9.9005,3.418,3.2349,1.2207,3.8452,5.4657,-86.0339,-0.008,0.0577,-0.6799,0.731,0.067,9.8909,-1.8136,-123.0469,41.0156,29.6631,85.2594,-5.614,-23.4943,0.6696,0.1024,-0.1821,0.7127,1.4595,7.6754,-7.9386,-96.4966,-5.188,16.3574,140.3558,-8.1464,-25.9277,0.9199,0.187,-0.141,0.3146,2.7945,-3.7659,8.4984,-149.4751,17.2119,33.4473,48.0542,4.8779,-96.3831,0.2422,0.3291,-0.6686,0.6212,0,0,0,0,0,0,0,0,0,0,0,0,0,0,0,0,0,0,0,0,15118,45837,0,0,0,0,18199,64782,41728,0,0,0,60681,61954,13058,0
1777289315.2129393,345345,1777289306.6024094,1777289313.3932796,1777289306.6134102,0,0,-6790.870189666748,-11.000871658325195,1,1,0.0,0.0,0.0,0.0,0.0,0.0,0.0,0.0,0.0,0.0,0.0,0.0,0.0,0.0,0.0,0.0,0.0,0.0,0.0,0.0,0.0,0.0,0.0,0.0,0.0,0.0,0.0,0.0,0.0,0.0,0.0,0.0,0.0,0.0,0.0,0.0,0.0,0.0,0.0,0.0,0.0,0.0,0.0,0.0,0.0,0.0,0.0,0.0,0.0,0.0,0.0,0.0,0.0,0.0,0.0,0.0,0.0,0.0,0.0,0.0,0.0,0.0,0.0,0.0,0.0,0.0,0.0,0.0,0.0,0.0,0.0,0.0,0.0,0.0,0.0,0.2105,8.7521,0.9044,13.3057,-1.0986,-12.7563,83.3972,-1.3129,-22.2693,0.6543,0.1201,-0.1517,0.7311,2.0385,9.3263,-0.6986,76.7212,55.481,-5.0049,94.5319,1.3129,-29.6906,0.708,0.1957,-0.1657,0.6581,-0.2058,9.3502,-2.9381,18.8599,18.7378,-11.7798,103.6395,-0.2692,-27.5922,0.7637,0.186,-0.1492,0.5999,-0.8805,0.7321,9.9005,3.418,3.2349,1.2207,3.8452,5.4657,-86.0339,-0.008,0.0577,-0.6799,0.731,0.067,9.8909,-1.8136,-123.0469,41.0156,29.6631,85.2594,-5.614,-23.4943,0.6696,0.1024,-0.1821,0.7127,1.4595,7.6754,-7.9386,-96.4966,-5.188,16.3574,140.3558,-8.1464,-25.9277,0.9199,0.187,-0.141,0.3146,2.7945,-3.7659,8.4984,-149.4751,17.2119,33.4473,48.0542,4.8779,-96.3831,0.2422,0.3291,-0.6686,0.6212,0,0,0,0,0,0,0,0,0,0,0,0,0,0,0,0,0,0,0,0,15118,45837,0,0,0,0,18199,64782,41728,0,0,0,60681,61954,13058,0
1777289315.2129393,345346,1777289306.6197956,1777289313.3932796,1777289306.6134102,0,0,-6773.483991622925,6.385326385498047,1,1,0.0,0.0,0.0,0.0,0.0,0.0,0.0,0.0,0.0,0.0,0.0,0.0,0.0,0.0,0.0,0.0,0.0,0.0,0.0,0.0,0.0,0.0,0.0,0.0,0.0,0.0,0.0,0.0,0.0,0.0,0.0,0.0,0.0,0.0,0.0,0.0,0.0,0.0,0.0,0.0,0.0,0.0,0.0,0.0,0.0,0.0,0.0,0.0,0.0,0.0,0.0,0.0,0.0,0.0,0.0,0.0,0.0,0.0,0.0,0.0,0.0,0.0,0.0,0.0,0.0,0.0,0.0,0.0,0.0,0.0,0.0,0.0,0.0,0.0,0.0,0.2105,8.7521,0.9044,13.3057,-1.0986,-12.7563,83.3972,-1.3129,-22.2693,0.6543,0.1201,-0.1517,0.7311,2.0385,9.3263,-0.6986,76.7212,55.481,-5.0049,94.5319,1.3129,-29.6906,0.708,0.1957,-0.1657,0.6581,-0.2058,9.3502,-2.9381,18.8599,18.7378,-11.7798,103.6395,-0.2692,-27.5922,0.7637,0.186,-0.1492,0.5999,-0.8805,0.7321,9.9005,3.418,3.2349,1.2207,3.8452,5.4657,-86.0339,-0.008,0.0577,-0.6799,0.731,0.067,9.8909,-1.8136,-123.0469,41.0156,29.6631,85.2594,-5.614,-23.4943,0.6696,0.1024,-0.1821,0.7127,1.4595,7.6754,-7.9386,-96.4966,-5.188,16.3574,140.3558,-8.1464,-25.9277,0.9199,0.187,-0.141,0.3146,2.7945,-3.7659,8.4984,-149.4751,17.2119,33.4473,48.0542,4.8779,-96.3831,0.2422,0.3291,-0.6686,0.6212,0,0,0,0,0,0,0,0,0,0,0,0,0,0,0,0,0,0,0,0,15118,45837,0,0,0,0,18199,64782,41728,0,0,0,60681,61954,13058,0
