Recv_Timestamp,Device_Name,Acc_X,Acc_Y,Acc_Z,Gyro_X,Gyro_Y,Gyro_Z,Roll,Pitch,Yaw,Quat_x,Quat_y,Quat_z,Quat_w
1777530224.010801,Trunk,0.0,0.0,0.0,0.0,0.0,0.0,0.0,0.0,0.0,0.0,0.0,0.0,1.0
1777530224.010801,L_Femur,0.0,0.0,0.0,0.0,0.0,0.0,0.0,0.0,0.0,0.0,0.0,0.0,1.0
1777530224.010801,L_Tibia,0.0,0.0,0.0,0.0,0.0,0.0,0.0,0.0,0.0,0.0,0.0,0.0,1.0
1777530224.010801,L_Foot,-1.024,-0.1148,10.001,-0.6714,-0.2441,0.3052,-0.6866,5.8612,113.9392,0.0396,0.0329,0.8371,0.5446
1777530224.010801,R_Femur,0.0,0.0,0.0,0.0,0.0,0.0,0.0,0.0,0.0,0.0,0.0,0.0,1.0
1777530224.010801,R_Tibia,0.0,0.0,0.0,0.0,0.0,0.0,0.0,0.0,0.0,0.0,0.0,0.0,1.0
1777530224.010801,R_Foot,0.0,0.0,0.0,0.0,0.0,0.0,0.0,0.0,0.0,0.0,0.0,0.0,1.0
1777530224.0118635,Trunk,0.0,0.0,0.0,0.0,0.0,0.0,0.0,0.0,0.0,0.0,0.0,0.0,1.0
1777530224.0118635,L_Femur,0.0,0.0,0.0,0.0,0.0,0.0,0.0,0.0,0.0,0.0,0.0,0.0,1.0
1777530224.0118635,L_Tibia,0.0,0.0,0.0,0.0,0.0,0.0,0.0,0.0,0.0,0.0,0.0,0.0,1.0
1777530224.0118635,L_Foot,-1.024,-0.1148,10.001,-0.6714,-0.2441,0.3052,-0.6866,5.8612,113.9392,0.0396,0.0329,0.8371,0.5446
1777530224.0118635,R_Femur,0.0,0.0,0.0,0.0,0.0,0.0,0.0,0.0,0.0,0.0,0.0,0.0,1.0
1777530224.0118635,R_Tibia,-0.1005,-9.4794,2.4931,0.3052,-0.2441,0.3662,-75.2728,0.5658,-112.7472,-0.3414,-0.5063,-0.6611,0.436
1777530224.0118635,R_Foot,0.0,0.0,0.0,0.0,0.0,0.0,0.0,0.0,0.0,0.0,0.0,0.0,1.0
1777530224.0118635,Trunk,-7.1873,-0.6316,-6.4695,0.9766,0.0,-0.5493,-174.3695,47.84,64.4403,-0.7618,0.5036,-0.3187,0.2539
1777530224.0118635,L_Femur,0.0,0.0,0.0,0.0,0.0,0.0,0.0,0.0,0.0,0.0,0.0,0.0,1.0
1777530224.0118635,L_Tibia,0.0,0.0,0.0,0.0,0.0,0.0,0.0,0.0,0.0,0.0,0.0,0.0,1.0
1777530224.0118635,L_Foot,-1.024,-0.1148,10.001,-0.6714,-0.2441,0.3052,-0.6866,5.8612,113.9392,0.0396,0.0329,0.8371,0.5446
1777530224.0118635,R_Femur,0.0,0.0,0.0,0.0,0.0,0.0,0.0,0.0,0.0,0.0,0.0,0.0,1.0
1777530224.0118635,R_Tibia,-0.1005,-9.4794,2.4931,0.3052,-0.2441,0.3662,-75.2728,0.5658,-112.7472,-0.3414,-0.5063,-0.6611,0.436
1777530224.0118635,R_Foot,0.0,0.0,0.0,0.0,0.0,0.0,0.0,0.0,0.0,0.0,0.0,0.0,1.0
1777530224.0118635,Trunk,-7.1873,-0.6316,-6.4695,0.9766,0.0,-0.5493,-174.3695,47.84,64.4403,-0.7618,0.5036,-0.3187,0.2539
1777530224.0118635,L_Femur,0.5934,9.6804,-0.6125,0.2441,-0.4272,-0.1221,93.587,-3.4937,35.6232,0.6872,-0.2427,0.1882,0.6583
1777530224.0118635,L_Tibia,0.0,0.0,0.0,0.0,0.0,0.0,0.0,0.0,0.0,0.0,0.0,0.0,1.0
1777530224.0118635,L_Foot,-1.024,-0.1148,10.001,-0.6714,-0.2441,0.3052,-0.6866,5.8612,113.9392,0.0396,0.0329,0.8371,0.5446
1777530224.0118635,R_Femur,0.0,0.0,0.0,0.0,0.0,0.0,0.0,0.0,0.0,0.0,0.0,0.0,1.0
1777530224.0118635,R_Tibia,-0.1005,-9.4794,2.4931,0.3052,-0.2441,0.3662,-75.2728,0.5658,-112.7472,-0.3414,-0.5063,-0.6611,0.436
1777530224.0118635,R_Foot,0.0,0.0,0.0,0.0,0.0,0.0,0.0,0.0,0.0,0.0,0.0,0.0,1.0
1777530224.0118635,Trunk,-7.1873,-0.6316,-6.4695,0.9766,0.0,-0.5493,-174.3695,47.84,64.4403,-0.7618,0.5036,-0.3187,0.2539
1777530224.0118635,L_Femur,0.5934,9.6804,-0.6125,0.2441,-0.4272,-0.1221,93.587,-3.4937,35.6232,0.6872,-0.2427,0.1882,0.6583
1777530224.0118635,L_Tibia,-0.2153,-8.7473,-4.1487,-0.2441,-0.2441,0.4883,-115.3729,1.3019,-103.3759,-0.5287,-0.6593,-0.4254,0.3238
1777530224.0118635,L_Foot,-1.024,-0.1148,10.001,-0.6714,-0.2441,0.3052,-0.6866,5.8612,113.9392,0.0396,0.0329,0.8371,0.5446
1777530224.0118635,R_Femur,0.0,0.0,0.0,0.0,0.0,0.0,0.0,0.0,0.0,0.0,0.0,0.0,1.0
1777530224.0118635,R_Tibia,-0.1005,-9.4794,2.4931,0.3052,-0.2441,0.3662,-75.2728,0.5658,-112.7472,-0.3414,-0.5063,-0.6611,0.436
1777530224.0118635,R_Foot,0.0,0.0,0.0,0.0,0.0,0.0,0.0,0.0,0.0,0.0,0.0,0.0,1.0
1777530224.0118635,Trunk,-7.1873,-0.6316,-6.4695,0.9766,0.0,-0.5493,-174.3695,47.84,64.4403,-0.7618,0.5036,-0.3187,0.2539
1777530224.0118635,L_Femur,0.5934,9.6804,-0.6125,0.2441,-0.4272,-0.1221,93.587,-3.4937,35.6232,0.6872,-0.2427,0.1882,0.6583
1777530224.0118635,L_Tibia,-0.2153,-8.7473,-4.1487,-0.2441,-0.2441,0.4883,-115.3729,1.3019,-103.3759,-0.5287,-0.6593,-0.4254,0.3238
1777530224.0118635,L_Foot,-1.024,-0.1148,10.001,-0.6714,-0.2441,0.3662,-0.6866,5.8612,113.9392,0.0396,0.0329,0.8371,0.5446
1777530224.0118635,R_Femur,0.0,0.0,0.0,0.0,0.0,0.0,0.0,0.0,0.0,0.0,0.0,0.0,1.0
1777530224.0118635,R_Tibia,-0.1005,-9.4794,2.4931,0.3052,-0.2441,0.3662,-75.2728,0.5658,-112.7472,-0.3414,-0.5063,-0.6611,0.436
1777530224.0118635,R_Foot,0.0,0.0,0.0,0.0,0.0,0.0,0.0,0.0,0.0,0.0,0.0,0.0,1.0
1777530224.0128632,Trunk,-7.1873,-0.6316,-6.4695,0.9766,0.0,-0.5493,-174.3695,47.84,64.4403,-0.7618,0.5036,-0.3187,0.2539
1777530224.0128632,L_Femur,0.5934,9.6804,-0.6125,0.2441,-0.4272,-0.1221,93.587,-3.4937,35.6232,0.6872,-0.2427,0.1882,0.6583
1777530224.0128632,L_Tibia,-0.2153,-8.7473,-4.1487,-0.2441,-0.2441,0.4883,-115.3729,1.3019,-103.3759,-0.5287,-0.6593,-0.4254,0.3238
1777530224.0128632,L_Foot,-1.024,-0.1148,10.001,-0.6714,-0.2441,0.3662,-0.6866,5.8612,113.9392,0.0396,0.0329,0.8371,0.5446
1777530224.0128632,R_Femur,0.0,0.0,0.0,0.0,0.0,0.0,0.0,0.0,0.0,0.0,0.0,0.0,1.0
1777530224.0128632,R_Tibia,-0.1005,-9.4794,2.4931,0.3052,-0.2441,0.3662,-75.2728,0.5658,-112.7472,-0.3414,-0.5063,-0.6611,0.436
1777530224.0128632,R_Foot,0.8565,1.225,9.8909,0.4272,0.0,-0.061,7.0752,-4.9384,5.3998,0.0596,-0.0459,0.0443,0.9962
1777530224.0128632,Trunk,-7.1873,-0.6269,-6.46,0.9766,0.0,-0.5493,-174.375,47.84,64.4458,-0.7618,0.5037,-0.3187,0.2539
1777530224.0128632,L_Femur,0.5934,9.6804,-0.6125,0.2441,-0.4272,-0.1221,93.587,-3.4937,35.6232,0.6872,-0.2427,0.1882,0.6583
1777530224.0128632,L_Tibia,-0.2153,-8.7473,-4.1487,-0.2441,-0.2441,0.4883,-115.3729,1.3019,-103.3759,-0.5287,-0.6593,-0.4254,0.3238
1777530224.0128632,L_Foot,-1.024,-0.1148,10.001,-0.6714,-0.2441,0.3662,-0.6866,5.8612,113.9392,0.0396,0.0329,0.8371,0.5446
1777530224.0128632,R_Femur,0.0,0.0,0.0,0.0,0.0,0.0,0.0,0.0,0.0,0.0,0.0,0.0,1.0
1777530224.0128632,R_Tibia,-0.1005,-9.4794,2.4931,0.3052,-0.2441,0.3662,-75.2728,0.5658,-112.7472,-0.3414,-0.5063,-0.6611,0.436
1777530224.0128632,R_Foot,0.8565,1.225,9.8909,0.4272,0.0,-0.061,7.0752,-4.9384,5.3998,0.0596,-0.0459,0.0443,0.9962
1777530224.0133686,Trunk,-7.1873,-0.6269,-6.46,0.9766,0.0,-0.5493,-174.375,47.84,64.4458,-0.7618,0.5037,-0.3187,0.2539
1777530224.0133686,L_Femur,0.5934,9.6852,-0.6125,0.2441,-0.3662,-0.1221,93.587,-3.4937,35.6232,0.6872,-0.2427,0.1882,0.6583
1777530224.0133686,L_Tibia,-0.2153,-8.7473,-4.1487,-0.2441,-0.2441,0.4883,-115.3729,1.3019,-103.3759,-0.5287,-0.6593,-0.4254,0.3238
1777530224.0133686,L_Foot,-1.024,-0.1148,10.001,-0.6714,-0.2441,0.3662,-0.6866,5.8612,113.9392,0.0396,0.0329,0.8371,0.5446
1777530224.0133686,R_Femur,0.0,0.0,0.0,0.0,0.0,0.0,0.0,0.0,0.0,0.0,0.0,0.0,1.0
1777530224.0133686,R_Tibia,-0.1005,-9.4794,2.4931,0.3052,-0.2441,0.3662,-75.2728,0.5658,-112.7472,-0.3414,-0.5063,-0.6611,0.436
1777530224.0133686,R_Foot,0.8565,1.225,9.8909,0.4272,0.0,-0.061,7.0752,-4.9384,5.3998,0.0596,-0.0459,0.0443,0.9962
1777530224.0133686,Trunk,-7.1873,-0.6269,-6.46,0.9766,0.0,-0.5493,-174.375,47.84,64.4458,-0.7618,0.5037,-0.3187,0.2539
1777530224.0133686,L_Femur,0.5934,9.6852,-0.6125,0.2441,-0.3662,-0.1221,93.587,-3.4937,35.6232,0.6872,-0.2427,0.1882,0.6583
1777530224.0133686,L_Tibia,-0.2249,-8.7473,-4.1487,-0.2441,-0.3052,0.4883,-115.3729,1.3019,-103.3813,-0.5286,-0.6593,-0.4254,0.3238
1777530224.0133686,L_Foot,-1.024,-0.1148,10.001,-0.6714,-0.2441,0.3662,-0.6866,5.8612,113.9392,0.0396,0.0329,0.8371,0.5446
1777530224.0133686,R_Femur,0.0,0.0,0.0,0.0,0.0,0.0,0.0,0.0,0.0,0.0,0.0,0.0,1.0
1777530224.0133686,R_Tibia,-0.1005,-9.4794,2.4931,0.3052,-0.2441,0.3662,-75.2728,0.5658,-112.7472,-0.3414,-0.5063,-0.6611,0.436
1777530224.0133686,R_Foot,0.8565,1.225,9.8909,0.4272,0.0,-0.061,7.0752,-4.9384,5.3998,0.0596,-0.0459,0.0443,0.9962
1777530224.0133686,Trunk,-7.1873,-0.6269,-6.46,0.9766,0.0,-0.5493,-174.375,47.84,64.4458,-0.7618,0.5037,-0.3187,0.2539
1777530224.0133686,L_Femur,0.5934,9.6852,-0.6125,0.2441,-0.3662,-0.1221,93.587,-3.4937,35.6232,0.6872,-0.2427,0.1882,0.6583
1777530224.0133686,L_Tibia,-0.2249,-8.7473,-4.1487,-0.2441,-0.3052,0.4883,-115.3729,1.3019,-103.3813,-0.5286,-0.6593,-0.4254,0.3238
1777530224.0133686,L_Foot,-1.024,-0.1148,10.001,-0.6714,-0.2441,0.3052,-0.6866,5.8612,113.9392,0.0396,0.0329,0.8371,0.5446
1777530224.0133686,R_Femur,0.0,0.0,0.0,0.0,0.0,0.0,0.0,0.0,0.0,0.0,0.0,0.0,1.0
1777530224.0133686,R_Tibia,-0.1005,-9.4794,2.4931,0.3052,-0.2441,0.3662,-75.2728,0.5658,-112.7472,-0.3414,-0.5063,-0.6611,0.436
1777530224.0133686,R_Foot,0.8565,1.225,9.8909,0.4272,0.0,-0.061,7.0752,-4.9384,5.3998,0.0596,-0.0459,0.0443,0.9962
1777530224.0133686,Trunk,-7.1873,-0.6269,-6.46,0.9766,0.0,-0.5493,-174.375,47.84,64.4458,-0.7618,0.5037,-0.3187,0.2539
1777530224.0133686,L_Femur,0.5934,9.6852,-0.6125,0.2441,-0.3662,-0.1221,93.587,-3.4937,35.6232,0.6872,-0.2427,0.1882,0.6583
1777530224.0133686,L_Tibia,-0.2249,-8.7473,-4.1487,-0.2441,-0.3052,0.4883,-115.3729,1.3019,-103.3813,-0.5286,-0.6593,-0.4254,0.3238
1777530224.0133686,L_Foot,-1.024,-0.1148,10.001,-0.6714,-0.2441,0.3052,-0.6866,5.8612,113.9392,0.0396,0.0329,0.8371,0.5446
1777530224.0133686,R_Femur,0.0,0.0,0.0,0.0,0.0,0.0,0.0,0.0,0.0,0.0,0.0,0.0,1.0
1777530224.0133686,R_Tibia,-0.0957,-9.4746,2.4883,0.2441,-0.1831,0.4272,-75.2728,0.5658,-112.7472,-0.3414,-0.5063,-0.6611,0.436
1777530224.0133686,R_Foot,0.8565,1.225,9.8909,0.4272,0.0,-0.061,7.0752,-4.9384,5.3998,0.0596,-0.0459,0.0443,0.9962
1777530224.0133686,Trunk,-7.1873,-0.6221,-6.46,0.9766,-0.1221,-0.6104,-174.375,47.84,64.4458,-0.7618,0.5037,-0.3187,0.2539
1777530224.0133686,L_Femur,0.5934,9.6852,-0.6125,0.2441,-0.3662,-0.1221,93.587,-3.4937,35.6232,0.6872,-0.2427,0.1882,0.6583
1777530224.0133686,L_Tibia,-0.2249,-8.7473,-4.1487,-0.2441,-0.3052,0.4883,-115.3729,1.3019,-103.3813,-0.5286,-0.6593,-0.4254,0.3238
1777530224.0133686,L_Foot,-1.024,-0.1148,10.001,-0.6714,-0.2441,0.3052,-0.6866,5.8612,113.9392,0.0396,0.0329,0.8371,0.5446
1777530224.0133686,R_Femur,0.0,0.0,0.0,0.0,0.0,0.0,0.0,0.0,0.0,0.0,0.0,0.0,1.0
1777530224.0133686,R_Tibia,-0.0957,-9.4746,2.4883,0.2441,-0.1831,0.4272,-75.2728,0.5658,-112.7472,-0.3414,-0.5063,-0.6611,0.436
1777530224.0133686,R_Foot,0.8565,1.225,9.8909,0.4272,0.0,-0.061,7.0752,-4.9384,5.3998,0.0596,-0.0459,0.0443,0.9962
1777530224.014375,Trunk,-7.1873,-0.6221,-6.46,0.9766,-0.1221,-0.6104,-174.375,47.84,64.4458,-0.7618,0.5037,-0.3187,0.2539
1777530224.014375,L_Femur,0.5934,9.6899,-0.6077,0.2441,-0.3662,-0.1221,93.587,-3.4937,35.6232,0.6872,-0.2427,0.1882,0.6583
1777530224.014375,L_Tibia,-0.2249,-8.7473,-4.1487,-0.2441,-0.3052,0.4883,-115.3729,1.3019,-103.3813,-0.5286,-0.6593,-0.4254,0.3238
1777530224.014375,L_Foot,-1.024,-0.1148,10.001,-0.6714,-0.2441,0.3052,-0.6866,5.8612,113.9392,0.0396,0.0329,0.8371,0.5446
1777530224.014375,R_Femur,0.0,0.0,0.0,0.0,0.0,0.0,0.0,0.0,0.0,0.0,0.0,0.0,1.0
1777530224.014375,R_Tibia,-0.0957,-9.4746,2.4883,0.2441,-0.1831,0.4272,-75.2728,0.5658,-112.7472,-0.3414,-0.5063,-0.6611,0.436
1777530224.014375,R_Foot,0.8565,1.225,9.8909,0.4272,0.0,-0.061,7.0752,-4.9384,5.3998,0.0596,-0.0459,0.0443,0.9962
1777530224.014375,Trunk,-7.1873,-0.6221,-6.46,0.9766,-0.1221,-0.6104,-174.375,47.84,64.4458,-0.7618,0.5037,-0.3187,0.2539
1777530224.014375,L_Femur,0.5934,9.6899,-0.6077,0.2441,-0.3662,-0.1221,93.587,-3.4937,35.6232,0.6872,-0.2427,0.1882,0.6583
1777530224.014375,L_Tibia,-0.2201,-8.7521,-4.1487,-0.2441,-0.3052,0.4883,-115.3729,1.3019,-103.3813,-0.5286,-0.6593,-0.4254,0.3238
1777530224.014375,L_Foot,-1.024,-0.1148,10.001,-0.6714,-0.2441,0.3052,-0.6866,5.8612,113.9392,0.0396,0.0329,0.8371,0.5446
1777530224.014375,R_Femur,0.0,0.0,0.0,0.0,0.0,0.0,0.0,0.0,0.0,0.0,0.0,0.0,1.0
1777530224.014375,R_Tibia,-0.0957,-9.4746,2.4883,0.2441,-0.1831,0.4272,-75.2728,0.5658,-112.7472,-0.3414,-0.5063,-0.6611,0.436
1777530224.014375,R_Foot,0.8565,1.225,9.8909,0.4272,0.0,-0.061,7.0752,-4.9384,5.3998,0.0596,-0.0459,0.0443,0.9962
1777530224.015375,Trunk,-7.1873,-0.6221,-6.46,0.9766,-0.1221,-0.6104,-174.375,47.84,64.4458,-0.7618,0.5037,-0.3187,0.2539
1777530224.015375,L_Femur,0.5934,9.6899,-0.6077,0.2441,-0.3662,-0.1221,93.587,-3.4937,35.6232,0.6872,-0.2427,0.1882,0.6583
1777530224.015375,L_Tibia,-0.2201,-8.7521,-4.1487,-0.2441,-0.3052,0.4883,-115.3729,1.3019,-103.3813,-0.5286,-0.6593,-0.4254,0.3238
1777530224.015375,L_Foot,-1.024,-0.1148,10.001,-0.7324,-0.2441,0.3052,-0.6866,5.8612,113.9392,0.0396,0.0329,0.8371,0.5446
1777530224.015375,R_Femur,0.0,0.0,0.0,0.0,0.0,0.0,0.0,0.0,0.0,0.0,0.0,0.0,1.0
1777530224.015375,R_Tibia,-0.0957,-9.4746,2.4883,0.2441,-0.1831,0.4272,-75.2728,0.5658,-112.7472,-0.3414,-0.5063,-0.6611,0.436
1777530224.015375,R_Foot,0.8565,1.225,9.8909,0.4272,0.0,-0.061,7.0752,-4.9384,5.3998,0.0596,-0.0459,0.0443,0.9962
1777530224.015375,Trunk,-7.1873,-0.6221,-6.46,0.9766,-0.1221,-0.6104,-174.375,47.84,64.4458,-0.7618,0.5037,-0.3187,0.2539
1777530224.015375,L_Femur,0.5934,9.6899,-0.6077,0.2441,-0.3662,-0.1221,93.587,-3.4937,35.6232,0.6872,-0.2427,0.1882,0.6583
1777530224.015375,L_Tibia,-0.2201,-8.7521,-4.1487,-0.2441,-0.3052,0.4883,-115.3729,1.3019,-103.3813,-0.5286,-0.6593,-0.4254,0.3238
1777530224.015375,L_Foot,-1.024,-0.1148,10.001,-0.7324,-0.2441,0.3052,-0.6866,5.8612,113.9392,0.0396,0.0329,0.8371,0.5446
1777530224.015375,R_Femur,0.0,0.0,0.0,0.0,0.0,0.0,0.0,0.0,0.0,0.0,0.0,0.0,1.0
1777530224.015375,R_Tibia,-0.0957,-9.4746,2.4883,0.2441,-0.1831,0.4272,-75.2728,0.5658,-112.7472,-0.3414,-0.5063,-0.6611,0.436
1777530224.015375,R_Foot,0.8518,1.2298,9.8909,0.4883,0.061,-0.1221,7.0752,-4.9384,5.3943,0.0596,-0.0459,0.0443,0.9962
1777530224.015375,Trunk,-7.1921,-0.6316,-6.46,0.9766,-0.1221,-0.5493,-174.375,47.84,64.4513,-0.7618,0.5037,-0.3187,0.2539
1777530224.015375,L_Femur,0.5934,9.6899,-0.6077,0.2441,-0.3662,-0.1221,93.587,-3.4937,35.6232,0.6872,-0.2427,0.1882,0.6583
1777530224.015375,L_Tibia,-0.2201,-8.7521,-4.1487,-0.2441,-0.3052,0.4883,-115.3729,1.3019,-103.3813,-0.5286,-0.6593,-0.4254,0.3238
1777530224.015375,L_Foot,-1.024,-0.1148,10.001,-0.7324,-0.2441,0.3052,-0.6866,5.8612,113.9392,0.0396,0.0329,0.8371,0.5446
1777530224.015375,R_Femur,0.0,0.0,0.0,0.0,0.0,0.0,0.0,0.0,0.0,0.0,0.0,0.0,1.0
1777530224.015375,R_Tibia,-0.0957,-9.4746,2.4883,0.2441,-0.1831,0.4272,-75.2728,0.5658,-112.7472,-0.3414,-0.5063,-0.6611,0.436
1777530224.015375,R_Foot,0.8518,1.2298,9.8909,0.4883,0.061,-0.1221,7.0752,-4.9384,5.3943,0.0596,-0.0459,0.0443,0.9962
1777530224.015375,Trunk,-7.1921,-0.6316,-6.46,0.9766,-0.1221,-0.5493,-174.375,47.84,64.4513,-0.7618,0.5037,-0.3187,0.2539
1777530224.015375,L_Femur,0.5886,9.6899,-0.6125,0.2441,-0.4272,-0.1221,93.587,-3.4937,35.6232,0.6872,-0.2427,0.1882,0.6583
1777530224.015375,L_Tibia,-0.2201,-8.7521,-4.1487,-0.2441,-0.3052,0.4883,-115.3729,1.3019,-103.3813,-0.5286,-0.6593,-0.4254,0.3238
1777530224.015375,L_Foot,-1.024,-0.1148,10.001,-0.7324,-0.2441,0.3052,-0.6866,5.8612,113.9392,0.0396,0.0329,0.8371,0.5446
1777530224.015375,R_Femur,0.0,0.0,0.0,0.0,0.0,0.0,0.0,0.0,0.0,0.0,0.0,0.0,1.0
1777530224.015375,R_Tibia,-0.0957,-9.4746,2.4883,0.2441,-0.1831,0.4272,-75.2728,0.5658,-112.7472,-0.3414,-0.5063,-0.6611,0.436
1777530224.015375,R_Foot,0.8518,1.2298,9.8909,0.4883,0.061,-0.1221,7.0752,-4.9384,5.3943,0.0596,-0.0459,0.0443,0.9962
1777530224.0163753,Trunk,-7.1921,-0.6316,-6.46,0.9766,-0.1221,-0.5493,-174.375,47.84,64.4513,-0.7618,0.5037,-0.3187,0.2539
1777530224.0163753,L_Femur,0.5886,9.6899,-0.6125,0.2441,-0.4272,-0.1221,93.587,-3.4937,35.6232,0.6872,-0.2427,0.1882,0.6583
1777530224.0163753,L_Tibia,-0.2201,-8.7521,-4.1487,-0.2441,-0.3052,0.4883,-115.3729,1.3019,-103.3868,-0.5286,-0.6594,-0.4254,0.3238
1777530224.0163753,L_Foot,-1.024,-0.1148,10.001,-0.7324,-0.2441,0.3052,-0.6866,5.8612,113.9392,0.0396,0.0329,0.8371,0.5446
1777530224.0163753,R_Femur,0.0,0.0,0.0,0.0,0.0,0.0,0.0,0.0,0.0,0.0,0.0,0.0,1.0
1777530224.0163753,R_Tibia,-0.0957,-9.4746,2.4883,0.2441,-0.1831,0.4272,-75.2728,0.5658,-112.7472,-0.3414,-0.5063,-0.6611,0.436
1777530224.0163753,R_Foot,0.8518,1.2298,9.8909,0.4883,0.061,-0.1221,7.0752,-4.9384,5.3943,0.0596,-0.0459,0.0443,0.9962
1777530224.0163753,Trunk,-7.1921,-0.6316,-6.46,0.9766,-0.1221,-0.5493,-174.375,47.84,64.4513,-0.7618,0.5037,-0.3187,0.2539
1777530224.0163753,L_Femur,0.5886,9.6899,-0.6125,0.2441,-0.4272,-0.1221,93.587,-3.4937,35.6232,0.6872,-0.2427,0.1882,0.6583
1777530224.0163753,L_Tibia,-0.2201,-8.7521,-4.1487,-0.2441,-0.3052,0.4883,-115.3729,1.3019,-103.3868,-0.5286,-0.6594,-0.4254,0.3238
1777530224.0163753,L_Foot,-1.0288,-0.1148,10.001,-0.6714,-0.2441,0.3662,-0.6866,5.8612,113.9392,0.0396,0.0329,0.8371,0.5446
1777530224.0163753,R_Femur,0.0,0.0,0.0,0.0,0.0,0.0,0.0,0.0,0.0,0.0,0.0,0.0,1.0
1777530224.0163753,R_Tibia,-0.0957,-9.4746,2.4883,0.2441,-0.1831,0.4272,-75.2728,0.5658,-112.7472,-0.3414,-0.5063,-0.6611,0.436
1777530224.0163753,R_Foot,0.8518,1.2298,9.8909,0.4883,0.061,-0.1221,7.0752,-4.9384,5.3943,0.0596,-0.0459,0.0443,0.9962
1777530224.0163753,Trunk,-7.1921,-0.6316,-6.46,0.9766,-0.1221,-0.5493,-174.375,47.84,64.4513,-0.7618,0.5037,-0.3187,0.2539
1777530224.0163753,L_Femur,0.5886,9.6899,-0.6125,0.2441,-0.4272,-0.1221,93.587,-3.4937,35.6232,0.6872,-0.2427,0.1882,0.6583
1777530224.0163753,L_Tibia,-0.2201,-8.7521,-4.1487,-0.2441,-0.3052,0.4883,-115.3729,1.3019,-103.3868,-0.5286,-0.6594,-0.4254,0.3238
1777530224.0163753,L_Foot,-1.0288,-0.1148,10.001,-0.6714,-0.2441,0.3662,-0.6866,5.8612,113.9392,0.0396,0.0329,0.8371,0.5446
1777530224.0163753,R_Femur,0.0,0.0,0.0,0.0,0.0,0.0,0.0,0.0,0.0,0.0,0.0,0.0,1.0
1777530224.0163753,R_Tibia,-0.0957,-9.4746,2.4883,0.2441,-0.2441,0.3662,-75.2728,0.5658,-112.7472,-0.3414,-0.5063,-0.6611,0.436
1777530224.0163753,R_Foot,0.8518,1.2298,9.8909,0.4883,0.061,-0.1221,7.0752,-4.9384,5.3943,0.0596,-0.0459,0.0443,0.9962
1777530224.0163753,Trunk,-7.1873,-0.6364,-6.46,0.9766,-0.1831,-0.6104,-174.375,47.84,64.4568,-0.7617,0.5037,-0.3187,0.2539
1777530224.0163753,L_Femur,0.5886,9.6899,-0.6125,0.2441,-0.4272,-0.1221,93.587,-3.4937,35.6232,0.6872,-0.2427,0.1882,0.6583
1777530224.0163753,L_Tibia,-0.2201,-8.7521,-4.1487,-0.2441,-0.3052,0.4883,-115.3729,1.3019,-103.3868,-0.5286,-0.6594,-0.4254,0.3238
1777530224.0163753,L_Foot,-1.0288,-0.1148,10.001,-0.6714,-0.2441,0.3662,-0.6866,5.8612,113.9392,0.0396,0.0329,0.8371,0.5446
1777530224.0163753,R_Femur,0.0,0.0,0.0,0.0,0.0,0.0,0.0,0.0,0.0,0.0,0.0,0.0,1.0
1777530224.0163753,R_Tibia,-0.0957,-9.4746,2.4883,0.2441,-0.2441,0.3662,-75.2728,0.5658,-112.7472,-0.3414,-0.5063,-0.6611,0.436
1777530224.0163753,R_Foot,0.8518,1.2298,9.8909,0.4883,0.061,-0.1221,7.0752,-4.9384,5.3943,0.0596,-0.0459,0.0443,0.9962
1777530224.0163753,Trunk,-7.1873,-0.6364,-6.46,0.9766,-0.1831,-0.6104,-174.375,47.84,64.4568,-0.7617,0.5037,-0.3187,0.2539
1777530224.0163753,L_Femur,0.5934,9.6852,-0.6029,0.1831,-0.4272,-0.1221,93.587,-3.4937,35.6232,0.6872,-0.2427,0.1882,0.6583
1777530224.0163753,L_Tibia,-0.2201,-8.7521,-4.1487,-0.2441,-0.3052,0.4883,-115.3729,1.3019,-103.3868,-0.5286,-0.6594,-0.4254,0.3238
1777530224.0163753,L_Foot,-1.0288,-0.1148,10.001,-0.6714,-0.2441,0.3662,-0.6866,5.8612,113.9392,0.0396,0.0329,0.8371,0.5446
1777530224.0163753,R_Femur,0.0,0.0,0.0,0.0,0.0,0.0,0.0,0.0,0.0,0.0,0.0,0.0,1.0
1777530224.0163753,R_Tibia,-0.0957,-9.4746,2.4883,0.2441,-0.2441,0.3662,-75.2728,0.5658,-112.7472,-0.3414,-0.5063,-0.6611,0.436
1777530224.0163753,R_Foot,0.8518,1.2298,9.8909,0.4883,0.061,-0.1221,7.0752,-4.9384,5.3943,0.0596,-0.0459,0.0443,0.9962
1777530224.0173757,Trunk,-7.1873,-0.6364,-6.46,0.9766,-0.1831,-0.6104,-174.375,47.84,64.4568,-0.7617,0.5037,-0.3187,0.2539
1777530224.0173757,L_Femur,0.5934,9.6852,-0.6029,0.1831,-0.4272,-0.1221,93.587,-3.4937,35.6232,0.6872,-0.2427,0.1882,0.6583
1777530224.0173757,L_Tibia,-0.2201,-8.7521,-4.1487,-0.2441,-0.3052,0.4883,-115.3729,1.3019,-103.3923,-0.5286,-0.6594,-0.4254,0.3238
1777530224.0173757,L_Foot,-1.0288,-0.1148,10.001,-0.6714,-0.2441,0.3662,-0.6866,5.8612,113.9392,0.0396,0.0329,0.8371,0.5446
1777530224.0173757,R_Femur,0.0,0.0,0.0,0.0,0.0,0.0,0.0,0.0,0.0,0.0,0.0,0.0,1.0
1777530224.0173757,R_Tibia,-0.0957,-9.4746,2.4883,0.2441,-0.2441,0.3662,-75.2728,0.5658,-112.7472,-0.3414,-0.5063,-0.6611,0.436
1777530224.0173757,R_Foot,0.8518,1.2298,9.8909,0.4883,0.061,-0.1221,7.0752,-4.9384,5.3943,0.0596,-0.0459,0.0443,0.9962
1777530224.0173757,Trunk,-7.1873,-0.6364,-6.46,0.9766,-0.1831,-0.6104,-174.375,47.84,64.4568,-0.7617,0.5037,-0.3187,0.2539
1777530224.0173757,L_Femur,0.5934,9.6852,-0.6029,0.1831,-0.4272,-0.1221,93.587,-3.4937,35.6232,0.6872,-0.2427,0.1882,0.6583
1777530224.0173757,L_Tibia,-0.2201,-8.7521,-4.1487,-0.2441,-0.3052,0.4883,-115.3729,1.3019,-103.3923,-0.5286,-0.6594,-0.4254,0.3238
1777530224.0173757,L_Foot,-1.024,-0.1101,9.9962,-0.6714,-0.2441,0.3052,-0.6866,5.8612,113.9392,0.0396,0.0329,0.8371,0.5446
1777530224.0173757,R_Femur,0.0,0.0,0.0,0.0,0.0,0.0,0.0,0.0,0.0,0.0,0.0,0.0,1.0
1777530224.0173757,R_Tibia,-0.0957,-9.4746,2.4883,0.2441,-0.2441,0.3662,-75.2728,0.5658,-112.7472,-0.3414,-0.5063,-0.6611,0.436
1777530224.0173757,R_Foot,0.8518,1.2298,9.8909,0.4883,0.061,-0.1221,7.0752,-4.9384,5.3943,0.0596,-0.0459,0.0443,0.9962
1777530224.0173757,Trunk,-7.1873,-0.6364,-6.46,0.9766,-0.1831,-0.6104,-174.375,47.84,64.4568,-0.7617,0.5037,-0.3187,0.2539
1777530224.0173757,L_Femur,0.5934,9.6852,-0.6029,0.1831,-0.4272,-0.1221,93.587,-3.4937,35.6232,0.6872,-0.2427,0.1882,0.6583
1777530224.0173757,L_Tibia,-0.2201,-8.7521,-4.1487,-0.2441,-0.3052,0.4883,-115.3729,1.3019,-103.3923,-0.5286,-0.6594,-0.4254,0.3238
1777530224.0173757,L_Foot,-1.024,-0.1101,9.9962,-0.6714,-0.2441,0.3052,-0.6866,5.8612,113.9392,0.0396,0.0329,0.8371,0.5446
1777530224.0173757,R_Femur,0.0,0.0,0.0,0.0,0.0,0.0,0.0,0.0,0.0,0.0,0.0,0.0,1.0
1777530224.0173757,R_Tibia,-0.0957,-9.4746,2.4883,0.2441,-0.2441,0.3662,-75.2728,0.5658,-112.7472,-0.3414,-0.5063,-0.6611,0.436
1777530224.0173757,R_Foot,0.8565,1.2298,9.8909,0.4883,0.061,-0.1221,7.0752,-4.9384,5.3888,0.0596,-0.0459,0.0442,0.9962
1777530224.0173757,Trunk,-7.1825,-0.646,-6.46,0.9766,-0.1221,-0.6104,-174.375,47.84,64.4568,-0.7617,0.5037,-0.3187,0.2539
1777530224.0173757,L_Femur,0.5934,9.6852,-0.6029,0.1831,-0.4272,-0.1221,93.587,-3.4937,35.6232,0.6872,-0.2427,0.1882,0.6583
1777530224.0173757,L_Tibia,-0.2201,-8.7521,-4.1487,-0.2441,-0.3052,0.4883,-115.3729,1.3019,-103.3923,-0.5286,-0.6594,-0.4254,0.3238
1777530224.0173757,L_Foot,-1.024,-0.1101,9.9962,-0.6714,-0.2441,0.3052,-0.6866,5.8612,113.9392,0.0396,0.0329,0.8371,0.5446
1777530224.0173757,R_Femur,0.0,0.0,0.0,0.0,0.0,0.0,0.0,0.0,0.0,0.0,0.0,0.0,1.0
1777530224.0173757,R_Tibia,-0.0957,-9.4746,2.4883,0.2441,-0.2441,0.3662,-75.2728,0.5658,-112.7472,-0.3414,-0.5063,-0.6611,0.436
1777530224.0173757,R_Foot,0.8565,1.2298,9.8909,0.4883,0.061,-0.1221,7.0752,-4.9384,5.3888,0.0596,-0.0459,0.0442,0.9962
1777530224.0173757,Trunk,-7.1825,-0.646,-6.46,0.9766,-0.1221,-0.6104,-174.375,47.84,64.4568,-0.7617,0.5037,-0.3187,0.2539
1777530224.0173757,L_Femur,0.5886,9.6852,-0.6077,0.1831,-0.4272,-0.1221,93.587,-3.4937,35.6232,0.6872,-0.2427,0.1882,0.6583
1777530224.0173757,L_Tibia,-0.2201,-8.7521,-4.1487,-0.2441,-0.3052,0.4883,-115.3729,1.3019,-103.3923,-0.5286,-0.6594,-0.4254,0.3238
1777530224.0173757,L_Foot,-1.024,-0.1101,9.9962,-0.6714,-0.2441,0.3052,-0.6866,5.8612,113.9392,0.0396,0.0329,0.8371,0.5446
1777530224.0173757,R_Femur,0.0,0.0,0.0,0.0,0.0,0.0,0.0,0.0,0.0,0.0,0.0,0.0,1.0
1777530224.0173757,R_Tibia,-0.0957,-9.4746,2.4883,0.2441,-0.2441,0.3662,-75.2728,0.5658,-112.7472,-0.3414,-0.5063,-0.6611,0.436
1777530224.0173757,R_Foot,0.8565,1.2298,9.8909,0.4883,0.061,-0.1221,7.0752,-4.9384,5.3888,0.0596,-0.0459,0.0442,0.9962
1777530224.0183752,Trunk,-7.1825,-0.646,-6.46,0.9766,-0.1221,-0.6104,-174.375,47.84,64.4568,-0.7617,0.5037,-0.3187,0.2539
1777530224.0183752,L_Femur,0.5886,9.6852,-0.6077,0.1831,-0.4272,-0.1221,93.587,-3.4937,35.6232,0.6872,-0.2427,0.1882,0.6583
1777530224.0183752,L_Tibia,-0.2201,-8.7521,-4.1535,-0.2441,-0.2441,0.4883,-115.3729,1.3019,-103.3923,-0.5286,-0.6594,-0.4254,0.3238
1777530224.0183752,L_Foot,-1.024,-0.1101,9.9962,-0.6714,-0.2441,0.3052,-0.6866,5.8612,113.9392,0.0396,0.0329,0.8371,0.5446
1777530224.0183752,R_Femur,0.0,0.0,0.0,0.0,0.0,0.0,0.0,0.0,0.0,0.0,0.0,0.0,1.0
1777530224.0183752,R_Tibia,-0.0957,-9.4746,2.4883,0.2441,-0.2441,0.3662,-75.2728,0.5658,-112.7472,-0.3414,-0.5063,-0.6611,0.436
1777530224.0183752,R_Foot,0.8565,1.2298,9.8909,0.4883,0.061,-0.1221,7.0752,-4.9384,5.3888,0.0596,-0.0459,0.0442,0.9962
1777530224.0183752,Trunk,-7.1825,-0.646,-6.46,0.9766,-0.1221,-0.6104,-174.375,47.84,64.4568,-0.7617,0.5037,-0.3187,0.2539
1777530224.0183752,L_Femur,0.5886,9.6852,-0.6077,0.1831,-0.4272,-0.1221,93.587,-3.4937,35.6232,0.6872,-0.2427,0.1882,0.6583
1777530224.0183752,L_Tibia,-0.2201,-8.7521,-4.1535,-0.2441,-0.2441,0.4883,-115.3729,1.3019,-103.3923,-0.5286,-0.6594,-0.4254,0.3238
1777530224.0183752,L_Foot,-1.0288,-0.1148,9.9962,-0.6714,-0.2441,0.3052,-0.6866,5.8612,113.9392,0.0396,0.0329,0.8371,0.5446
1777530224.0183752,R_Femur,0.0,0.0,0.0,0.0,0.0,0.0,0.0,0.0,0.0,0.0,0.0,0.0,1.0
1777530224.0183752,R_Tibia,-0.0957,-9.4746,2.4883,0.2441,-0.2441,0.3662,-75.2728,0.5658,-112.7472,-0.3414,-0.5063,-0.6611,0.436
1777530224.0183752,R_Foot,0.8565,1.2298,9.8909,0.4883,0.061,-0.1221,7.0752,-4.9384,5.3888,0.0596,-0.0459,0.0442,0.9962
1777530224.0183752,Trunk,-7.1825,-0.646,-6.46,0.9766,-0.1221,-0.6104,-174.375,47.84,64.4568,-0.7617,0.5037,-0.3187,0.2539
1777530224.0183752,L_Femur,0.5886,9.6852,-0.6077,0.1831,-0.4272,-0.1221,93.587,-3.4937,35.6232,0.6872,-0.2427,0.1882,0.6583
1777530224.0183752,L_Tibia,-0.2201,-8.7521,-4.1535,-0.2441,-0.2441,0.4883,-115.3729,1.3019,-103.3923,-0.5286,-0.6594,-0.4254,0.3238
1777530224.0183752,L_Foot,-1.0288,-0.1148,9.9962,-0.6714,-0.2441,0.3052,-0.6866,5.8612,113.9392,0.0396,0.0329,0.8371,0.5446
1777530224.0183752,R_Femur,0.0,0.0,0.0,0.0,0.0,0.0,0.0,0.0,0.0,0.0,0.0,0.0,1.0
1777530224.0183752,R_Tibia,-0.0957,-9.4746,2.4931,0.2441,-0.1221,0.3662,-75.2728,0.5658,-112.7472,-0.3414,-0.5063,-0.6611,0.436
1777530224.0183752,R_Foot,0.8565,1.2298,9.8909,0.4883,0.061,-0.1221,7.0752,-4.9384,5.3888,0.0596,-0.0459,0.0442,0.9962
1777530224.0183752,Trunk,-7.1777,-0.6604,-6.4647,0.9766,-0.1221,-0.5493,-174.375,47.84,64.4568,-0.7617,0.5037,-0.3187,0.2539
1777530224.0183752,L_Femur,0.5886,9.6852,-0.6077,0.1831,-0.4272,-0.1221,93.587,-3.4937,35.6232,0.6872,-0.2427,0.1882,0.6583
1777530224.0183752,L_Tibia,-0.2201,-8.7521,-4.1535,-0.2441,-0.2441,0.4883,-115.3729,1.3019,-103.3923,-0.5286,-0.6594,-0.4254,0.3238
1777530224.0183752,L_Foot,-1.0288,-0.1148,9.9962,-0.6714,-0.2441,0.3052,-0.6866,5.8612,113.9392,0.0396,0.0329,0.8371,0.5446
1777530224.0183752,R_Femur,0.0,0.0,0.0,0.0,0.0,0.0,0.0,0.0,0.0,0.0,0.0,0.0,1.0
1777530224.0183752,R_Tibia,-0.0957,-9.4746,2.4931,0.2441,-0.1221,0.3662,-75.2728,0.5658,-112.7472,-0.3414,-0.5063,-0.6611,0.436
1777530224.0183752,R_Foot,0.8565,1.2298,9.8909,0.4883,0.061,-0.1221,7.0752,-4.9384,5.3888,0.0596,-0.0459,0.0442,0.9962
1777530224.101892,Trunk,-7.1777,-0.6604,-6.4647,0.9766,-0.1221,-0.5493,-174.375,47.84,64.4568,-0.7617,0.5037,-0.3187,0.2539
1777530224.101892,L_Femur,0.5934,9.6899,-0.6077,0.2441,-0.4272,-0.1221,93.587,-3.4937,35.6232,0.6872,-0.2427,0.1882,0.6583
1777530224.101892,L_Tibia,-0.2201,-8.7521,-4.1535,-0.2441,-0.2441,0.4883,-115.3729,1.3019,-103.3923,-0.5286,-0.6594,-0.4254,0.3238
1777530224.101892,L_Foot,-1.0288,-0.1148,9.9962,-0.6714,-0.2441,0.3052,-0.6866,5.8612,113.9392,0.0396,0.0329,0.8371,0.5446
1777530224.101892,R_Femur,0.0,0.0,0.0,0.0,0.0,0.0,0.0,0.0,0.0,0.0,0.0,0.0,1.0
1777530224.101892,R_Tibia,-0.0957,-9.4746,2.4931,0.2441,-0.1221,0.3662,-75.2728,0.5658,-112.7472,-0.3414,-0.5063,-0.6611,0.436
1777530224.101892,R_Foot,0.8565,1.2298,9.8909,0.4883,0.061,-0.1221,7.0752,-4.9384,5.3888,0.0596,-0.0459,0.0442,0.9962
1777530224.101892,Trunk,-7.1777,-0.6604,-6.4647,0.9766,-0.1221,-0.5493,-174.375,47.84,64.4568,-0.7617,0.5037,-0.3187,0.2539
1777530224.101892,L_Femur,0.5934,9.6899,-0.6077,0.2441,-0.4272,-0.1221,93.587,-3.4937,35.6232,0.6872,-0.2427,0.1882,0.6583
1777530224.101892,L_Tibia,-0.2201,-8.7521,-4.1535,-0.2441,-0.2441,0.4272,-115.3729,1.3019,-103.3923,-0.5286,-0.6594,-0.4254,0.3238
1777530224.101892,L_Foot,-1.0288,-0.1148,9.9962,-0.6714,-0.2441,0.3052,-0.6866,5.8612,113.9392,0.0396,0.0329,0.8371,0.5446
1777530224.101892,R_Femur,0.0,0.0,0.0,0.0,0.0,0.0,0.0,0.0,0.0,0.0,0.0,0.0,1.0
1777530224.101892,R_Tibia,-0.0957,-9.4746,2.4931,0.2441,-0.1221,0.3662,-75.2728,0.5658,-112.7472,-0.3414,-0.5063,-0.6611,0.436
1777530224.101892,R_Foot,0.8565,1.2298,9.8909,0.4883,0.061,-0.1221,7.0752,-4.9384,5.3888,0.0596,-0.0459,0.0442,0.9962
1777530224.101892,Trunk,-7.1777,-0.6604,-6.4647,0.9766,-0.1221,-0.5493,-174.375,47.84,64.4568,-0.7617,0.5037,-0.3187,0.2539
1777530224.101892,L_Femur,0.5934,9.6899,-0.6077,0.2441,-0.4272,-0.1221,93.587,-3.4937,35.6232,0.6872,-0.2427,0.1882,0.6583
1777530224.101892,L_Tibia,-0.2201,-8.7521,-4.1535,-0.2441,-0.2441,0.4272,-115.3729,1.3019,-103.3923,-0.5286,-0.6594,-0.4254,0.3238
1777530224.101892,L_Foot,-1.0288,-0.1148,10.001,-0.7324,-0.3052,0.3052,-0.6866,5.8612,113.9392,0.0396,0.0329,0.8371,0.5446
1777530224.101892,R_Femur,0.0,0.0,0.0,0.0,0.0,0.0,0.0,0.0,0.0,0.0,0.0,0.0,1.0
1777530224.101892,R_Tibia,-0.0957,-9.4746,2.4931,0.2441,-0.1221,0.3662,-75.2728,0.5658,-112.7472,-0.3414,-0.5063,-0.6611,0.436
1777530224.101892,R_Foot,0.8565,1.2298,9.8909,0.4883,0.061,-0.1221,7.0752,-4.9384,5.3888,0.0596,-0.0459,0.0442,0.9962
1777530224.1028981,Trunk,-7.1777,-0.6604,-6.4647,0.9766,-0.1221,-0.5493,-174.375,47.84,64.4568,-0.7617,0.5037,-0.3187,0.2539
1777530224.1028981,L_Femur,0.5934,9.6899,-0.6077,0.2441,-0.4272,-0.1221,93.587,-3.4937,35.6232,0.6872,-0.2427,0.1882,0.6583
1777530224.1028981,L_Tibia,-0.2201,-8.7521,-4.1535,-0.2441,-0.2441,0.4272,-115.3729,1.3019,-103.3923,-0.5286,-0.6594,-0.4254,0.3238
1777530224.1028981,L_Foot,-1.0288,-0.1148,10.001,-0.7324,-0.3052,0.3052,-0.6866,5.8612,113.9392,0.0396,0.0329,0.8371,0.5446
1777530224.1028981,R_Femur,0.0,0.0,0.0,0.0,0.0,0.0,0.0,0.0,0.0,0.0,0.0,0.0,1.0
1777530224.1028981,R_Tibia,-0.0957,-9.4746,2.4931,0.2441,-0.1221,0.3662,-75.2728,0.5658,-112.7472,-0.3414,-0.5063,-0.6611,0.436
1777530224.1028981,R_Foot,0.8565,1.2298,9.8957,0.4883,0.061,-0.1221,7.0752,-4.9384,5.3888,0.0596,-0.0459,0.0442,0.9962
1777530224.1028981,Trunk,-7.1729,-0.6699,-6.4647,0.9766,-0.1221,-0.5493,-174.375,47.84,64.4623,-0.7617,0.5038,-0.3186,0.2539
1777530224.1028981,L_Femur,0.5934,9.6899,-0.6077,0.2441,-0.4272,-0.1221,93.587,-3.4937,35.6232,0.6872,-0.2427,0.1882,0.6583
1777530224.1028981,L_Tibia,-0.2201,-8.7521,-4.1535,-0.2441,-0.2441,0.4272,-115.3729,1.3019,-103.3923,-0.5286,-0.6594,-0.4254,0.3238
1777530224.1028981,L_Foot,-1.0288,-0.1148,10.001,-0.7324,-0.3052,0.3052,-0.6866,5.8612,113.9392,0.0396,0.0329,0.8371,0.5446
1777530224.1028981,R_Femur,0.0,0.0,0.0,0.0,0.0,0.0,0.0,0.0,0.0,0.0,0.0,0.0,1.0
1777530224.1028981,R_Tibia,-0.0957,-9.4746,2.4931,0.2441,-0.1221,0.3662,-75.2728,0.5658,-112.7472,-0.3414,-0.5063,-0.6611,0.436
1777530224.1028981,R_Foot,0.8565,1.2298,9.8957,0.4883,0.061,-0.1221,7.0752,-4.9384,5.3888,0.0596,-0.0459,0.0442,0.9962
1777530224.1028981,Trunk,-7.1729,-0.6699,-6.4647,0.9766,-0.1221,-0.5493,-174.375,47.84,64.4623,-0.7617,0.5038,-0.3186,0.2539
1777530224.1028981,L_Femur,0.5934,9.6899,-0.6077,0.3052,-0.4272,-0.1221,93.587,-3.4937,35.6232,0.6872,-0.2427,0.1882,0.6583
1777530224.1028981,L_Tibia,-0.2201,-8.7521,-4.1535,-0.2441,-0.2441,0.4272,-115.3729,1.3019,-103.3923,-0.5286,-0.6594,-0.4254,0.3238
1777530224.1028981,L_Foot,-1.0288,-0.1148,10.001,-0.7324,-0.3052,0.3052,-0.6866,5.8612,113.9392,0.0396,0.0329,0.8371,0.5446
1777530224.1028981,R_Femur,0.0,0.0,0.0,0.0,0.0,0.0,0.0,0.0,0.0,0.0,0.0,0.0,1.0
1777530224.1028981,R_Tibia,-0.0957,-9.4746,2.4931,0.2441,-0.1221,0.3662,-75.2728,0.5658,-112.7472,-0.3414,-0.5063,-0.6611,0.436
1777530224.1028981,R_Foot,0.8565,1.2298,9.8957,0.4883,0.061,-0.1221,7.0752,-4.9384,5.3888,0.0596,-0.0459,0.0442,0.9962
1777530224.1028981,Trunk,-7.1729,-0.6699,-6.4647,0.9766,-0.1221,-0.5493,-174.375,47.84,64.4623,-0.7617,0.5038,-0.3186,0.2539
1777530224.1028981,L_Femur,0.5934,9.6899,-0.6077,0.3052,-0.4272,-0.1221,93.587,-3.4937,35.6232,0.6872,-0.2427,0.1882,0.6583
1777530224.1028981,L_Tibia,-0.2249,-8.7521,-4.1535,-0.2441,-0.2441,0.5493,-115.3729,1.3019,-103.3978,-0.5285,-0.6594,-0.4254,0.3238
1777530224.1028981,L_Foot,-1.0288,-0.1148,10.001,-0.7324,-0.3052,0.3052,-0.6866,5.8612,113.9392,0.0396,0.0329,0.8371,0.5446
1777530224.1028981,R_Femur,0.0,0.0,0.0,0.0,0.0,0.0,0.0,0.0,0.0,0.0,0.0,0.0,1.0
1777530224.1028981,R_Tibia,-0.0957,-9.4746,2.4931,0.2441,-0.1221,0.3662,-75.2728,0.5658,-112.7472,-0.3414,-0.5063,-0.6611,0.436
1777530224.1028981,R_Foot,0.8565,1.2298,9.8957,0.4883,0.061,-0.1221,7.0752,-4.9384,5.3888,0.0596,-0.0459,0.0442,0.9962
1777530224.1028981,Trunk,-7.1729,-0.6699,-6.4647,0.9766,-0.1221,-0.5493,-174.375,47.84,64.4623,-0.7617,0.5038,-0.3186,0.2539
1777530224.1028981,L_Femur,0.5934,9.6899,-0.6077,0.3052,-0.4272,-0.1221,93.587,-3.4937,35.6232,0.6872,-0.2427,0.1882,0.6583
1777530224.1028981,L_Tibia,-0.2249,-8.7521,-4.1535,-0.2441,-0.2441,0.5493,-115.3729,1.3019,-103.3978,-0.5285,-0.6594,-0.4254,0.3238
1777530224.1028981,L_Foot,-1.0288,-0.1148,10.0058,-0.6714,-0.3052,0.3052,-0.6866,5.8612,113.9392,0.0396,0.0329,0.8371,0.5446
1777530224.1028981,R_Femur,0.0,0.0,0.0,0.0,0.0,0.0,0.0,0.0,0.0,0.0,0.0,0.0,1.0
1777530224.1028981,R_Tibia,-0.0957,-9.4746,2.4931,0.2441,-0.1221,0.3662,-75.2728,0.5658,-112.7472,-0.3414,-0.5063,-0.6611,0.436
1777530224.1028981,R_Foot,0.8565,1.2298,9.8957,0.4883,0.061,-0.1221,7.0752,-4.9384,5.3888,0.0596,-0.0459,0.0442,0.9962
1777530224.103898,Trunk,-7.1729,-0.6699,-6.4647,0.9766,-0.1221,-0.5493,-174.375,47.84,64.4623,-0.7617,0.5038,-0.3186,0.2539
1777530224.103898,L_Femur,0.5934,9.6899,-0.6077,0.3052,-0.4272,-0.1221,93.587,-3.4937,35.6232,0.6872,-0.2427,0.1882,0.6583
1777530224.103898,L_Tibia,-0.2249,-8.7521,-4.1535,-0.2441,-0.2441,0.5493,-115.3729,1.3019,-103.3978,-0.5285,-0.6594,-0.4254,0.3238
1777530224.103898,L_Foot,-1.0288,-0.1148,10.0058,-0.6714,-0.3052,0.3052,-0.6866,5.8612,113.9392,0.0396,0.0329,0.8371,0.5446
1777530224.103898,R_Femur,0.0,0.0,0.0,0.0,0.0,0.0,0.0,0.0,0.0,0.0,0.0,0.0,1.0
1777530224.103898,R_Tibia,-0.0957,-9.4794,2.4931,0.2441,-0.1831,0.3662,-75.2728,0.5658,-112.7472,-0.3414,-0.5063,-0.6611,0.436
1777530224.103898,R_Foot,0.8565,1.2298,9.8957,0.4883,0.061,-0.1221,7.0752,-4.9384,5.3888,0.0596,-0.0459,0.0442,0.9962
1777530224.103898,Trunk,-7.1682,-0.6747,-6.4695,0.9155,-0.1831,-0.6104,-174.375,47.84,64.4678,-0.7617,0.5038,-0.3186,0.2539
1777530224.103898,L_Femur,0.5934,9.6899,-0.6077,0.3052,-0.4272,-0.1221,93.587,-3.4937,35.6232,0.6872,-0.2427,0.1882,0.6583
1777530224.103898,L_Tibia,-0.2249,-8.7521,-4.1535,-0.2441,-0.2441,0.5493,-115.3729,1.3019,-103.3978,-0.5285,-0.6594,-0.4254,0.3238
1777530224.103898,L_Foot,-1.0288,-0.1148,10.0058,-0.6714,-0.3052,0.3052,-0.6866,5.8612,113.9392,0.0396,0.0329,0.8371,0.5446
1777530224.103898,R_Femur,0.0,0.0,0.0,0.0,0.0,0.0,0.0,0.0,0.0,0.0,0.0,0.0,1.0
1777530224.103898,R_Tibia,-0.0957,-9.4794,2.4931,0.2441,-0.1831,0.3662,-75.2728,0.5658,-112.7472,-0.3414,-0.5063,-0.6611,0.436
1777530224.103898,R_Foot,0.8565,1.2298,9.8957,0.4883,0.061,-0.1221,7.0752,-4.9384,5.3888,0.0596,-0.0459,0.0442,0.9962
1777530224.1044037,Trunk,-7.1682,-0.6747,-6.4695,0.9155,-0.1831,-0.6104,-174.375,47.84,64.4678,-0.7617,0.5038,-0.3186,0.2539
1777530224.1044037,L_Femur,0.5934,9.6899,-0.6077,0.2441,-0.4272,-0.1221,93.587,-3.4937,35.6232,0.6872,-0.2427,0.1882,0.6583
1777530224.1044037,L_Tibia,-0.2249,-8.7521,-4.1535,-0.2441,-0.2441,0.5493,-115.3729,1.3019,-103.3978,-0.5285,-0.6594,-0.4254,0.3238
1777530224.1044037,L_Foot,-1.0288,-0.1148,10.0058,-0.6714,-0.3052,0.3052,-0.6866,5.8612,113.9392,0.0396,0.0329,0.8371,0.5446
1777530224.1044037,R_Femur,0.0,0.0,0.0,0.0,0.0,0.0,0.0,0.0,0.0,0.0,0.0,0.0,1.0
1777530224.1044037,R_Tibia,-0.0957,-9.4794,2.4931,0.2441,-0.1831,0.3662,-75.2728,0.5658,-112.7472,-0.3414,-0.5063,-0.6611,0.436
1777530224.1044037,R_Foot,0.8565,1.2298,9.8957,0.4883,0.061,-0.1221,7.0752,-4.9384,5.3888,0.0596,-0.0459,0.0442,0.9962
1777530224.1044037,Trunk,-7.1682,-0.6747,-6.4695,0.9155,-0.1831,-0.6104,-174.375,47.84,64.4678,-0.7617,0.5038,-0.3186,0.2539
1777530224.1044037,L_Femur,0.5934,9.6899,-0.6077,0.2441,-0.4272,-0.1221,93.587,-3.4937,35.6232,0.6872,-0.2427,0.1882,0.6583
1777530224.1044037,L_Tibia,-0.2153,-8.7521,-4.1535,-0.2441,-0.3052,0.4272,-115.3729,1.3019,-103.4033,-0.5285,-0.6595,-0.4254,0.3237
1777530224.1044037,L_Foot,-1.0288,-0.1148,10.0058,-0.6714,-0.3052,0.3052,-0.6866,5.8612,113.9392,0.0396,0.0329,0.8371,0.5446
1777530224.1044037,R_Femur,0.0,0.0,0.0,0.0,0.0,0.0,0.0,0.0,0.0,0.0,0.0,0.0,1.0
1777530224.1044037,R_Tibia,-0.0957,-9.4794,2.4931,0.2441,-0.1831,0.3662,-75.2728,0.5658,-112.7472,-0.3414,-0.5063,-0.6611,0.436
1777530224.1044037,R_Foot,0.8565,1.2298,9.8957,0.4883,0.061,-0.1221,7.0752,-4.9384,5.3888,0.0596,-0.0459,0.0442,0.9962
1777530224.1044037,Trunk,-7.1682,-0.6747,-6.4695,0.9155,-0.1831,-0.6104,-174.375,47.84,64.4678,-0.7617,0.5038,-0.3186,0.2539
1777530224.1044037,L_Femur,0.5934,9.6899,-0.6077,0.2441,-0.4272,-0.1221,93.587,-3.4937,35.6232,0.6872,-0.2427,0.1882,0.6583
1777530224.1044037,L_Tibia,-0.2153,-8.7521,-4.1535,-0.2441,-0.3052,0.4272,-115.3729,1.3019,-103.4033,-0.5285,-0.6595,-0.4254,0.3237
1777530224.1044037,L_Foot,-1.024,-0.1148,9.9962,-0.7324,-0.2441,0.3052,-0.6866,5.8612,113.9392,0.0396,0.0329,0.8371,0.5446
1777530224.1044037,R_Femur,0.0,0.0,0.0,0.0,0.0,0.0,0.0,0.0,0.0,0.0,0.0,0.0,1.0
1777530224.1044037,R_Tibia,-0.0957,-9.4794,2.4931,0.2441,-0.1831,0.3662,-75.2728,0.5658,-112.7472,-0.3414,-0.5063,-0.6611,0.436
1777530224.1044037,R_Foot,0.8565,1.2298,9.8957,0.4883,0.061,-0.1221,7.0752,-4.9384,5.3888,0.0596,-0.0459,0.0442,0.9962
1777530224.1044037,Trunk,-7.1682,-0.6747,-6.4695,0.9155,-0.1831,-0.6104,-174.375,47.84,64.4678,-0.7617,0.5038,-0.3186,0.2539
1777530224.1044037,L_Femur,0.5934,9.6899,-0.6077,0.2441,-0.4272,-0.1221,93.587,-3.4937,35.6232,0.6872,-0.2427,0.1882,0.6583
1777530224.1044037,L_Tibia,-0.2153,-8.7521,-4.1535,-0.2441,-0.3052,0.4272,-115.3729,1.3019,-103.4033,-0.5285,-0.6595,-0.4254,0.3237
1777530224.1044037,L_Foot,-1.024,-0.1148,9.9962,-0.7324,-0.2441,0.3052,-0.6866,5.8612,113.9392,0.0396,0.0329,0.8371,0.5446
1777530224.1044037,R_Femur,0.0,0.0,0.0,0.0,0.0,0.0,0.0,0.0,0.0,0.0,0.0,0.0,1.0
1777530224.1044037,R_Tibia,-0.0957,-9.4794,2.4931,0.2441,-0.1831,0.3662,-75.2728,0.5658,-112.7472,-0.3414,-0.5063,-0.6611,0.436
1777530224.1044037,R_Foot,0.8565,1.225,9.8957,0.4883,0.0,-0.1221,7.0752,-4.9384,5.3833,0.0596,-0.0458,0.0442,0.9962
1777530224.1044037,Trunk,-7.1682,-0.6651,-6.4743,0.9766,-0.1221,-0.6104,-174.375,47.84,64.4733,-0.7617,0.5038,-0.3186,0.254
1777530224.1044037,L_Femur,0.5934,9.6899,-0.6077,0.2441,-0.4272,-0.1221,93.587,-3.4937,35.6232,0.6872,-0.2427,0.1882,0.6583
1777530224.1044037,L_Tibia,-0.2153,-8.7521,-4.1535,-0.2441,-0.3052,0.4272,-115.3729,1.3019,-103.4033,-0.5285,-0.6595,-0.4254,0.3237
1777530224.1044037,L_Foot,-1.024,-0.1148,9.9962,-0.7324,-0.2441,0.3052,-0.6866,5.8612,113.9392,0.0396,0.0329,0.8371,0.5446
1777530224.1044037,R_Femur,0.0,0.0,0.0,0.0,0.0,0.0,0.0,0.0,0.0,0.0,0.0,0.0,1.0
1777530224.1044037,R_Tibia,-0.0957,-9.4794,2.4931,0.2441,-0.1831,0.3662,-75.2728,0.5658,-112.7472,-0.3414,-0.5063,-0.6611,0.436
1777530224.1044037,R_Foot,0.8565,1.225,9.8957,0.4883,0.0,-0.1221,7.0752,-4.9384,5.3833,0.0596,-0.0458,0.0442,0.9962
1777530224.1044037,Trunk,-7.1682,-0.6651,-6.4743,0.9766,-0.1221,-0.6104,-174.375,47.84,64.4733,-0.7617,0.5038,-0.3186,0.254
1777530224.1044037,L_Femur,0.5934,9.6852,-0.6077,0.2441,-0.4272,-0.1221,93.587,-3.4937,35.6232,0.6872,-0.2427,0.1882,0.6583
1777530224.1044037,L_Tibia,-0.2153,-8.7521,-4.1535,-0.2441,-0.3052,0.4272,-115.3729,1.3019,-103.4033,-0.5285,-0.6595,-0.4254,0.3237
1777530224.1044037,L_Foot,-1.024,-0.1148,9.9962,-0.7324,-0.2441,0.3052,-0.6866,5.8612,113.9392,0.0396,0.0329,0.8371,0.5446
1777530224.1044037,R_Femur,0.0,0.0,0.0,0.0,0.0,0.0,0.0,0.0,0.0,0.0,0.0,0.0,1.0
1777530224.1044037,R_Tibia,-0.0957,-9.4794,2.4931,0.2441,-0.1831,0.3662,-75.2728,0.5658,-112.7472,-0.3414,-0.5063,-0.6611,0.436
1777530224.1044037,R_Foot,0.8565,1.225,9.8957,0.4883,0.0,-0.1221,7.0752,-4.9384,5.3833,0.0596,-0.0458,0.0442,0.9962
1777530224.1054049,Trunk,-7.1682,-0.6651,-6.4743,0.9766,-0.1221,-0.6104,-174.375,47.84,64.4733,-0.7617,0.5038,-0.3186,0.254
1777530224.1054049,L_Femur,0.5934,9.6852,-0.6077,0.2441,-0.4272,-0.1221,93.587,-3.4937,35.6232,0.6872,-0.2427,0.1882,0.6583
1777530224.1054049,L_Tibia,-0.2201,-8.7473,-4.1535,-0.2441,-0.3052,0.4883,-115.3729,1.3019,-103.4033,-0.5285,-0.6595,-0.4254,0.3237
1777530224.1054049,L_Foot,-1.024,-0.1148,9.9962,-0.7324,-0.2441,0.3052,-0.6866,5.8612,113.9392,0.0396,0.0329,0.8371,0.5446
1777530224.1054049,R_Femur,0.0,0.0,0.0,0.0,0.0,0.0,0.0,0.0,0.0,0.0,0.0,0.0,1.0
1777530224.1054049,R_Tibia,-0.0957,-9.4794,2.4931,0.2441,-0.1831,0.3662,-75.2728,0.5658,-112.7472,-0.3414,-0.5063,-0.6611,0.436
1777530224.1054049,R_Foot,0.8565,1.225,9.8957,0.4883,0.0,-0.1221,7.0752,-4.9384,5.3833,0.0596,-0.0458,0.0442,0.9962
1777530224.1054049,Trunk,-7.1682,-0.6651,-6.4743,0.9766,-0.1221,-0.6104,-174.375,47.84,64.4733,-0.7617,0.5038,-0.3186,0.254
1777530224.1054049,L_Femur,0.5934,9.6852,-0.6077,0.2441,-0.4272,-0.1221,93.587,-3.4937,35.6232,0.6872,-0.2427,0.1882,0.6583
1777530224.1054049,L_Tibia,-0.2201,-8.7473,-4.1535,-0.2441,-0.3052,0.4883,-115.3729,1.3019,-103.4033,-0.5285,-0.6595,-0.4254,0.3237
1777530224.1054049,L_Foot,-1.0288,-0.1148,10.001,-0.6714,-0.3052,0.3052,-0.6866,5.8612,113.9392,0.0396,0.0329,0.8371,0.5446
1777530224.1054049,R_Femur,0.0,0.0,0.0,0.0,0.0,0.0,0.0,0.0,0.0,0.0,0.0,0.0,1.0
1777530224.1054049,R_Tibia,-0.0957,-9.4794,2.4931,0.2441,-0.1831,0.3662,-75.2728,0.5658,-112.7472,-0.3414,-0.5063,-0.6611,0.436
1777530224.1054049,R_Foot,0.8565,1.225,9.8957,0.4883,0.0,-0.1221,7.0752,-4.9384,5.3833,0.0596,-0.0458,0.0442,0.9962
1777530224.1054049,Trunk,-7.1682,-0.6651,-6.4743,0.9766,-0.1221,-0.6104,-174.375,47.84,64.4733,-0.7617,0.5038,-0.3186,0.254
1777530224.1054049,L_Femur,0.5934,9.6852,-0.6077,0.2441,-0.4272,-0.1221,93.587,-3.4937,35.6232,0.6872,-0.2427,0.1882,0.6583
1777530224.1054049,L_Tibia,-0.2201,-8.7473,-4.1535,-0.2441,-0.3052,0.4883,-115.3729,1.3019,-103.4033,-0.5285,-0.6595,-0.4254,0.3237
1777530224.1054049,L_Foot,-1.0288,-0.1148,10.001,-0.6714,-0.3052,0.3052,-0.6866,5.8612,113.9392,0.0396,0.0329,0.8371,0.5446
1777530224.1054049,R_Femur,0.0,0.0,0.0,0.0,0.0,0.0,0.0,0.0,0.0,0.0,0.0,0.0,1.0
1777530224.1054049,R_Tibia,-0.0957,-9.4794,2.4883,0.2441,-0.2441,0.3662,-75.2728,0.5658,-112.7472,-0.3414,-0.5063,-0.6611,0.436
1777530224.1054049,R_Foot,0.8565,1.225,9.8957,0.4883,0.0,-0.1221,7.0752,-4.9384,5.3833,0.0596,-0.0458,0.0442,0.9962
1777530224.1054049,Trunk,-7.1729,-0.6604,-6.4743,0.9766,-0.061,-0.5493,-174.375,47.84,64.4733,-0.7617,0.5038,-0.3186,0.254
1777530224.1054049,L_Femur,0.5934,9.6852,-0.6077,0.2441,-0.4272,-0.1221,93.587,-3.4937,35.6232,0.6872,-0.2427,0.1882,0.6583
1777530224.1054049,L_Tibia,-0.2201,-8.7473,-4.1535,-0.2441,-0.3052,0.4883,-115.3729,1.3019,-103.4033,-0.5285,-0.6595,-0.4254,0.3237
1777530224.1054049,L_Foot,-1.0288,-0.1148,10.001,-0.6714,-0.3052,0.3052,-0.6866,5.8612,113.9392,0.0396,0.0329,0.8371,0.5446
1777530224.1054049,R_Femur,0.0,0.0,0.0,0.0,0.0,0.0,0.0,0.0,0.0,0.0,0.0,0.0,1.0
1777530224.1054049,R_Tibia,-0.0957,-9.4794,2.4883,0.2441,-0.2441,0.3662,-75.2728,0.5658,-112.7472,-0.3414,-0.5063,-0.6611,0.436
1777530224.1054049,R_Foot,0.8565,1.225,9.8957,0.4883,0.0,-0.1221,7.0752,-4.9384,5.3833,0.0596,-0.0458,0.0442,0.9962
1777530224.1054049,Trunk,-7.1729,-0.6604,-6.4743,0.9766,-0.061,-0.5493,-174.375,47.84,64.4733,-0.7617,0.5038,-0.3186,0.254
1777530224.1054049,L_Femur,0.5934,9.6852,-0.6077,0.2441,-0.4272,-0.1221,93.587,-3.4937,35.6232,0.6872,-0.2427,0.1882,0.6583
1777530224.1054049,L_Tibia,-0.2201,-8.7473,-4.1535,-0.2441,-0.3052,0.4883,-115.3729,1.3019,-103.4033,-0.5285,-0.6595,-0.4254,0.3237
1777530224.1054049,L_Foot,-1.0288,-0.1148,10.001,-0.6714,-0.3052,0.3052,-0.6866,5.8612,113.9392,0.0396,0.0329,0.8371,0.5446
1777530224.1054049,R_Femur,0.0,0.0,0.0,0.0,0.0,0.0,0.0,0.0,0.0,0.0,0.0,0.0,1.0
1777530224.1054049,R_Tibia,-0.0957,-9.4794,2.4883,0.2441,-0.2441,0.3662,-75.2728,0.5658,-112.7472,-0.3414,-0.5063,-0.6611,0.436
1777530224.1054049,R_Foot,0.8565,1.225,9.8957,0.4883,0.0,-0.1221,7.0752,-4.9384,5.3833,0.0596,-0.0458,0.0442,0.9962
1777530224.106405,Trunk,-7.1729,-0.6604,-6.4743,0.9766,-0.061,-0.5493,-174.375,47.84,64.4733,-0.7617,0.5038,-0.3186,0.254
1777530224.106405,L_Femur,0.5934,9.6852,-0.6077,0.2441,-0.4272,-0.1221,93.587,-3.4937,35.6232,0.6872,-0.2427,0.1882,0.6583
1777530224.106405,L_Tibia,-0.2201,-8.7473,-4.1487,-0.2441,-0.3052,0.4883,-115.3729,1.3019,-103.4088,-0.5285,-0.6595,-0.4255,0.3237
1777530224.106405,L_Foot,-1.0288,-0.1148,10.001,-0.6714,-0.3052,0.3052,-0.6866,5.8612,113.9392,0.0396,0.0329,0.8371,0.5446
1777530224.106405,R_Femur,0.0,0.0,0.0,0.0,0.0,0.0,0.0,0.0,0.0,0.0,0.0,0.0,1.0
1777530224.106405,R_Tibia,-0.0957,-9.4794,2.4883,0.2441,-0.2441,0.3662,-75.2728,0.5658,-112.7472,-0.3414,-0.5063,-0.6611,0.436
1777530224.106405,R_Foot,0.8565,1.225,9.8957,0.4883,0.0,-0.1221,7.0752,-4.9384,5.3833,0.0596,-0.0458,0.0442,0.9962
1777530224.106405,Trunk,-7.1729,-0.6604,-6.4743,0.9766,-0.061,-0.5493,-174.375,47.84,64.4733,-0.7617,0.5038,-0.3186,0.254
1777530224.106405,L_Femur,0.5934,9.6852,-0.6077,0.2441,-0.4272,-0.1221,93.587,-3.4937,35.6232,0.6872,-0.2427,0.1882,0.6583
1777530224.106405,L_Tibia,-0.2201,-8.7473,-4.1487,-0.2441,-0.3052,0.4883,-115.3729,1.3019,-103.4088,-0.5285,-0.6595,-0.4255,0.3237
1777530224.106405,L_Foot,-1.024,-0.1196,10.0058,-0.7324,-0.2441,0.3052,-0.6866,5.8612,113.9392,0.0396,0.0329,0.8371,0.5446
1777530224.106405,R_Femur,0.0,0.0,0.0,0.0,0.0,0.0,0.0,0.0,0.0,0.0,0.0,0.0,1.0
1777530224.106405,R_Tibia,-0.0957,-9.4794,2.4883,0.2441,-0.2441,0.3662,-75.2728,0.5658,-112.7472,-0.3414,-0.5063,-0.6611,0.436
1777530224.106405,R_Foot,0.8565,1.225,9.8957,0.4883,0.0,-0.1221,7.0752,-4.9384,5.3833,0.0596,-0.0458,0.0442,0.9962
1777530224.106405,Trunk,-7.1729,-0.6604,-6.4743,0.9766,-0.061,-0.5493,-174.375,47.84,64.4733,-0.7617,0.5038,-0.3186,0.254
1777530224.106405,L_Femur,0.5934,9.6852,-0.6077,0.2441,-0.4272,-0.1221,93.587,-3.4937,35.6232,0.6872,-0.2427,0.1882,0.6583
1777530224.106405,L_Tibia,-0.2201,-8.7473,-4.1487,-0.2441,-0.3052,0.4883,-115.3729,1.3019,-103.4088,-0.5285,-0.6595,-0.4255,0.3237
1777530224.106405,L_Foot,-1.024,-0.1196,10.0058,-0.7324,-0.2441,0.3052,-0.6866,5.8612,113.9392,0.0396,0.0329,0.8371,0.5446
1777530224.106405,R_Femur,0.0,0.0,0.0,0.0,0.0,0.0,0.0,0.0,0.0,0.0,0.0,0.0,1.0
1777530224.106405,R_Tibia,-0.0957,-9.4794,2.4883,0.2441,-0.2441,0.3662,-75.2728,0.5658,-112.7472,-0.3414,-0.5063,-0.6611,0.436
1777530224.106405,R_Foot,0.8565,1.225,9.8909,0.4272,0.061,-0.1221,7.0752,-4.9384,5.3833,0.0596,-0.0458,0.0442,0.9962
1777530224.106405,Trunk,-7.1682,-0.6508,-6.4695,0.9155,0.061,-0.4883,-174.375,47.84,64.4788,-0.7616,0.5039,-0.3186,0.254
1777530224.106405,L_Femur,0.5934,9.6852,-0.6077,0.2441,-0.4272,-0.1221,93.587,-3.4937,35.6232,0.6872,-0.2427,0.1882,0.6583
1777530224.106405,L_Tibia,-0.2201,-8.7473,-4.1487,-0.2441,-0.3052,0.4883,-115.3729,1.3019,-103.4088,-0.5285,-0.6595,-0.4255,0.3237
1777530224.106405,L_Foot,-1.024,-0.1196,10.0058,-0.7324,-0.2441,0.3052,-0.6866,5.8612,113.9392,0.0396,0.0329,0.8371,0.5446
1777530224.106405,R_Femur,0.0,0.0,0.0,0.0,0.0,0.0,0.0,0.0,0.0,0.0,0.0,0.0,1.0
1777530224.106405,R_Tibia,-0.0957,-9.4794,2.4883,0.2441,-0.2441,0.3662,-75.2728,0.5658,-112.7472,-0.3414,-0.5063,-0.6611,0.436
1777530224.106405,R_Foot,0.8565,1.225,9.8909,0.4272,0.061,-0.1221,7.0752,-4.9384,5.3833,0.0596,-0.0458,0.0442,0.9962
1777530224.106405,Trunk,-7.1682,-0.6508,-6.4695,0.9155,0.061,-0.4883,-174.375,47.84,64.4788,-0.7616,0.5039,-0.3186,0.254
1777530224.106405,L_Femur,0.5934,9.6899,-0.6077,0.1831,-0.4272,-0.1221,93.587,-3.4937,35.6232,0.6872,-0.2427,0.1882,0.6583
1777530224.106405,L_Tibia,-0.2201,-8.7473,-4.1487,-0.2441,-0.3052,0.4883,-115.3729,1.3019,-103.4088,-0.5285,-0.6595,-0.4255,0.3237
1777530224.106405,L_Foot,-1.024,-0.1196,10.0058,-0.7324,-0.2441,0.3052,-0.6866,5.8612,113.9392,0.0396,0.0329,0.8371,0.5446
1777530224.106405,R_Femur,0.0,0.0,0.0,0.0,0.0,0.0,0.0,0.0,0.0,0.0,0.0,0.0,1.0
1777530224.106405,R_Tibia,-0.0957,-9.4794,2.4883,0.2441,-0.2441,0.3662,-75.2728,0.5658,-112.7472,-0.3414,-0.5063,-0.6611,0.436
1777530224.106405,R_Foot,0.8565,1.225,9.8909,0.4272,0.061,-0.1221,7.0752,-4.9384,5.3833,0.0596,-0.0458,0.0442,0.9962
1777530224.1074064,Trunk,-7.1682,-0.6508,-6.4695,0.9155,0.061,-0.4883,-174.375,47.84,64.4788,-0.7616,0.5039,-0.3186,0.254
1777530224.1074064,L_Femur,0.5934,9.6899,-0.6077,0.1831,-0.4272,-0.1221,93.587,-3.4937,35.6232,0.6872,-0.2427,0.1882,0.6583
1777530224.1074064,L_Tibia,-0.2201,-8.7473,-4.1487,-0.2441,-0.3052,0.4272,-115.3729,1.3019,-103.4143,-0.5284,-0.6595,-0.4255,0.3237
1777530224.1074064,L_Foot,-1.024,-0.1196,10.0058,-0.7324,-0.2441,0.3052,-0.6866,5.8612,113.9392,0.0396,0.0329,0.8371,0.5446
1777530224.1074064,R_Femur,0.0,0.0,0.0,0.0,0.0,0.0,0.0,0.0,0.0,0.0,0.0,0.0,1.0
1777530224.1074064,R_Tibia,-0.0957,-9.4794,2.4883,0.2441,-0.2441,0.3662,-75.2728,0.5658,-112.7472,-0.3414,-0.5063,-0.6611,0.436
1777530224.1074064,R_Foot,0.8565,1.225,9.8909,0.4272,0.061,-0.1221,7.0752,-4.9384,5.3833,0.0596,-0.0458,0.0442,0.9962
1777530224.1074064,Trunk,-7.1682,-0.6508,-6.4695,0.9155,0.061,-0.4883,-174.375,47.84,64.4788,-0.7616,0.5039,-0.3186,0.254
1777530224.1074064,L_Femur,0.5934,9.6899,-0.6077,0.1831,-0.4272,-0.1221,93.587,-3.4937,35.6232,0.6872,-0.2427,0.1882,0.6583
1777530224.1074064,L_Tibia,-0.2201,-8.7473,-4.1487,-0.2441,-0.3052,0.4272,-115.3729,1.3019,-103.4143,-0.5284,-0.6595,-0.4255,0.3237
1777530224.1074064,L_Foot,-1.024,-0.1148,10.001,-0.6714,-0.2441,0.3052,-0.6866,5.8612,113.9392,0.0396,0.0329,0.8371,0.5446
1777530224.1074064,R_Femur,0.0,0.0,0.0,0.0,0.0,0.0,0.0,0.0,0.0,0.0,0.0,0.0,1.0
1777530224.1074064,R_Tibia,-0.0957,-9.4794,2.4883,0.2441,-0.2441,0.3662,-75.2728,0.5658,-112.7472,-0.3414,-0.5063,-0.6611,0.436
1777530224.1074064,R_Foot,0.8565,1.225,9.8909,0.4272,0.061,-0.1221,7.0752,-4.9384,5.3833,0.0596,-0.0458,0.0442,0.9962
1777530224.1074064,Trunk,-7.1682,-0.6508,-6.4695,0.9155,0.061,-0.4883,-174.375,47.84,64.4788,-0.7616,0.5039,-0.3186,0.254
1777530224.1074064,L_Femur,0.5934,9.6899,-0.6077,0.1831,-0.4272,-0.1221,93.587,-3.4937,35.6232,0.6872,-0.2427,0.1882,0.6583
1777530224.1074064,L_Tibia,-0.2201,-8.7473,-4.1487,-0.2441,-0.3052,0.4272,-115.3729,1.3019,-103.4143,-0.5284,-0.6595,-0.4255,0.3237
1777530224.1074064,L_Foot,-1.024,-0.1148,10.001,-0.6714,-0.2441,0.3052,-0.6866,5.8612,113.9392,0.0396,0.0329,0.8371,0.5446
1777530224.1074064,R_Femur,0.0,0.0,0.0,0.0,0.0,0.0,0.0,0.0,0.0,0.0,0.0,0.0,1.0
1777530224.1074064,R_Tibia,-0.0957,-9.4746,2.4835,0.2441,-0.1831,0.3662,-75.2728,0.5658,-112.7472,-0.3414,-0.5063,-0.6611,0.436
1777530224.1074064,R_Foot,0.8565,1.225,9.8909,0.4272,0.061,-0.1221,7.0752,-4.9384,5.3833,0.0596,-0.0458,0.0442,0.9962
1777530224.1074064,Trunk,-7.1825,-0.6269,-6.46,0.9155,0.061,-0.4883,-174.375,47.84,64.4843,-0.7616,0.5039,-0.3186,0.254
1777530224.1074064,L_Femur,0.5934,9.6899,-0.6077,0.1831,-0.4272,-0.1221,93.587,-3.4937,35.6232,0.6872,-0.2427,0.1882,0.6583
1777530224.1074064,L_Tibia,-0.2201,-8.7473,-4.1487,-0.2441,-0.3052,0.4272,-115.3729,1.3019,-103.4143,-0.5284,-0.6595,-0.4255,0.3237
1777530224.1074064,L_Foot,-1.024,-0.1148,10.001,-0.6714,-0.2441,0.3052,-0.6866,5.8612,113.9392,0.0396,0.0329,0.8371,0.5446
1777530224.1074064,R_Femur,0.0,0.0,0.0,0.0,0.0,0.0,0.0,0.0,0.0,0.0,0.0,0.0,1.0
1777530224.1074064,R_Tibia,-0.0957,-9.4746,2.4835,0.2441,-0.1831,0.3662,-75.2728,0.5658,-112.7472,-0.3414,-0.5063,-0.6611,0.436
1777530224.1074064,R_Foot,0.8565,1.225,9.8909,0.4272,0.061,-0.1221,7.0752,-4.9384,5.3833,0.0596,-0.0458,0.0442,0.9962
1777530224.1074064,Trunk,-7.1825,-0.6269,-6.46,0.9155,0.061,-0.4883,-174.375,47.84,64.4843,-0.7616,0.5039,-0.3186,0.254
1777530224.1074064,L_Femur,0.5934,9.6804,-0.6125,0.2441,-0.4272,-0.1221,93.587,-3.4937,35.6232,0.6872,-0.2427,0.1882,0.6583
1777530224.1074064,L_Tibia,-0.2201,-8.7473,-4.1487,-0.2441,-0.3052,0.4272,-115.3729,1.3019,-103.4143,-0.5284,-0.6595,-0.4255,0.3237
1777530224.1074064,L_Foot,-1.024,-0.1148,10.001,-0.6714,-0.2441,0.3052,-0.6866,5.8612,113.9392,0.0396,0.0329,0.8371,0.5446
1777530224.1074064,R_Femur,0.0,0.0,0.0,0.0,0.0,0.0,0.0,0.0,0.0,0.0,0.0,0.0,1.0
1777530224.1074064,R_Tibia,-0.0957,-9.4746,2.4835,0.2441,-0.1831,0.3662,-75.2728,0.5658,-112.7472,-0.3414,-0.5063,-0.6611,0.436
1777530224.1074064,R_Foot,0.8565,1.225,9.8909,0.4272,0.061,-0.1221,7.0752,-4.9384,5.3833,0.0596,-0.0458,0.0442,0.9962
1777530224.1084073,Trunk,-7.1825,-0.6269,-6.46,0.9155,0.061,-0.4883,-174.375,47.84,64.4843,-0.7616,0.5039,-0.3186,0.254
1777530224.1084073,L_Femur,0.5934,9.6804,-0.6125,0.2441,-0.4272,-0.1221,93.587,-3.4937,35.6232,0.6872,-0.2427,0.1882,0.6583
1777530224.1084073,L_Tibia,-0.2153,-8.7521,-4.1487,-0.2441,-0.3052,0.4272,-115.3729,1.3019,-103.4143,-0.5284,-0.6595,-0.4255,0.3237
1777530224.1084073,L_Foot,-1.024,-0.1148,10.001,-0.6714,-0.2441,0.3052,-0.6866,5.8612,113.9392,0.0396,0.0329,0.8371,0.5446
1777530224.1084073,R_Femur,0.0,0.0,0.0,0.0,0.0,0.0,0.0,0.0,0.0,0.0,0.0,0.0,1.0
1777530224.1084073,R_Tibia,-0.0957,-9.4746,2.4835,0.2441,-0.1831,0.3662,-75.2728,0.5658,-112.7472,-0.3414,-0.5063,-0.6611,0.436
1777530224.1084073,R_Foot,0.8565,1.225,9.8909,0.4272,0.061,-0.1221,7.0752,-4.9384,5.3833,0.0596,-0.0458,0.0442,0.9962
1777530224.1084073,Trunk,-7.1825,-0.6269,-6.46,0.9155,0.061,-0.4883,-174.375,47.84,64.4843,-0.7616,0.5039,-0.3186,0.254
1777530224.1084073,L_Femur,0.5934,9.6804,-0.6125,0.2441,-0.4272,-0.1221,93.587,-3.4937,35.6232,0.6872,-0.2427,0.1882,0.6583
1777530224.1084073,L_Tibia,-0.2153,-8.7521,-4.1487,-0.2441,-0.3052,0.4272,-115.3729,1.3019,-103.4143,-0.5284,-0.6595,-0.4255,0.3237
1777530224.1084073,L_Foot,-1.024,-0.1148,10.001,-0.6714,-0.2441,0.3052,-0.6866,5.8612,113.9392,0.0396,0.0329,0.8371,0.5446
1777530224.1084073,R_Femur,0.0,0.0,0.0,0.0,0.0,0.0,0.0,0.0,0.0,0.0,0.0,0.0,1.0
1777530224.1084073,R_Tibia,-0.0957,-9.4746,2.4835,0.2441,-0.1831,0.3662,-75.2728,0.5658,-112.7472,-0.3414,-0.5063,-0.6611,0.436
1777530224.1084073,R_Foot,0.8565,1.225,9.8909,0.4272,0.061,-0.1221,7.0752,-4.9384,5.3833,0.0596,-0.0458,0.0442,0.9962
1777530224.1084073,Trunk,-7.1825,-0.6269,-6.46,0.9155,0.061,-0.4883,-174.375,47.84,64.4843,-0.7616,0.5039,-0.3186,0.254
1777530224.1084073,L_Femur,0.5934,9.6804,-0.6125,0.2441,-0.4272,-0.1221,93.587,-3.4937,35.6232,0.6872,-0.2427,0.1882,0.6583
1777530224.1084073,L_Tibia,-0.2153,-8.7521,-4.1487,-0.2441,-0.3052,0.4272,-115.3729,1.3019,-103.4143,-0.5284,-0.6595,-0.4255,0.3237
1777530224.1084073,L_Foot,-1.024,-0.1148,10.001,-0.6714,-0.2441,0.3052,-0.6866,5.8612,113.9392,0.0396,0.0329,0.8371,0.5446
1777530224.1084073,R_Femur,0.0,0.0,0.0,0.0,0.0,0.0,0.0,0.0,0.0,0.0,0.0,0.0,1.0
1777530224.1084073,R_Tibia,-0.0957,-9.4746,2.4835,0.2441,-0.1831,0.3662,-75.2728,0.5658,-112.7472,-0.3414,-0.5063,-0.6611,0.436
1777530224.1084073,R_Foot,0.8565,1.225,9.8957,0.4272,0.061,-0.1221,7.0752,-4.9384,5.3778,0.0596,-0.0458,0.0441,0.9962
1777530224.1084073,Trunk,-7.1873,-0.6173,-6.4552,0.9155,-0.1221,-0.5493,-174.375,47.84,64.4843,-0.7616,0.5039,-0.3186,0.254
1777530224.1084073,L_Femur,0.5934,9.6804,-0.6125,0.2441,-0.4272,-0.1221,93.587,-3.4937,35.6232,0.6872,-0.2427,0.1882,0.6583
1777530224.1084073,L_Tibia,-0.2153,-8.7521,-4.1487,-0.2441,-0.3052,0.4272,-115.3729,1.3019,-103.4143,-0.5284,-0.6595,-0.4255,0.3237
1777530224.1084073,L_Foot,-1.024,-0.1148,10.001,-0.6714,-0.2441,0.3052,-0.6866,5.8612,113.9392,0.0396,0.0329,0.8371,0.5446
1777530224.1084073,R_Femur,0.0,0.0,0.0,0.0,0.0,0.0,0.0,0.0,0.0,0.0,0.0,0.0,1.0
1777530224.1084073,R_Tibia,-0.0957,-9.4746,2.4835,0.2441,-0.1831,0.3662,-75.2728,0.5658,-112.7472,-0.3414,-0.5063,-0.6611,0.436
1777530224.1084073,R_Foot,0.8565,1.225,9.8957,0.4272,0.061,-0.1221,7.0752,-4.9384,5.3778,0.0596,-0.0458,0.0441,0.9962
1777530224.1084073,Trunk,-7.1873,-0.6173,-6.4552,0.9155,-0.1221,-0.5493,-174.375,47.84,64.4843,-0.7616,0.5039,-0.3186,0.254
1777530224.1084073,L_Femur,0.5934,9.6899,-0.6077,0.2441,-0.4272,-0.1221,93.587,-3.4937,35.6232,0.6872,-0.2427,0.1882,0.6583
1777530224.1084073,L_Tibia,-0.2153,-8.7521,-4.1487,-0.2441,-0.3052,0.4272,-115.3729,1.3019,-103.4143,-0.5284,-0.6595,-0.4255,0.3237
1777530224.1084073,L_Foot,-1.024,-0.1148,10.001,-0.6714,-0.2441,0.3052,-0.6866,5.8612,113.9392,0.0396,0.0329,0.8371,0.5446
1777530224.1084073,R_Femur,0.0,0.0,0.0,0.0,0.0,0.0,0.0,0.0,0.0,0.0,0.0,0.0,1.0
1777530224.1084073,R_Tibia,-0.0957,-9.4746,2.4835,0.2441,-0.1831,0.3662,-75.2728,0.5658,-112.7472,-0.3414,-0.5063,-0.6611,0.436
1777530224.1084073,R_Foot,0.8565,1.225,9.8957,0.4272,0.061,-0.1221,7.0752,-4.9384,5.3778,0.0596,-0.0458,0.0441,0.9962
1777530224.1084073,Trunk,-7.1873,-0.6173,-6.4552,0.9155,-0.1221,-0.5493,-174.375,47.84,64.4843,-0.7616,0.5039,-0.3186,0.254
1777530224.1084073,L_Femur,0.5934,9.6899,-0.6077,0.2441,-0.4272,-0.1221,93.587,-3.4937,35.6232,0.6872,-0.2427,0.1882,0.6583
1777530224.1084073,L_Tibia,-0.2153,-8.7473,-4.1535,-0.2441,-0.3052,0.4883,-115.3729,1.3019,-103.4143,-0.5284,-0.6595,-0.4255,0.3237
1777530224.1084073,L_Foot,-1.024,-0.1148,10.001,-0.6714,-0.2441,0.3052,-0.6866,5.8612,113.9392,0.0396,0.0329,0.8371,0.5446
1777530224.1084073,R_Femur,0.0,0.0,0.0,0.0,0.0,0.0,0.0,0.0,0.0,0.0,0.0,0.0,1.0
1777530224.1084073,R_Tibia,-0.0957,-9.4746,2.4835,0.2441,-0.1831,0.3662,-75.2728,0.5658,-112.7472,-0.3414,-0.5063,-0.6611,0.436
1777530224.1084073,R_Foot,0.8565,1.225,9.8957,0.4272,0.061,-0.1221,7.0752,-4.9384,5.3778,0.0596,-0.0458,0.0441,0.9962
1777530224.1094067,Trunk,-7.1873,-0.6173,-6.4552,0.9155,-0.1221,-0.5493,-174.375,47.84,64.4843,-0.7616,0.5039,-0.3186,0.254
1777530224.1094067,L_Femur,0.5934,9.6899,-0.6077,0.2441,-0.4272,-0.1221,93.587,-3.4937,35.6232,0.6872,-0.2427,0.1882,0.6583
1777530224.1094067,L_Tibia,-0.2153,-8.7473,-4.1535,-0.2441,-0.3052,0.4883,-115.3729,1.3019,-103.4143,-0.5284,-0.6595,-0.4255,0.3237
1777530224.1094067,L_Foot,-1.0288,-0.1148,9.9962,-0.6714,-0.2441,0.3052,-0.6866,5.8612,113.9392,0.0396,0.0329,0.8371,0.5446
1777530224.1094067,R_Femur,0.0,0.0,0.0,0.0,0.0,0.0,0.0,0.0,0.0,0.0,0.0,0.0,1.0
1777530224.1094067,R_Tibia,-0.0957,-9.4746,2.4835,0.2441,-0.1831,0.3662,-75.2728,0.5658,-112.7472,-0.3414,-0.5063,-0.6611,0.436
1777530224.1094067,R_Foot,0.8565,1.225,9.8957,0.4272,0.061,-0.1221,7.0752,-4.9384,5.3778,0.0596,-0.0458,0.0441,0.9962
1777530224.1094067,Trunk,-7.1873,-0.6173,-6.4552,0.9155,-0.1221,-0.5493,-174.375,47.84,64.4843,-0.7616,0.5039,-0.3186,0.254
1777530224.1094067,L_Femur,0.5934,9.6899,-0.6077,0.2441,-0.4272,-0.1221,93.587,-3.4937,35.6232,0.6872,-0.2427,0.1882,0.6583
1777530224.1094067,L_Tibia,-0.2153,-8.7473,-4.1535,-0.2441,-0.3052,0.4883,-115.3729,1.3019,-103.4143,-0.5284,-0.6595,-0.4255,0.3237
1777530224.1094067,L_Foot,-1.0288,-0.1148,9.9962,-0.6714,-0.2441,0.3052,-0.6866,5.8612,113.9392,0.0396,0.0329,0.8371,0.5446
1777530224.1094067,R_Femur,0.0,0.0,0.0,0.0,0.0,0.0,0.0,0.0,0.0,0.0,0.0,0.0,1.0
1777530224.1094067,R_Tibia,-0.1005,-9.4746,2.4883,0.2441,-0.1831,0.3662,-75.2728,0.5658,-112.7472,-0.3414,-0.5063,-0.6611,0.436
1777530224.1094067,R_Foot,0.8565,1.225,9.8957,0.4272,0.061,-0.1221,7.0752,-4.9384,5.3778,0.0596,-0.0458,0.0441,0.9962
1777530224.1094067,Trunk,-7.1873,-0.6221,-6.4504,0.9766,-0.061,-0.6104,-174.375,47.84,64.4843,-0.7616,0.5039,-0.3186,0.254
1777530224.1094067,L_Femur,0.5934,9.6899,-0.6077,0.2441,-0.4272,-0.1221,93.587,-3.4937,35.6232,0.6872,-0.2427,0.1882,0.6583
1777530224.1094067,L_Tibia,-0.2153,-8.7473,-4.1535,-0.2441,-0.3052,0.4883,-115.3729,1.3019,-103.4143,-0.5284,-0.6595,-0.4255,0.3237
1777530224.1094067,L_Foot,-1.0288,-0.1148,9.9962,-0.6714,-0.2441,0.3052,-0.6866,5.8612,113.9392,0.0396,0.0329,0.8371,0.5446
1777530224.1094067,R_Femur,0.0,0.0,0.0,0.0,0.0,0.0,0.0,0.0,0.0,0.0,0.0,0.0,1.0
1777530224.1094067,R_Tibia,-0.1005,-9.4746,2.4883,0.2441,-0.1831,0.3662,-75.2728,0.5658,-112.7472,-0.3414,-0.5063,-0.6611,0.436
1777530224.1094067,R_Foot,0.8565,1.225,9.8957,0.4272,0.061,-0.1221,7.0752,-4.9384,5.3778,0.0596,-0.0458,0.0441,0.9962
1777530224.1094067,Trunk,-7.1873,-0.6221,-6.4504,0.9766,-0.061,-0.6104,-174.375,47.84,64.4843,-0.7616,0.5039,-0.3186,0.254
1777530224.1094067,L_Femur,0.5934,9.6899,-0.6077,0.2441,-0.4883,-0.1221,93.587,-3.4937,35.6232,0.6872,-0.2427,0.1882,0.6583
1777530224.1094067,L_Tibia,-0.2153,-8.7473,-4.1535,-0.2441,-0.3052,0.4883,-115.3729,1.3019,-103.4143,-0.5284,-0.6595,-0.4255,0.3237
1777530224.1094067,L_Foot,-1.0288,-0.1148,9.9962,-0.6714,-0.2441,0.3052,-0.6866,5.8612,113.9392,0.0396,0.0329,0.8371,0.5446
1777530224.1094067,R_Femur,0.0,0.0,0.0,0.0,0.0,0.0,0.0,0.0,0.0,0.0,0.0,0.0,1.0
1777530224.1094067,R_Tibia,-0.1005,-9.4746,2.4883,0.2441,-0.1831,0.3662,-75.2728,0.5658,-112.7472,-0.3414,-0.5063,-0.6611,0.436
1777530224.1094067,R_Foot,0.8565,1.225,9.8957,0.4272,0.061,-0.1221,7.0752,-4.9384,5.3778,0.0596,-0.0458,0.0441,0.9962
1777530224.1094067,Trunk,-7.1873,-0.6221,-6.4504,0.9766,-0.061,-0.6104,-174.375,47.84,64.4843,-0.7616,0.5039,-0.3186,0.254
1777530224.1094067,L_Femur,0.5934,9.6899,-0.6077,0.2441,-0.4883,-0.1221,93.587,-3.4937,35.6232,0.6872,-0.2427,0.1882,0.6583
1777530224.1094067,L_Tibia,-0.2201,-8.7568,-4.1487,-0.2441,-0.2441,0.4272,-115.3729,1.3019,-103.4198,-0.5284,-0.6595,-0.4255,0.3237
1777530224.1094067,L_Foot,-1.0288,-0.1148,9.9962,-0.6714,-0.2441,0.3052,-0.6866,5.8612,113.9392,0.0396,0.0329,0.8371,0.5446
1777530224.1094067,R_Femur,0.0,0.0,0.0,0.0,0.0,0.0,0.0,0.0,0.0,0.0,0.0,0.0,1.0
1777530224.1094067,R_Tibia,-0.1005,-9.4746,2.4883,0.2441,-0.1831,0.3662,-75.2728,0.5658,-112.7472,-0.3414,-0.5063,-0.6611,0.436
1777530224.1094067,R_Foot,0.8565,1.225,9.8957,0.4272,0.061,-0.1221,7.0752,-4.9384,5.3778,0.0596,-0.0458,0.0441,0.9962
1777530224.1104054,Trunk,-7.1873,-0.6221,-6.4504,0.9766,-0.061,-0.6104,-174.375,47.84,64.4843,-0.7616,0.5039,-0.3186,0.254
1777530224.1104054,L_Femur,0.5934,9.6899,-0.6077,0.2441,-0.4883,-0.1221,93.587,-3.4937,35.6232,0.6872,-0.2427,0.1882,0.6583
1777530224.1104054,L_Tibia,-0.2201,-8.7568,-4.1487,-0.2441,-0.2441,0.4272,-115.3729,1.3019,-103.4198,-0.5284,-0.6595,-0.4255,0.3237
1777530224.1104054,L_Foot,-1.024,-0.1148,10.001,-0.6714,-0.3052,0.3052,-0.6866,5.8612,113.9392,0.0396,0.0329,0.8371,0.5446
1777530224.1104054,R_Femur,0.0,0.0,0.0,0.0,0.0,0.0,0.0,0.0,0.0,0.0,0.0,0.0,1.0
1777530224.1104054,R_Tibia,-0.1005,-9.4746,2.4883,0.2441,-0.1831,0.3662,-75.2728,0.5658,-112.7472,-0.3414,-0.5063,-0.6611,0.436
1777530224.1104054,R_Foot,0.8565,1.225,9.8957,0.4272,0.061,-0.1221,7.0752,-4.9384,5.3778,0.0596,-0.0458,0.0441,0.9962
1777530224.1104054,Trunk,-7.1873,-0.6221,-6.4504,0.9766,-0.061,-0.6104,-174.375,47.84,64.4843,-0.7616,0.5039,-0.3186,0.254
1777530224.1104054,L_Femur,0.5934,9.6899,-0.6077,0.2441,-0.4883,-0.1221,93.587,-3.4937,35.6232,0.6872,-0.2427,0.1882,0.6583
1777530224.1104054,L_Tibia,-0.2201,-8.7568,-4.1487,-0.2441,-0.2441,0.4272,-115.3729,1.3019,-103.4198,-0.5284,-0.6595,-0.4255,0.3237
1777530224.1104054,L_Foot,-1.024,-0.1148,10.001,-0.6714,-0.3052,0.3052,-0.6866,5.8612,113.9392,0.0396,0.0329,0.8371,0.5446
1777530224.1104054,R_Femur,0.0,0.0,0.0,0.0,0.0,0.0,0.0,0.0,0.0,0.0,0.0,0.0,1.0
1777530224.1104054,R_Tibia,-0.1005,-9.4746,2.4883,0.2441,-0.1831,0.3662,-75.2728,0.5658,-112.7472,-0.3414,-0.5063,-0.6611,0.436
1777530224.1104054,R_Foot,0.8565,1.225,9.8909,0.4883,0.0,-0.1221,7.0752,-4.9384,5.3723,0.0596,-0.0458,0.0441,0.9962
1777530224.1104054,Trunk,-7.1825,-0.6173,-6.4504,0.9766,-0.1221,-0.6104,-174.375,47.84,64.4897,-0.7616,0.504,-0.3186,0.254
1777530224.1104054,L_Femur,0.5934,9.6899,-0.6077,0.2441,-0.4883,-0.1221,93.587,-3.4937,35.6232,0.6872,-0.2427,0.1882,0.6583
1777530224.1104054,L_Tibia,-0.2201,-8.7568,-4.1487,-0.2441,-0.2441,0.4272,-115.3729,1.3019,-103.4198,-0.5284,-0.6595,-0.4255,0.3237
1777530224.1104054,L_Foot,-1.024,-0.1148,10.001,-0.6714,-0.3052,0.3052,-0.6866,5.8612,113.9392,0.0396,0.0329,0.8371,0.5446
1777530224.1104054,R_Femur,0.0,0.0,0.0,0.0,0.0,0.0,0.0,0.0,0.0,0.0,0.0,0.0,1.0
1777530224.1104054,R_Tibia,-0.1005,-9.4746,2.4883,0.2441,-0.1831,0.3662,-75.2728,0.5658,-112.7472,-0.3414,-0.5063,-0.6611,0.436
1777530224.1104054,R_Foot,0.8565,1.225,9.8909,0.4883,0.0,-0.1221,7.0752,-4.9384,5.3723,0.0596,-0.0458,0.0441,0.9962
1777530224.1109114,Trunk,-7.1825,-0.6173,-6.4504,0.9766,-0.1221,-0.6104,-174.375,47.84,64.4897,-0.7616,0.504,-0.3186,0.254
1777530224.1109114,L_Femur,0.5886,9.6852,-0.6029,0.3052,-0.4272,-0.1221,93.587,-3.4937,35.6232,0.6872,-0.2427,0.1882,0.6583
1777530224.1109114,L_Tibia,-0.2201,-8.7568,-4.1487,-0.2441,-0.2441,0.4272,-115.3729,1.3019,-103.4198,-0.5284,-0.6595,-0.4255,0.3237
1777530224.1109114,L_Foot,-1.024,-0.1148,10.001,-0.6714,-0.3052,0.3052,-0.6866,5.8612,113.9392,0.0396,0.0329,0.8371,0.5446
1777530224.1109114,R_Femur,0.0,0.0,0.0,0.0,0.0,0.0,0.0,0.0,0.0,0.0,0.0,0.0,1.0
1777530224.1109114,R_Tibia,-0.1005,-9.4746,2.4883,0.2441,-0.1831,0.3662,-75.2728,0.5658,-112.7472,-0.3414,-0.5063,-0.6611,0.436
1777530224.1109114,R_Foot,0.8565,1.225,9.8909,0.4883,0.0,-0.1221,7.0752,-4.9384,5.3723,0.0596,-0.0458,0.0441,0.9962
1777530224.1109114,Trunk,-7.1825,-0.6173,-6.4504,0.9766,-0.1221,-0.6104,-174.375,47.84,64.4897,-0.7616,0.504,-0.3186,0.254
1777530224.1109114,L_Femur,0.5886,9.6852,-0.6029,0.3052,-0.4272,-0.1221,93.587,-3.4937,35.6232,0.6872,-0.2427,0.1882,0.6583
1777530224.1109114,L_Tibia,-0.2153,-8.7473,-4.1439,-0.3052,-0.2441,0.4883,-115.3729,1.3019,-103.4253,-0.5284,-0.6596,-0.4255,0.3237
1777530224.1109114,L_Foot,-1.024,-0.1148,10.001,-0.6714,-0.3052,0.3052,-0.6866,5.8612,113.9392,0.0396,0.0329,0.8371,0.5446
1777530224.1109114,R_Femur,0.0,0.0,0.0,0.0,0.0,0.0,0.0,0.0,0.0,0.0,0.0,0.0,1.0
1777530224.1109114,R_Tibia,-0.1005,-9.4746,2.4883,0.2441,-0.1831,0.3662,-75.2728,0.5658,-112.7472,-0.3414,-0.5063,-0.6611,0.436
1777530224.1109114,R_Foot,0.8565,1.225,9.8909,0.4883,0.0,-0.1221,7.0752,-4.9384,5.3723,0.0596,-0.0458,0.0441,0.9962
1777530224.1109114,Trunk,-7.1825,-0.6173,-6.4504,0.9766,-0.1221,-0.6104,-174.375,47.84,64.4897,-0.7616,0.504,-0.3186,0.254
1777530224.1109114,L_Femur,0.5886,9.6852,-0.6029,0.3052,-0.4272,-0.1221,93.587,-3.4937,35.6232,0.6872,-0.2427,0.1882,0.6583
1777530224.1109114,L_Tibia,-0.2153,-8.7473,-4.1439,-0.3052,-0.2441,0.4883,-115.3729,1.3019,-103.4253,-0.5284,-0.6596,-0.4255,0.3237
1777530224.1109114,L_Foot,-1.024,-0.1148,10.001,-0.6714,-0.2441,0.3052,-0.6866,5.8612,113.9392,0.0396,0.0329,0.8371,0.5446
1777530224.1109114,R_Femur,0.0,0.0,0.0,0.0,0.0,0.0,0.0,0.0,0.0,0.0,0.0,0.0,1.0
1777530224.1109114,R_Tibia,-0.1005,-9.4746,2.4883,0.2441,-0.1831,0.3662,-75.2728,0.5658,-112.7472,-0.3414,-0.5063,-0.6611,0.436
1777530224.1109114,R_Foot,0.8565,1.225,9.8909,0.4883,0.0,-0.1221,7.0752,-4.9384,5.3723,0.0596,-0.0458,0.0441,0.9962
1777530224.1109114,Trunk,-7.1825,-0.6173,-6.4504,0.9766,-0.1221,-0.6104,-174.375,47.84,64.4897,-0.7616,0.504,-0.3186,0.254
1777530224.1109114,L_Femur,0.5886,9.6852,-0.6029,0.3052,-0.4272,-0.1221,93.587,-3.4937,35.6232,0.6872,-0.2427,0.1882,0.6583
1777530224.1109114,L_Tibia,-0.2153,-8.7473,-4.1439,-0.3052,-0.2441,0.4883,-115.3729,1.3019,-103.4253,-0.5284,-0.6596,-0.4255,0.3237
1777530224.1109114,L_Foot,-1.024,-0.1148,10.001,-0.6714,-0.2441,0.3052,-0.6866,5.8612,113.9392,0.0396,0.0329,0.8371,0.5446
1777530224.1109114,R_Femur,0.0,0.0,0.0,0.0,0.0,0.0,0.0,0.0,0.0,0.0,0.0,0.0,1.0
1777530224.1109114,R_Tibia,-0.0957,-9.4794,2.4883,0.2441,-0.2441,0.4272,-75.2728,0.5658,-112.7472,-0.3414,-0.5063,-0.6611,0.436
1777530224.1109114,R_Foot,0.8565,1.225,9.8909,0.4883,0.0,-0.1221,7.0752,-4.9384,5.3723,0.0596,-0.0458,0.0441,0.9962
1777530224.1109114,Trunk,-7.1873,-0.6269,-6.46,0.9766,-0.1221,-0.6104,-174.375,47.84,64.4897,-0.7616,0.504,-0.3186,0.254
1777530224.1109114,L_Femur,0.5886,9.6852,-0.6029,0.3052,-0.4272,-0.1221,93.587,-3.4937,35.6232,0.6872,-0.2427,0.1882,0.6583
1777530224.1109114,L_Tibia,-0.2153,-8.7473,-4.1439,-0.3052,-0.2441,0.4883,-115.3729,1.3019,-103.4253,-0.5284,-0.6596,-0.4255,0.3237
1777530224.1109114,L_Foot,-1.024,-0.1148,10.001,-0.6714,-0.2441,0.3052,-0.6866,5.8612,113.9392,0.0396,0.0329,0.8371,0.5446
1777530224.1109114,R_Femur,0.0,0.0,0.0,0.0,0.0,0.0,0.0,0.0,0.0,0.0,0.0,0.0,1.0
1777530224.1109114,R_Tibia,-0.0957,-9.4794,2.4883,0.2441,-0.2441,0.4272,-75.2728,0.5658,-112.7472,-0.3414,-0.5063,-0.6611,0.436
1777530224.1109114,R_Foot,0.8565,1.225,9.8909,0.4883,0.0,-0.1221,7.0752,-4.9384,5.3723,0.0596,-0.0458,0.0441,0.9962
1777530224.1119163,Trunk,-7.1873,-0.6269,-6.46,0.9766,-0.1221,-0.6104,-174.375,47.84,64.4897,-0.7616,0.504,-0.3186,0.254
1777530224.1119163,L_Femur,0.5934,9.6852,-0.6125,0.1831,-0.4883,-0.1221,93.587,-3.4937,35.6177,0.6873,-0.2427,0.1881,0.6583
1777530224.1119163,L_Tibia,-0.2153,-8.7473,-4.1439,-0.3052,-0.2441,0.4883,-115.3729,1.3019,-103.4253,-0.5284,-0.6596,-0.4255,0.3237
1777530224.1119163,L_Foot,-1.024,-0.1148,10.001,-0.6714,-0.2441,0.3052,-0.6866,5.8612,113.9392,0.0396,0.0329,0.8371,0.5446
1777530224.1119163,R_Femur,0.0,0.0,0.0,0.0,0.0,0.0,0.0,0.0,0.0,0.0,0.0,0.0,1.0
1777530224.1119163,R_Tibia,-0.0957,-9.4794,2.4883,0.2441,-0.2441,0.4272,-75.2728,0.5658,-112.7472,-0.3414,-0.5063,-0.6611,0.436
1777530224.1119163,R_Foot,0.8565,1.225,9.8909,0.4883,0.0,-0.1221,7.0752,-4.9384,5.3723,0.0596,-0.0458,0.0441,0.9962
1777530224.1119163,Trunk,-7.1873,-0.6269,-6.46,0.9766,-0.1221,-0.6104,-174.375,47.84,64.4897,-0.7616,0.504,-0.3186,0.254
1777530224.1119163,L_Femur,0.5934,9.6852,-0.6125,0.1831,-0.4883,-0.1221,93.587,-3.4937,35.6177,0.6873,-0.2427,0.1881,0.6583
1777530224.1119163,L_Tibia,-0.2201,-8.7473,-4.1535,-0.2441,-0.2441,0.4883,-115.3729,1.3019,-103.4253,-0.5284,-0.6596,-0.4255,0.3237
1777530224.1119163,L_Foot,-1.024,-0.1148,10.001,-0.6714,-0.2441,0.3052,-0.6866,5.8612,113.9392,0.0396,0.0329,0.8371,0.5446
1777530224.1119163,R_Femur,0.0,0.0,0.0,0.0,0.0,0.0,0.0,0.0,0.0,0.0,0.0,0.0,1.0
1777530224.1119163,R_Tibia,-0.0957,-9.4794,2.4883,0.2441,-0.2441,0.4272,-75.2728,0.5658,-112.7472,-0.3414,-0.5063,-0.6611,0.436
1777530224.1119163,R_Foot,0.8565,1.225,9.8909,0.4883,0.0,-0.1221,7.0752,-4.9384,5.3723,0.0596,-0.0458,0.0441,0.9962
1777530224.1119163,Trunk,-7.1873,-0.6269,-6.46,0.9766,-0.1221,-0.6104,-174.375,47.84,64.4897,-0.7616,0.504,-0.3186,0.254
1777530224.1119163,L_Femur,0.5934,9.6852,-0.6125,0.1831,-0.4883,-0.1221,93.587,-3.4937,35.6177,0.6873,-0.2427,0.1881,0.6583
1777530224.1119163,L_Tibia,-0.2201,-8.7473,-4.1535,-0.2441,-0.2441,0.4883,-115.3729,1.3019,-103.4253,-0.5284,-0.6596,-0.4255,0.3237
1777530224.1119163,L_Foot,-1.024,-0.1148,10.001,-0.6714,-0.2441,0.3052,-0.6866,5.8612,113.9392,0.0396,0.0329,0.8371,0.5446
1777530224.1119163,R_Femur,0.0,0.0,0.0,0.0,0.0,0.0,0.0,0.0,0.0,0.0,0.0,0.0,1.0
1777530224.1119163,R_Tibia,-0.0957,-9.4794,2.4883,0.2441,-0.2441,0.4272,-75.2728,0.5658,-112.7472,-0.3414,-0.5063,-0.6611,0.436
1777530224.1119163,R_Foot,0.8613,1.225,9.8957,0.4883,0.0,-0.061,7.0752,-4.9384,5.3668,0.0596,-0.0458,0.044,0.9962
1777530224.1119163,Trunk,-7.1825,-0.646,-6.46,0.9766,-0.061,-0.6104,-174.375,47.84,64.4952,-0.7616,0.504,-0.3186,0.254
1777530224.1119163,L_Femur,0.5934,9.6852,-0.6125,0.1831,-0.4883,-0.1221,93.587,-3.4937,35.6177,0.6873,-0.2427,0.1881,0.6583
1777530224.1119163,L_Tibia,-0.2201,-8.7473,-4.1535,-0.2441,-0.2441,0.4883,-115.3729,1.3019,-103.4253,-0.5284,-0.6596,-0.4255,0.3237
1777530224.1119163,L_Foot,-1.024,-0.1148,10.001,-0.6714,-0.2441,0.3052,-0.6866,5.8612,113.9392,0.0396,0.0329,0.8371,0.5446
1777530224.1119163,R_Femur,0.0,0.0,0.0,0.0,0.0,0.0,0.0,0.0,0.0,0.0,0.0,0.0,1.0
1777530224.1119163,R_Tibia,-0.0957,-9.4794,2.4883,0.2441,-0.2441,0.4272,-75.2728,0.5658,-112.7472,-0.3414,-0.5063,-0.6611,0.436
1777530224.1119163,R_Foot,0.8613,1.225,9.8957,0.4883,0.0,-0.061,7.0752,-4.9384,5.3668,0.0596,-0.0458,0.044,0.9962
1777530224.1119163,Trunk,-7.1825,-0.646,-6.46,0.9766,-0.061,-0.6104,-174.375,47.84,64.4952,-0.7616,0.504,-0.3186,0.254
1777530224.1119163,L_Femur,0.5934,9.6852,-0.6125,0.1831,-0.4883,-0.1221,93.587,-3.4937,35.6177,0.6873,-0.2427,0.1881,0.6583
1777530224.1119163,L_Tibia,-0.2201,-8.7521,-4.1487,-0.2441,-0.3052,0.4883,-115.3729,1.3019,-103.4308,-0.5284,-0.6596,-0.4255,0.3236
1777530224.1119163,L_Foot,-1.024,-0.1148,10.001,-0.6714,-0.2441,0.3052,-0.6866,5.8612,113.9392,0.0396,0.0329,0.8371,0.5446
1777530224.1119163,R_Femur,0.0,0.0,0.0,0.0,0.0,0.0,0.0,0.0,0.0,0.0,0.0,0.0,1.0
1777530224.1119163,R_Tibia,-0.0957,-9.4794,2.4883,0.2441,-0.2441,0.4272,-75.2728,0.5658,-112.7472,-0.3414,-0.5063,-0.6611,0.436
1777530224.1119163,R_Foot,0.8613,1.225,9.8957,0.4883,0.0,-0.061,7.0752,-4.9384,5.3668,0.0596,-0.0458,0.044,0.9962
1777530224.112917,Trunk,-7.1825,-0.646,-6.46,0.9766,-0.061,-0.6104,-174.375,47.84,64.4952,-0.7616,0.504,-0.3186,0.254
1777530224.112917,L_Femur,0.5934,9.6852,-0.6125,0.1831,-0.4883,-0.1221,93.587,-3.4937,35.6177,0.6873,-0.2427,0.1881,0.6583
1777530224.112917,L_Tibia,-0.2201,-8.7521,-4.1487,-0.2441,-0.3052,0.4883,-115.3729,1.3019,-103.4308,-0.5284,-0.6596,-0.4255,0.3236
1777530224.112917,L_Foot,-1.024,-0.1196,10.0058,-0.6714,-0.3052,0.3052,-0.6866,5.8612,113.9392,0.0396,0.0329,0.8371,0.5446
1777530224.112917,R_Femur,0.0,0.0,0.0,0.0,0.0,0.0,0.0,0.0,0.0,0.0,0.0,0.0,1.0
1777530224.112917,R_Tibia,-0.0957,-9.4794,2.4883,0.2441,-0.2441,0.4272,-75.2728,0.5658,-112.7472,-0.3414,-0.5063,-0.6611,0.436
1777530224.112917,R_Foot,0.8613,1.225,9.8957,0.4883,0.0,-0.061,7.0752,-4.9384,5.3668,0.0596,-0.0458,0.044,0.9962
1777530224.112917,Trunk,-7.1825,-0.646,-6.46,0.9766,-0.061,-0.6104,-174.375,47.84,64.4952,-0.7616,0.504,-0.3186,0.254
1777530224.112917,L_Femur,0.5934,9.6852,-0.6125,0.1831,-0.4883,-0.1221,93.587,-3.4937,35.6177,0.6873,-0.2427,0.1881,0.6583
1777530224.112917,L_Tibia,-0.2201,-8.7521,-4.1487,-0.2441,-0.3052,0.4883,-115.3729,1.3019,-103.4308,-0.5284,-0.6596,-0.4255,0.3236
1777530224.112917,L_Foot,-1.024,-0.1196,10.0058,-0.6714,-0.3052,0.3052,-0.6866,5.8612,113.9392,0.0396,0.0329,0.8371,0.5446
1777530224.112917,R_Femur,0.0,0.0,0.0,0.0,0.0,0.0,0.0,0.0,0.0,0.0,0.0,0.0,1.0
1777530224.112917,R_Tibia,-0.1005,-9.4746,2.4883,0.3052,-0.1831,0.4272,-75.2728,0.5658,-112.7472,-0.3414,-0.5063,-0.6611,0.436
1777530224.112917,R_Foot,0.8613,1.225,9.8957,0.4883,0.0,-0.061,7.0752,-4.9384,5.3668,0.0596,-0.0458,0.044,0.9962
1777530224.112917,Trunk,-7.1729,-0.646,-6.46,0.9766,-0.1221,-0.5493,-174.375,47.84,64.4952,-0.7616,0.504,-0.3186,0.254
1777530224.112917,L_Femur,0.5934,9.6852,-0.6125,0.1831,-0.4883,-0.1221,93.587,-3.4937,35.6177,0.6873,-0.2427,0.1881,0.6583
1777530224.112917,L_Tibia,-0.2201,-8.7521,-4.1487,-0.2441,-0.3052,0.4883,-115.3729,1.3019,-103.4308,-0.5284,-0.6596,-0.4255,0.3236
1777530224.112917,L_Foot,-1.024,-0.1196,10.0058,-0.6714,-0.3052,0.3052,-0.6866,5.8612,113.9392,0.0396,0.0329,0.8371,0.5446
1777530224.112917,R_Femur,0.0,0.0,0.0,0.0,0.0,0.0,0.0,0.0,0.0,0.0,0.0,0.0,1.0
1777530224.112917,R_Tibia,-0.1005,-9.4746,2.4883,0.3052,-0.1831,0.4272,-75.2728,0.5658,-112.7472,-0.3414,-0.5063,-0.6611,0.436
1777530224.112917,R_Foot,0.8613,1.225,9.8957,0.4883,0.0,-0.061,7.0752,-4.9384,5.3668,0.0596,-0.0458,0.044,0.9962
1777530224.112917,Trunk,-7.1729,-0.646,-6.46,0.9766,-0.1221,-0.5493,-174.375,47.84,64.4952,-0.7616,0.504,-0.3186,0.254
1777530224.112917,L_Femur,0.5934,9.6899,-0.6077,0.2441,-0.4272,-0.1221,93.587,-3.4937,35.6177,0.6873,-0.2427,0.1881,0.6583
1777530224.112917,L_Tibia,-0.2201,-8.7521,-4.1487,-0.2441,-0.3052,0.4883,-115.3729,1.3019,-103.4308,-0.5284,-0.6596,-0.4255,0.3236
1777530224.112917,L_Foot,-1.024,-0.1196,10.0058,-0.6714,-0.3052,0.3052,-0.6866,5.8612,113.9392,0.0396,0.0329,0.8371,0.5446
1777530224.112917,R_Femur,0.0,0.0,0.0,0.0,0.0,0.0,0.0,0.0,0.0,0.0,0.0,0.0,1.0
1777530224.112917,R_Tibia,-0.1005,-9.4746,2.4883,0.3052,-0.1831,0.4272,-75.2728,0.5658,-112.7472,-0.3414,-0.5063,-0.6611,0.436
1777530224.112917,R_Foot,0.8613,1.225,9.8957,0.4883,0.0,-0.061,7.0752,-4.9384,5.3668,0.0596,-0.0458,0.044,0.9962
1777530224.112917,Trunk,-7.1729,-0.646,-6.46,0.9766,-0.1221,-0.5493,-174.375,47.84,64.4952,-0.7616,0.504,-0.3186,0.254
1777530224.112917,L_Femur,0.5934,9.6899,-0.6077,0.2441,-0.4272,-0.1221,93.587,-3.4937,35.6177,0.6873,-0.2427,0.1881,0.6583
1777530224.112917,L_Tibia,-0.2201,-8.7521,-4.1487,-0.2441,-0.2441,0.4883,-115.3729,1.3019,-103.4308,-0.5284,-0.6596,-0.4255,0.3236
1777530224.112917,L_Foot,-1.024,-0.1196,10.0058,-0.6714,-0.3052,0.3052,-0.6866,5.8612,113.9392,0.0396,0.0329,0.8371,0.5446
1777530224.112917,R_Femur,0.0,0.0,0.0,0.0,0.0,0.0,0.0,0.0,0.0,0.0,0.0,0.0,1.0
1777530224.112917,R_Tibia,-0.1005,-9.4746,2.4883,0.3052,-0.1831,0.4272,-75.2728,0.5658,-112.7472,-0.3414,-0.5063,-0.6611,0.436
1777530224.112917,R_Foot,0.8613,1.225,9.8957,0.4883,0.0,-0.061,7.0752,-4.9384,5.3668,0.0596,-0.0458,0.044,0.9962
1777530224.112917,Trunk,-7.1729,-0.646,-6.46,0.9766,-0.1221,-0.5493,-174.375,47.84,64.4952,-0.7616,0.504,-0.3186,0.254
1777530224.112917,L_Femur,0.5934,9.6899,-0.6077,0.2441,-0.4272,-0.1221,93.587,-3.4937,35.6177,0.6873,-0.2427,0.1881,0.6583
1777530224.112917,L_Tibia,-0.2201,-8.7521,-4.1487,-0.2441,-0.2441,0.4883,-115.3729,1.3019,-103.4308,-0.5284,-0.6596,-0.4255,0.3236
1777530224.112917,L_Foot,-1.024,-0.1196,10.001,-0.6714,-0.2441,0.3052,-0.6866,5.8612,113.9392,0.0396,0.0329,0.8371,0.5446
1777530224.112917,R_Femur,0.0,0.0,0.0,0.0,0.0,0.0,0.0,0.0,0.0,0.0,0.0,0.0,1.0
1777530224.112917,R_Tibia,-0.1005,-9.4746,2.4883,0.3052,-0.1831,0.4272,-75.2728,0.5658,-112.7472,-0.3414,-0.5063,-0.6611,0.436
1777530224.112917,R_Foot,0.8613,1.225,9.8957,0.4883,0.0,-0.061,7.0752,-4.9384,5.3668,0.0596,-0.0458,0.044,0.9962
1777530224.1139169,Trunk,-7.1729,-0.646,-6.46,0.9766,-0.1221,-0.5493,-174.375,47.84,64.4952,-0.7616,0.504,-0.3186,0.254
1777530224.1139169,L_Femur,0.5934,9.6899,-0.6077,0.2441,-0.4272,-0.1221,93.587,-3.4937,35.6177,0.6873,-0.2427,0.1881,0.6583
1777530224.1139169,L_Tibia,-0.2201,-8.7521,-4.1487,-0.2441,-0.2441,0.4883,-115.3729,1.3019,-103.4308,-0.5284,-0.6596,-0.4255,0.3236
1777530224.1139169,L_Foot,-1.024,-0.1196,10.001,-0.6714,-0.2441,0.3052,-0.6866,5.8612,113.9392,0.0396,0.0329,0.8371,0.5446
1777530224.1139169,R_Femur,0.0,0.0,0.0,0.0,0.0,0.0,0.0,0.0,0.0,0.0,0.0,0.0,1.0
1777530224.1139169,R_Tibia,-0.1005,-9.4746,2.4883,0.3052,-0.1831,0.4272,-75.2728,0.5658,-112.7472,-0.3414,-0.5063,-0.6611,0.436
1777530224.1139169,R_Foot,0.8518,1.225,9.8909,0.4883,0.061,-0.1221,7.0752,-4.9384,5.3668,0.0596,-0.0458,0.044,0.9962
1777530224.1139169,Trunk,-7.1682,-0.6556,-6.46,0.9766,-0.1221,-0.6104,-174.375,47.84,64.5007,-0.7615,0.504,-0.3186,0.254
1777530224.1139169,L_Femur,0.5934,9.6899,-0.6077,0.2441,-0.4272,-0.1221,93.587,-3.4937,35.6177,0.6873,-0.2427,0.1881,0.6583
1777530224.1139169,L_Tibia,-0.2201,-8.7521,-4.1487,-0.2441,-0.2441,0.4883,-115.3729,1.3019,-103.4308,-0.5284,-0.6596,-0.4255,0.3236
1777530224.1139169,L_Foot,-1.024,-0.1196,10.001,-0.6714,-0.2441,0.3052,-0.6866,5.8612,113.9392,0.0396,0.0329,0.8371,0.5446
1777530224.1139169,R_Femur,0.0,0.0,0.0,0.0,0.0,0.0,0.0,0.0,0.0,0.0,0.0,0.0,1.0
1777530224.1139169,R_Tibia,-0.1005,-9.4746,2.4883,0.3052,-0.1831,0.4272,-75.2728,0.5658,-112.7472,-0.3414,-0.5063,-0.6611,0.436
1777530224.1139169,R_Foot,0.8518,1.225,9.8909,0.4883,0.061,-0.1221,7.0752,-4.9384,5.3668,0.0596,-0.0458,0.044,0.9962
1777530224.1139169,Trunk,-7.1682,-0.6556,-6.46,0.9766,-0.1221,-0.6104,-174.375,47.84,64.5007,-0.7615,0.504,-0.3186,0.254
1777530224.1139169,L_Femur,0.5886,9.6947,-0.6125,0.2441,-0.4272,-0.1221,93.587,-3.4937,35.6177,0.6873,-0.2427,0.1881,0.6583
1777530224.1139169,L_Tibia,-0.2201,-8.7521,-4.1487,-0.2441,-0.2441,0.4883,-115.3729,1.3019,-103.4308,-0.5284,-0.6596,-0.4255,0.3236
1777530224.1139169,L_Foot,-1.024,-0.1196,10.001,-0.6714,-0.2441,0.3052,-0.6866,5.8612,113.9392,0.0396,0.0329,0.8371,0.5446
1777530224.1139169,R_Femur,0.0,0.0,0.0,0.0,0.0,0.0,0.0,0.0,0.0,0.0,0.0,0.0,1.0
1777530224.1139169,R_Tibia,-0.1005,-9.4746,2.4883,0.3052,-0.1831,0.4272,-75.2728,0.5658,-112.7472,-0.3414,-0.5063,-0.6611,0.436
1777530224.1139169,R_Foot,0.8518,1.225,9.8909,0.4883,0.061,-0.1221,7.0752,-4.9384,5.3668,0.0596,-0.0458,0.044,0.9962
1777530224.1139169,Trunk,-7.1682,-0.6556,-6.46,0.9766,-0.1221,-0.6104,-174.375,47.84,64.5007,-0.7615,0.504,-0.3186,0.254
1777530224.1139169,L_Femur,0.5886,9.6947,-0.6125,0.2441,-0.4272,-0.1221,93.587,-3.4937,35.6177,0.6873,-0.2427,0.1881,0.6583
1777530224.1139169,L_Tibia,-0.2201,-8.7521,-4.1487,-0.3052,-0.3052,0.4272,-115.3729,1.3019,-103.4308,-0.5284,-0.6596,-0.4255,0.3236
1777530224.1139169,L_Foot,-1.024,-0.1196,10.001,-0.6714,-0.2441,0.3052,-0.6866,5.8612,113.9392,0.0396,0.0329,0.8371,0.5446
1777530224.1139169,R_Femur,0.0,0.0,0.0,0.0,0.0,0.0,0.0,0.0,0.0,0.0,0.0,0.0,1.0
1777530224.1139169,R_Tibia,-0.1005,-9.4746,2.4883,0.3052,-0.1831,0.4272,-75.2728,0.5658,-112.7472,-0.3414,-0.5063,-0.6611,0.436
1777530224.1139169,R_Foot,0.8518,1.225,9.8909,0.4883,0.061,-0.1221,7.0752,-4.9384,5.3668,0.0596,-0.0458,0.044,0.9962
1777530224.1139169,Trunk,-7.1682,-0.6556,-6.46,0.9766,-0.1221,-0.6104,-174.375,47.84,64.5007,-0.7615,0.504,-0.3186,0.254
1777530224.1139169,L_Femur,0.5886,9.6947,-0.6125,0.2441,-0.4272,-0.1221,93.587,-3.4937,35.6177,0.6873,-0.2427,0.1881,0.6583
1777530224.1139169,L_Tibia,-0.2201,-8.7521,-4.1487,-0.3052,-0.3052,0.4272,-115.3729,1.3019,-103.4308,-0.5284,-0.6596,-0.4255,0.3236
1777530224.1139169,L_Foot,-1.024,-0.1148,10.001,-0.7324,-0.2441,0.3052,-0.6866,5.8612,113.9392,0.0396,0.0329,0.8371,0.5446
1777530224.1139169,R_Femur,0.0,0.0,0.0,0.0,0.0,0.0,0.0,0.0,0.0,0.0,0.0,0.0,1.0
1777530224.1139169,R_Tibia,-0.1005,-9.4746,2.4883,0.3052,-0.1831,0.4272,-75.2728,0.5658,-112.7472,-0.3414,-0.5063,-0.6611,0.436
1777530224.1139169,R_Foot,0.8518,1.225,9.8909,0.4883,0.061,-0.1221,7.0752,-4.9384,5.3668,0.0596,-0.0458,0.044,0.9962
1777530224.1149166,Trunk,-7.1682,-0.6556,-6.46,0.9766,-0.1221,-0.6104,-174.375,47.84,64.5007,-0.7615,0.504,-0.3186,0.254
1777530224.1149166,L_Femur,0.5886,9.6947,-0.6125,0.2441,-0.4272,-0.1221,93.587,-3.4937,35.6177,0.6873,-0.2427,0.1881,0.6583
1777530224.1149166,L_Tibia,-0.2201,-8.7521,-4.1487,-0.3052,-0.3052,0.4272,-115.3729,1.3019,-103.4308,-0.5284,-0.6596,-0.4255,0.3236
1777530224.1149166,L_Foot,-1.024,-0.1148,10.001,-0.7324,-0.2441,0.3052,-0.6866,5.8612,113.9392,0.0396,0.0329,0.8371,0.5446
1777530224.1149166,R_Femur,0.0,0.0,0.0,0.0,0.0,0.0,0.0,0.0,0.0,0.0,0.0,0.0,1.0
1777530224.1149166,R_Tibia,-0.0957,-9.4794,2.4931,0.3052,-0.1831,0.3662,-75.2728,0.5658,-112.7472,-0.3414,-0.5063,-0.6611,0.436
1777530224.1149166,R_Foot,0.8518,1.225,9.8909,0.4883,0.061,-0.1221,7.0752,-4.9384,5.3668,0.0596,-0.0458,0.044,0.9962
1777530224.1149166,Trunk,-7.1729,-0.6699,-6.4647,1.0376,-0.061,-0.6104,-174.375,47.84,64.5007,-0.7615,0.504,-0.3186,0.254
1777530224.1149166,L_Femur,0.5886,9.6947,-0.6125,0.2441,-0.4272,-0.1221,93.587,-3.4937,35.6177,0.6873,-0.2427,0.1881,0.6583
1777530224.1149166,L_Tibia,-0.2201,-8.7521,-4.1487,-0.3052,-0.3052,0.4272,-115.3729,1.3019,-103.4308,-0.5284,-0.6596,-0.4255,0.3236
1777530224.1149166,L_Foot,-1.024,-0.1148,10.001,-0.7324,-0.2441,0.3052,-0.6866,5.8612,113.9392,0.0396,0.0329,0.8371,0.5446
1777530224.1149166,R_Femur,0.0,0.0,0.0,0.0,0.0,0.0,0.0,0.0,0.0,0.0,0.0,0.0,1.0
1777530224.1149166,R_Tibia,-0.0957,-9.4794,2.4931,0.3052,-0.1831,0.3662,-75.2728,0.5658,-112.7472,-0.3414,-0.5063,-0.6611,0.436
1777530224.1149166,R_Foot,0.8518,1.225,9.8909,0.4883,0.061,-0.1221,7.0752,-4.9384,5.3668,0.0596,-0.0458,0.044,0.9962
1777530224.1149166,Trunk,-7.1729,-0.6699,-6.4647,1.0376,-0.061,-0.6104,-174.375,47.84,64.5007,-0.7615,0.504,-0.3186,0.254
1777530224.1149166,L_Femur,0.5934,9.6852,-0.6077,0.2441,-0.4272,-0.1221,93.587,-3.4937,35.6177,0.6873,-0.2427,0.1881,0.6583
1777530224.1149166,L_Tibia,-0.2201,-8.7521,-4.1487,-0.3052,-0.3052,0.4272,-115.3729,1.3019,-103.4308,-0.5284,-0.6596,-0.4255,0.3236
1777530224.1149166,L_Foot,-1.024,-0.1148,10.001,-0.7324,-0.2441,0.3052,-0.6866,5.8612,113.9392,0.0396,0.0329,0.8371,0.5446
1777530224.1149166,R_Femur,0.0,0.0,0.0,0.0,0.0,0.0,0.0,0.0,0.0,0.0,0.0,0.0,1.0
1777530224.1149166,R_Tibia,-0.0957,-9.4794,2.4931,0.3052,-0.1831,0.3662,-75.2728,0.5658,-112.7472,-0.3414,-0.5063,-0.6611,0.436
1777530224.1149166,R_Foot,0.8518,1.225,9.8909,0.4883,0.061,-0.1221,7.0752,-4.9384,5.3668,0.0596,-0.0458,0.044,0.9962
1777530224.1149166,Trunk,-7.1729,-0.6699,-6.4647,1.0376,-0.061,-0.6104,-174.375,47.84,64.5007,-0.7615,0.504,-0.3186,0.254
1777530224.1149166,L_Femur,0.5934,9.6852,-0.6077,0.2441,-0.4272,-0.1221,93.587,-3.4937,35.6177,0.6873,-0.2427,0.1881,0.6583
1777530224.1149166,L_Tibia,-0.2153,-8.7521,-4.1487,-0.2441,-0.3052,0.4272,-115.3729,1.3019,-103.4363,-0.5283,-0.6596,-0.4255,0.3236
1777530224.1149166,L_Foot,-1.024,-0.1148,10.001,-0.7324,-0.2441,0.3052,-0.6866,5.8612,113.9392,0.0396,0.0329,0.8371,0.5446
1777530224.1149166,R_Femur,0.0,0.0,0.0,0.0,0.0,0.0,0.0,0.0,0.0,0.0,0.0,0.0,1.0
1777530224.1149166,R_Tibia,-0.0957,-9.4794,2.4931,0.3052,-0.1831,0.3662,-75.2728,0.5658,-112.7472,-0.3414,-0.5063,-0.6611,0.436
1777530224.1149166,R_Foot,0.8518,1.225,9.8909,0.4883,0.061,-0.1221,7.0752,-4.9384,5.3668,0.0596,-0.0458,0.044,0.9962
1777530224.1149166,Trunk,-7.1729,-0.6699,-6.4647,1.0376,-0.061,-0.6104,-174.375,47.84,64.5007,-0.7615,0.504,-0.3186,0.254
1777530224.1149166,L_Femur,0.5934,9.6852,-0.6077,0.2441,-0.4272,-0.1221,93.587,-3.4937,35.6177,0.6873,-0.2427,0.1881,0.6583
1777530224.1149166,L_Tibia,-0.2153,-8.7521,-4.1487,-0.2441,-0.3052,0.4272,-115.3729,1.3019,-103.4363,-0.5283,-0.6596,-0.4255,0.3236
1777530224.1149166,L_Foot,-1.024,-0.1196,9.9962,-0.6714,-0.3052,0.3052,-0.6866,5.8612,113.9392,0.0396,0.0329,0.8371,0.5446
1777530224.1149166,R_Femur,0.0,0.0,0.0,0.0,0.0,0.0,0.0,0.0,0.0,0.0,0.0,0.0,1.0
1777530224.1149166,R_Tibia,-0.0957,-9.4794,2.4931,0.3052,-0.1831,0.3662,-75.2728,0.5658,-112.7472,-0.3414,-0.5063,-0.6611,0.436
1777530224.1149166,R_Foot,0.8518,1.225,9.8909,0.4883,0.061,-0.1221,7.0752,-4.9384,5.3668,0.0596,-0.0458,0.044,0.9962
1777530224.1159158,Trunk,-7.1729,-0.6699,-6.4647,1.0376,-0.061,-0.6104,-174.375,47.84,64.5007,-0.7615,0.504,-0.3186,0.254
1777530224.1159158,L_Femur,0.5934,9.6852,-0.6077,0.2441,-0.4272,-0.1221,93.587,-3.4937,35.6177,0.6873,-0.2427,0.1881,0.6583
1777530224.1159158,L_Tibia,-0.2153,-8.7521,-4.1487,-0.2441,-0.3052,0.4272,-115.3729,1.3019,-103.4363,-0.5283,-0.6596,-0.4255,0.3236
1777530224.1159158,L_Foot,-1.024,-0.1196,9.9962,-0.6714,-0.3052,0.3052,-0.6866,5.8612,113.9392,0.0396,0.0329,0.8371,0.5446
1777530224.1159158,R_Femur,0.0,0.0,0.0,0.0,0.0,0.0,0.0,0.0,0.0,0.0,0.0,0.0,1.0
1777530224.1159158,R_Tibia,-0.0957,-9.4794,2.4931,0.3052,-0.1831,0.3662,-75.2728,0.5658,-112.7472,-0.3414,-0.5063,-0.6611,0.436
1777530224.1159158,R_Foot,0.8518,1.225,9.8909,0.4272,0.0,-0.1221,7.0752,-4.9384,5.3613,0.0596,-0.0458,0.044,0.9962
1777530224.1159158,Trunk,-7.1682,-0.6699,-6.4695,0.9155,0.0,-0.6104,-174.375,47.84,64.5062,-0.7615,0.5041,-0.3185,0.2541
1777530224.1159158,L_Femur,0.5934,9.6852,-0.6077,0.2441,-0.4272,-0.1221,93.587,-3.4937,35.6177,0.6873,-0.2427,0.1881,0.6583
1777530224.1159158,L_Tibia,-0.2153,-8.7521,-4.1487,-0.2441,-0.3052,0.4272,-115.3729,1.3019,-103.4363,-0.5283,-0.6596,-0.4255,0.3236
1777530224.1159158,L_Foot,-1.024,-0.1196,9.9962,-0.6714,-0.3052,0.3052,-0.6866,5.8612,113.9392,0.0396,0.0329,0.8371,0.5446
1777530224.1159158,R_Femur,0.0,0.0,0.0,0.0,0.0,0.0,0.0,0.0,0.0,0.0,0.0,0.0,1.0
1777530224.1159158,R_Tibia,-0.0957,-9.4794,2.4931,0.3052,-0.1831,0.3662,-75.2728,0.5658,-112.7472,-0.3414,-0.5063,-0.6611,0.436
1777530224.1159158,R_Foot,0.8518,1.225,9.8909,0.4272,0.0,-0.1221,7.0752,-4.9384,5.3613,0.0596,-0.0458,0.044,0.9962
1777530224.1159158,Trunk,-7.1682,-0.6699,-6.4695,0.9155,0.0,-0.6104,-174.375,47.84,64.5062,-0.7615,0.5041,-0.3185,0.2541
1777530224.1159158,L_Femur,0.5886,9.6852,-0.6125,0.2441,-0.4883,-0.1221,93.587,-3.4937,35.6177,0.6873,-0.2427,0.1881,0.6583
1777530224.1159158,L_Tibia,-0.2153,-8.7521,-4.1487,-0.2441,-0.3052,0.4272,-115.3729,1.3019,-103.4363,-0.5283,-0.6596,-0.4255,0.3236
1777530224.1159158,L_Foot,-1.024,-0.1196,9.9962,-0.6714,-0.3052,0.3052,-0.6866,5.8612,113.9392,0.0396,0.0329,0.8371,0.5446
1777530224.1159158,R_Femur,0.0,0.0,0.0,0.0,0.0,0.0,0.0,0.0,0.0,0.0,0.0,0.0,1.0
1777530224.1159158,R_Tibia,-0.0957,-9.4794,2.4931,0.3052,-0.1831,0.3662,-75.2728,0.5658,-112.7472,-0.3414,-0.5063,-0.6611,0.436
1777530224.1159158,R_Foot,0.8518,1.225,9.8909,0.4272,0.0,-0.1221,7.0752,-4.9384,5.3613,0.0596,-0.0458,0.044,0.9962
1777530224.1159158,Trunk,-7.1682,-0.6699,-6.4695,0.9155,0.0,-0.6104,-174.375,47.84,64.5062,-0.7615,0.5041,-0.3185,0.2541
1777530224.1159158,L_Femur,0.5886,9.6852,-0.6125,0.2441,-0.4883,-0.1221,93.587,-3.4937,35.6177,0.6873,-0.2427,0.1881,0.6583
1777530224.1159158,L_Tibia,-0.2201,-8.7521,-4.1487,-0.2441,-0.3052,0.4883,-115.3729,1.3019,-103.4418,-0.5283,-0.6596,-0.4255,0.3236
1777530224.1159158,L_Foot,-1.024,-0.1196,9.9962,-0.6714,-0.3052,0.3052,-0.6866,5.8612,113.9392,0.0396,0.0329,0.8371,0.5446
1777530224.1159158,R_Femur,0.0,0.0,0.0,0.0,0.0,0.0,0.0,0.0,0.0,0.0,0.0,0.0,1.0
1777530224.1159158,R_Tibia,-0.0957,-9.4794,2.4931,0.3052,-0.1831,0.3662,-75.2728,0.5658,-112.7472,-0.3414,-0.5063,-0.6611,0.436
1777530224.1159158,R_Foot,0.8518,1.225,9.8909,0.4272,0.0,-0.1221,7.0752,-4.9384,5.3613,0.0596,-0.0458,0.044,0.9962
1777530224.1159158,Trunk,-7.1682,-0.6699,-6.4695,0.9155,0.0,-0.6104,-174.375,47.84,64.5062,-0.7615,0.5041,-0.3185,0.2541
1777530224.1159158,L_Femur,0.5886,9.6852,-0.6125,0.2441,-0.4883,-0.1221,93.587,-3.4937,35.6177,0.6873,-0.2427,0.1881,0.6583
1777530224.1159158,L_Tibia,-0.2201,-8.7521,-4.1487,-0.2441,-0.3052,0.4883,-115.3729,1.3019,-103.4418,-0.5283,-0.6596,-0.4255,0.3236
1777530224.1159158,L_Foot,-1.024,-0.1148,9.9962,-0.7324,-0.2441,0.3052,-0.6866,5.8612,113.9337,0.0396,0.0329,0.8371,0.5447
1777530224.1159158,R_Femur,0.0,0.0,0.0,0.0,0.0,0.0,0.0,0.0,0.0,0.0,0.0,0.0,1.0
1777530224.1159158,R_Tibia,-0.0957,-9.4794,2.4931,0.3052,-0.1831,0.3662,-75.2728,0.5658,-112.7472,-0.3414,-0.5063,-0.6611,0.436
1777530224.1159158,R_Foot,0.8518,1.225,9.8909,0.4272,0.0,-0.1221,7.0752,-4.9384,5.3613,0.0596,-0.0458,0.044,0.9962
1777530224.1169176,Trunk,-7.1682,-0.6699,-6.4695,0.9155,0.0,-0.6104,-174.375,47.84,64.5062,-0.7615,0.5041,-0.3185,0.2541
1777530224.1169176,L_Femur,0.5886,9.6852,-0.6125,0.2441,-0.4883,-0.1221,93.587,-3.4937,35.6177,0.6873,-0.2427,0.1881,0.6583
1777530224.1169176,L_Tibia,-0.2201,-8.7521,-4.1487,-0.2441,-0.3052,0.4883,-115.3729,1.3019,-103.4418,-0.5283,-0.6596,-0.4255,0.3236
1777530224.1169176,L_Foot,-1.024,-0.1148,9.9962,-0.7324,-0.2441,0.3052,-0.6866,5.8612,113.9337,0.0396,0.0329,0.8371,0.5447
1777530224.1169176,R_Femur,0.0,0.0,0.0,0.0,0.0,0.0,0.0,0.0,0.0,0.0,0.0,0.0,1.0
1777530224.1169176,R_Tibia,-0.1005,-9.4746,2.4931,0.2441,-0.2441,0.3662,-75.2783,0.5658,-112.7472,-0.3414,-0.5063,-0.661,0.436
1777530224.1169176,R_Foot,0.8518,1.225,9.8909,0.4272,0.0,-0.1221,7.0752,-4.9384,5.3613,0.0596,-0.0458,0.044,0.9962
1777530224.1169176,Trunk,-7.1777,-0.6651,-6.4647,0.9155,0.0,-0.5493,-174.375,47.84,64.5062,-0.7615,0.5041,-0.3185,0.2541
1777530224.1169176,L_Femur,0.5886,9.6852,-0.6125,0.2441,-0.4883,-0.1221,93.587,-3.4937,35.6177,0.6873,-0.2427,0.1881,0.6583
1777530224.1169176,L_Tibia,-0.2201,-8.7521,-4.1487,-0.2441,-0.3052,0.4883,-115.3729,1.3019,-103.4418,-0.5283,-0.6596,-0.4255,0.3236
1777530224.1169176,L_Foot,-1.024,-0.1148,9.9962,-0.7324,-0.2441,0.3052,-0.6866,5.8612,113.9337,0.0396,0.0329,0.8371,0.5447
1777530224.1169176,R_Femur,0.0,0.0,0.0,0.0,0.0,0.0,0.0,0.0,0.0,0.0,0.0,0.0,1.0
1777530224.1169176,R_Tibia,-0.1005,-9.4746,2.4931,0.2441,-0.2441,0.3662,-75.2783,0.5658,-112.7472,-0.3414,-0.5063,-0.661,0.436
1777530224.1169176,R_Foot,0.8518,1.225,9.8909,0.4272,0.0,-0.1221,7.0752,-4.9384,5.3613,0.0596,-0.0458,0.044,0.9962
1777530224.1169176,Trunk,-7.1777,-0.6651,-6.4647,0.9155,0.0,-0.5493,-174.375,47.84,64.5062,-0.7615,0.5041,-0.3185,0.2541
1777530224.1169176,L_Femur,0.5886,9.6852,-0.6077,0.2441,-0.3662,-0.1221,93.587,-3.4937,35.6177,0.6873,-0.2427,0.1881,0.6583
1777530224.1169176,L_Tibia,-0.2201,-8.7521,-4.1487,-0.2441,-0.3052,0.4883,-115.3729,1.3019,-103.4418,-0.5283,-0.6596,-0.4255,0.3236
1777530224.1169176,L_Foot,-1.024,-0.1148,9.9962,-0.7324,-0.2441,0.3052,-0.6866,5.8612,113.9337,0.0396,0.0329,0.8371,0.5447
1777530224.1169176,R_Femur,0.0,0.0,0.0,0.0,0.0,0.0,0.0,0.0,0.0,0.0,0.0,0.0,1.0
1777530224.1169176,R_Tibia,-0.1005,-9.4746,2.4931,0.2441,-0.2441,0.3662,-75.2783,0.5658,-112.7472,-0.3414,-0.5063,-0.661,0.436
1777530224.1169176,R_Foot,0.8518,1.225,9.8909,0.4272,0.0,-0.1221,7.0752,-4.9384,5.3613,0.0596,-0.0458,0.044,0.9962
1777530224.1169176,Trunk,-7.1777,-0.6651,-6.4647,0.9155,0.0,-0.5493,-174.375,47.84,64.5062,-0.7615,0.5041,-0.3185,0.2541
1777530224.1169176,L_Femur,0.5886,9.6852,-0.6077,0.2441,-0.3662,-0.1221,93.587,-3.4937,35.6177,0.6873,-0.2427,0.1881,0.6583
1777530224.1169176,L_Tibia,-0.2249,-8.7521,-4.1487,-0.2441,-0.3052,0.4272,-115.3729,1.3019,-103.4418,-0.5283,-0.6596,-0.4255,0.3236
1777530224.1169176,L_Foot,-1.024,-0.1148,9.9962,-0.7324,-0.2441,0.3052,-0.6866,5.8612,113.9337,0.0396,0.0329,0.8371,0.5447
1777530224.1169176,R_Femur,0.0,0.0,0.0,0.0,0.0,0.0,0.0,0.0,0.0,0.0,0.0,0.0,1.0
1777530224.1169176,R_Tibia,-0.1005,-9.4746,2.4931,0.2441,-0.2441,0.3662,-75.2783,0.5658,-112.7472,-0.3414,-0.5063,-0.661,0.436
1777530224.1169176,R_Foot,0.8518,1.225,9.8909,0.4272,0.0,-0.1221,7.0752,-4.9384,5.3613,0.0596,-0.0458,0.044,0.9962
1777530224.1169176,Trunk,-7.1777,-0.6651,-6.4647,0.9155,0.0,-0.5493,-174.375,47.84,64.5062,-0.7615,0.5041,-0.3185,0.2541
1777530224.1169176,L_Femur,0.5886,9.6852,-0.6077,0.2441,-0.3662,-0.1221,93.587,-3.4937,35.6177,0.6873,-0.2427,0.1881,0.6583
1777530224.1169176,L_Tibia,-0.2249,-8.7521,-4.1487,-0.2441,-0.3052,0.4272,-115.3729,1.3019,-103.4418,-0.5283,-0.6596,-0.4255,0.3236
1777530224.1169176,L_Foot,-1.024,-0.1148,10.001,-0.6714,-0.3052,0.3052,-0.6866,5.8612,113.9337,0.0396,0.0329,0.8371,0.5447
1777530224.1169176,R_Femur,0.0,0.0,0.0,0.0,0.0,0.0,0.0,0.0,0.0,0.0,0.0,0.0,1.0
1777530224.1169176,R_Tibia,-0.1005,-9.4746,2.4931,0.2441,-0.2441,0.3662,-75.2783,0.5658,-112.7472,-0.3414,-0.5063,-0.661,0.436
1777530224.1169176,R_Foot,0.8518,1.225,9.8909,0.4272,0.0,-0.1221,7.0752,-4.9384,5.3613,0.0596,-0.0458,0.044,0.9962
1777530224.1179163,Trunk,-7.1729,-0.6508,-6.4647,0.9155,0.0,-0.5493,-174.375,47.84,64.5117,-0.7615,0.5041,-0.3185,0.2541
1777530224.1179163,L_Femur,0.5886,9.6852,-0.6077,0.2441,-0.3662,-0.1221,93.587,-3.4937,35.6177,0.6873,-0.2427,0.1881,0.6583
1777530224.1179163,L_Tibia,-0.2249,-8.7521,-4.1487,-0.2441,-0.3052,0.4272,-115.3729,1.3019,-103.4418,-0.5283,-0.6596,-0.4255,0.3236
1777530224.1179163,L_Foot,-1.024,-0.1148,10.001,-0.6714,-0.3052,0.3052,-0.6866,5.8612,113.9337,0.0396,0.0329,0.8371,0.5447
1777530224.1179163,R_Femur,0.0,0.0,0.0,0.0,0.0,0.0,0.0,0.0,0.0,0.0,0.0,0.0,1.0
1777530224.1179163,R_Tibia,-0.1005,-9.4746,2.4931,0.2441,-0.2441,0.3662,-75.2783,0.5658,-112.7472,-0.3414,-0.5063,-0.661,0.436
1777530224.1179163,R_Foot,0.8518,1.225,9.8909,0.4272,0.0,-0.1221,7.0752,-4.9384,5.3613,0.0596,-0.0458,0.044,0.9962
1777530224.1179163,Trunk,-7.1729,-0.6508,-6.4647,0.9155,0.0,-0.5493,-174.375,47.84,64.5117,-0.7615,0.5041,-0.3185,0.2541
1777530224.1179163,L_Femur,0.5886,9.6852,-0.6077,0.1831,-0.3662,-0.1221,93.587,-3.4937,35.6177,0.6873,-0.2427,0.1881,0.6583
1777530224.1179163,L_Tibia,-0.2249,-8.7521,-4.1487,-0.2441,-0.3052,0.4272,-115.3729,1.3019,-103.4418,-0.5283,-0.6596,-0.4255,0.3236
1777530224.1179163,L_Foot,-1.024,-0.1148,10.001,-0.6714,-0.3052,0.3052,-0.6866,5.8612,113.9337,0.0396,0.0329,0.8371,0.5447
1777530224.1179163,R_Femur,0.0,0.0,0.0,0.0,0.0,0.0,0.0,0.0,0.0,0.0,0.0,0.0,1.0
1777530224.1179163,R_Tibia,-0.1005,-9.4746,2.4931,0.2441,-0.2441,0.3662,-75.2783,0.5658,-112.7472,-0.3414,-0.5063,-0.661,0.436
1777530224.1179163,R_Foot,0.8518,1.225,9.8909,0.4272,0.0,-0.1221,7.0752,-4.9384,5.3613,0.0596,-0.0458,0.044,0.9962
1777530224.1179163,Trunk,-7.1729,-0.6508,-6.4647,0.9155,0.0,-0.5493,-174.375,47.84,64.5117,-0.7615,0.5041,-0.3185,0.2541
1777530224.1179163,L_Femur,0.5886,9.6852,-0.6077,0.1831,-0.3662,-0.1221,93.587,-3.4937,35.6177,0.6873,-0.2427,0.1881,0.6583
1777530224.1179163,L_Tibia,-0.2201,-8.7568,-4.1487,-0.2441,-0.2441,0.4883,-115.3729,1.3019,-103.4473,-0.5283,-0.6597,-0.4256,0.3236
1777530224.1179163,L_Foot,-1.024,-0.1148,10.001,-0.6714,-0.3052,0.3052,-0.6866,5.8612,113.9337,0.0396,0.0329,0.8371,0.5447
1777530224.1179163,R_Femur,0.0,0.0,0.0,0.0,0.0,0.0,0.0,0.0,0.0,0.0,0.0,0.0,1.0
1777530224.1179163,R_Tibia,-0.1005,-9.4746,2.4931,0.2441,-0.2441,0.3662,-75.2783,0.5658,-112.7472,-0.3414,-0.5063,-0.661,0.436
1777530224.1179163,R_Foot,0.8518,1.225,9.8909,0.4272,0.0,-0.1221,7.0752,-4.9384,5.3613,0.0596,-0.0458,0.044,0.9962
1777530224.1179163,Trunk,-7.1729,-0.6508,-6.4647,0.9155,0.0,-0.5493,-174.375,47.84,64.5117,-0.7615,0.5041,-0.3185,0.2541
1777530224.1179163,L_Femur,0.5886,9.6852,-0.6077,0.1831,-0.3662,-0.1221,93.587,-3.4937,35.6177,0.6873,-0.2427,0.1881,0.6583
1777530224.1179163,L_Tibia,-0.2201,-8.7568,-4.1487,-0.2441,-0.2441,0.4883,-115.3729,1.3019,-103.4473,-0.5283,-0.6597,-0.4256,0.3236
1777530224.1179163,L_Foot,-1.024,-0.1148,9.9962,-0.6714,-0.2441,0.3052,-0.6866,5.8612,113.9337,0.0396,0.0329,0.8371,0.5447
1777530224.1179163,R_Femur,0.0,0.0,0.0,0.0,0.0,0.0,0.0,0.0,0.0,0.0,0.0,0.0,1.0
1777530224.1179163,R_Tibia,-0.1005,-9.4746,2.4931,0.2441,-0.2441,0.3662,-75.2783,0.5658,-112.7472,-0.3414,-0.5063,-0.661,0.436
1777530224.1179163,R_Foot,0.8518,1.225,9.8909,0.4272,0.0,-0.1221,7.0752,-4.9384,5.3613,0.0596,-0.0458,0.044,0.9962
1777530224.1179163,Trunk,-7.1729,-0.6508,-6.4647,0.9155,0.0,-0.5493,-174.375,47.84,64.5117,-0.7615,0.5041,-0.3185,0.2541
1777530224.1179163,L_Femur,0.5886,9.6852,-0.6077,0.1831,-0.3662,-0.1221,93.587,-3.4937,35.6177,0.6873,-0.2427,0.1881,0.6583
1777530224.1179163,L_Tibia,-0.2201,-8.7568,-4.1487,-0.2441,-0.2441,0.4883,-115.3729,1.3019,-103.4473,-0.5283,-0.6597,-0.4256,0.3236
1777530224.1179163,L_Foot,-1.024,-0.1148,9.9962,-0.6714,-0.2441,0.3052,-0.6866,5.8612,113.9337,0.0396,0.0329,0.8371,0.5447
1777530224.1179163,R_Femur,0.0,0.0,0.0,0.0,0.0,0.0,0.0,0.0,0.0,0.0,0.0,0.0,1.0
1777530224.1179163,R_Tibia,-0.0957,-9.4794,2.4883,0.3052,-0.1831,0.3662,-75.2783,0.5658,-112.7472,-0.3414,-0.5063,-0.661,0.436
1777530224.1179163,R_Foot,0.8518,1.225,9.8909,0.4272,0.0,-0.1221,7.0752,-4.9384,5.3613,0.0596,-0.0458,0.044,0.9962
1777530224.1179163,Trunk,-7.1825,-0.6412,-6.4552,0.9766,-0.061,-0.5493,-174.375,47.84,64.5117,-0.7615,0.5041,-0.3185,0.2541
1777530224.1179163,L_Femur,0.5886,9.6852,-0.6077,0.1831,-0.3662,-0.1221,93.587,-3.4937,35.6177,0.6873,-0.2427,0.1881,0.6583
1777530224.1179163,L_Tibia,-0.2201,-8.7568,-4.1487,-0.2441,-0.2441,0.4883,-115.3729,1.3019,-103.4473,-0.5283,-0.6597,-0.4256,0.3236
1777530224.1179163,L_Foot,-1.024,-0.1148,9.9962,-0.6714,-0.2441,0.3052,-0.6866,5.8612,113.9337,0.0396,0.0329,0.8371,0.5447
1777530224.1179163,R_Femur,0.0,0.0,0.0,0.0,0.0,0.0,0.0,0.0,0.0,0.0,0.0,0.0,1.0
1777530224.1179163,R_Tibia,-0.0957,-9.4794,2.4883,0.3052,-0.1831,0.3662,-75.2783,0.5658,-112.7472,-0.3414,-0.5063,-0.661,0.436
1777530224.1179163,R_Foot,0.8518,1.225,9.8909,0.4272,0.0,-0.1221,7.0752,-4.9384,5.3613,0.0596,-0.0458,0.044,0.9962
1777530224.1189172,Trunk,-7.1825,-0.6412,-6.4552,0.9766,-0.061,-0.5493,-174.375,47.84,64.5117,-0.7615,0.5041,-0.3185,0.2541
1777530224.1189172,L_Femur,0.5981,9.6899,-0.6077,0.3052,-0.4883,-0.1221,93.587,-3.4937,35.6177,0.6873,-0.2427,0.1881,0.6583
1777530224.1189172,L_Tibia,-0.2201,-8.7568,-4.1487,-0.2441,-0.2441,0.4883,-115.3729,1.3019,-103.4473,-0.5283,-0.6597,-0.4256,0.3236
1777530224.1189172,L_Foot,-1.024,-0.1148,9.9962,-0.6714,-0.2441,0.3052,-0.6866,5.8612,113.9337,0.0396,0.0329,0.8371,0.5447
1777530224.1189172,R_Femur,0.0,0.0,0.0,0.0,0.0,0.0,0.0,0.0,0.0,0.0,0.0,0.0,1.0
1777530224.1189172,R_Tibia,-0.0957,-9.4794,2.4883,0.3052,-0.1831,0.3662,-75.2783,0.5658,-112.7472,-0.3414,-0.5063,-0.661,0.436
1777530224.1189172,R_Foot,0.8518,1.225,9.8909,0.4272,0.0,-0.1221,7.0752,-4.9384,5.3613,0.0596,-0.0458,0.044,0.9962
1777530224.1189172,Trunk,-7.1825,-0.6412,-6.4552,0.9766,-0.061,-0.5493,-174.375,47.84,64.5117,-0.7615,0.5041,-0.3185,0.2541
1777530224.1189172,L_Femur,0.5981,9.6899,-0.6077,0.3052,-0.4883,-0.1221,93.587,-3.4937,35.6177,0.6873,-0.2427,0.1881,0.6583
1777530224.1189172,L_Tibia,-0.2201,-8.7568,-4.1487,-0.2441,-0.2441,0.4883,-115.3729,1.3019,-103.4473,-0.5283,-0.6597,-0.4256,0.3236
1777530224.1189172,L_Foot,-1.0288,-0.1148,9.9962,-0.7324,-0.2441,0.3662,-0.6866,5.8612,113.9337,0.0396,0.0329,0.8371,0.5447
1777530224.1189172,R_Femur,0.0,0.0,0.0,0.0,0.0,0.0,0.0,0.0,0.0,0.0,0.0,0.0,1.0
1777530224.1189172,R_Tibia,-0.0957,-9.4794,2.4883,0.3052,-0.1831,0.3662,-75.2783,0.5658,-112.7472,-0.3414,-0.5063,-0.661,0.436
1777530224.1189172,R_Foot,0.8518,1.225,9.8909,0.4272,0.0,-0.1221,7.0752,-4.9384,5.3613,0.0596,-0.0458,0.044,0.9962
1777530224.1189172,Trunk,-7.1825,-0.6412,-6.4552,0.9766,-0.061,-0.5493,-174.375,47.84,64.5117,-0.7615,0.5041,-0.3185,0.2541
1777530224.1189172,L_Femur,0.5981,9.6899,-0.6077,0.3052,-0.4883,-0.1221,93.587,-3.4937,35.6177,0.6873,-0.2427,0.1881,0.6583
1777530224.1189172,L_Tibia,-0.2201,-8.7568,-4.1487,-0.2441,-0.2441,0.4883,-115.3729,1.3019,-103.4473,-0.5283,-0.6597,-0.4256,0.3236
1777530224.1189172,L_Foot,-1.0288,-0.1148,9.9962,-0.7324,-0.2441,0.3662,-0.6866,5.8612,113.9337,0.0396,0.0329,0.8371,0.5447
1777530224.1189172,R_Femur,0.0,0.0,0.0,0.0,0.0,0.0,0.0,0.0,0.0,0.0,0.0,0.0,1.0
1777530224.1189172,R_Tibia,-0.0957,-9.4794,2.4883,0.3052,-0.1831,0.3662,-75.2783,0.5658,-112.7472,-0.3414,-0.5063,-0.661,0.436
1777530224.1189172,R_Foot,0.8565,1.2298,9.8861,0.4883,0.0,-0.1221,7.0752,-4.9384,5.3558,0.0596,-0.0458,0.0439,0.9962
1777530224.1189172,Trunk,-7.1825,-0.6412,-6.4552,0.9766,-0.061,-0.5493,-174.375,47.84,64.5117,-0.7615,0.5041,-0.3185,0.2541
1777530224.1189172,L_Femur,0.5934,9.6899,-0.6125,0.2441,-0.4272,-0.1221,93.587,-3.4937,35.6177,0.6873,-0.2427,0.1881,0.6583
1777530224.1189172,L_Tibia,-0.2201,-8.7568,-4.1487,-0.2441,-0.2441,0.4883,-115.3729,1.3019,-103.4473,-0.5283,-0.6597,-0.4256,0.3236
1777530224.1189172,L_Foot,-1.0288,-0.1148,9.9962,-0.7324,-0.2441,0.3662,-0.6866,5.8612,113.9337,0.0396,0.0329,0.8371,0.5447
1777530224.1189172,R_Femur,0.0,0.0,0.0,0.0,0.0,0.0,0.0,0.0,0.0,0.0,0.0,0.0,1.0
1777530224.1189172,R_Tibia,-0.0957,-9.4794,2.4883,0.3052,-0.1831,0.3662,-75.2783,0.5658,-112.7472,-0.3414,-0.5063,-0.661,0.436
1777530224.1189172,R_Foot,0.8565,1.2298,9.8861,0.4883,0.0,-0.1221,7.0752,-4.9384,5.3558,0.0596,-0.0458,0.0439,0.9962
1777530224.1189172,Trunk,-7.1825,-0.6412,-6.4552,0.9766,-0.061,-0.5493,-174.375,47.84,64.5117,-0.7615,0.5041,-0.3185,0.2541
1777530224.1189172,L_Femur,0.5934,9.6899,-0.6125,0.2441,-0.4272,-0.1221,93.587,-3.4937,35.6177,0.6873,-0.2427,0.1881,0.6583
1777530224.1189172,L_Tibia,-0.2201,-8.7521,-4.1439,-0.2441,-0.3052,0.4883,-115.3729,1.3019,-103.4528,-0.5282,-0.6597,-0.4256,0.3236
1777530224.1189172,L_Foot,-1.0288,-0.1148,9.9962,-0.7324,-0.2441,0.3662,-0.6866,5.8612,113.9337,0.0396,0.0329,0.8371,0.5447
1777530224.1189172,R_Femur,0.0,0.0,0.0,0.0,0.0,0.0,0.0,0.0,0.0,0.0,0.0,0.0,1.0
1777530224.1189172,R_Tibia,-0.0957,-9.4794,2.4883,0.3052,-0.1831,0.3662,-75.2783,0.5658,-112.7472,-0.3414,-0.5063,-0.661,0.436
1777530224.1189172,R_Foot,0.8565,1.2298,9.8861,0.4883,0.0,-0.1221,7.0752,-4.9384,5.3558,0.0596,-0.0458,0.0439,0.9962
1777530224.119917,Trunk,-7.1825,-0.6412,-6.4552,0.9766,-0.061,-0.5493,-174.375,47.84,64.5117,-0.7615,0.5041,-0.3185,0.2541
1777530224.119917,L_Femur,0.5934,9.6899,-0.6125,0.2441,-0.4272,-0.1221,93.587,-3.4937,35.6177,0.6873,-0.2427,0.1881,0.6583
1777530224.119917,L_Tibia,-0.2201,-8.7521,-4.1439,-0.2441,-0.3052,0.4883,-115.3729,1.3019,-103.4528,-0.5282,-0.6597,-0.4256,0.3236
1777530224.119917,L_Foot,-1.0192,-0.1148,9.9962,-0.6714,-0.3052,0.3662,-0.6866,5.8612,113.9337,0.0396,0.0329,0.8371,0.5447
1777530224.119917,R_Femur,0.0,0.0,0.0,0.0,0.0,0.0,0.0,0.0,0.0,0.0,0.0,0.0,1.0
1777530224.119917,R_Tibia,-0.0957,-9.4794,2.4883,0.3052,-0.1831,0.3662,-75.2783,0.5658,-112.7472,-0.3414,-0.5063,-0.661,0.436
1777530224.119917,R_Foot,0.8565,1.2298,9.8861,0.4883,0.0,-0.1221,7.0752,-4.9384,5.3558,0.0596,-0.0458,0.0439,0.9962
1777530224.119917,Trunk,-7.1825,-0.6412,-6.4552,0.9766,-0.061,-0.5493,-174.375,47.84,64.5117,-0.7615,0.5041,-0.3185,0.2541
1777530224.119917,L_Femur,0.5934,9.6899,-0.6125,0.2441,-0.4272,-0.1221,93.587,-3.4937,35.6177,0.6873,-0.2427,0.1881,0.6583
1777530224.119917,L_Tibia,-0.2201,-8.7521,-4.1439,-0.2441,-0.3052,0.4883,-115.3729,1.3019,-103.4528,-0.5282,-0.6597,-0.4256,0.3236
1777530224.119917,L_Foot,-1.0192,-0.1148,9.9962,-0.6714,-0.3052,0.3662,-0.6866,5.8612,113.9337,0.0396,0.0329,0.8371,0.5447
1777530224.119917,R_Femur,0.0,0.0,0.0,0.0,0.0,0.0,0.0,0.0,0.0,0.0,0.0,0.0,1.0
1777530224.119917,R_Tibia,-0.0957,-9.4746,2.4835,0.2441,-0.1831,0.3662,-75.2783,0.5658,-112.7472,-0.3414,-0.5063,-0.661,0.436
1777530224.119917,R_Foot,0.8565,1.2298,9.8861,0.4883,0.0,-0.1221,7.0752,-4.9384,5.3558,0.0596,-0.0458,0.0439,0.9962
1777530224.119917,Trunk,-7.1825,-0.6269,-6.4504,1.0376,-0.1831,-0.6104,-174.375,47.84,64.5117,-0.7615,0.5041,-0.3185,0.2541
1777530224.119917,L_Femur,0.5934,9.6899,-0.6125,0.2441,-0.4272,-0.1221,93.587,-3.4937,35.6177,0.6873,-0.2427,0.1881,0.6583
1777530224.119917,L_Tibia,-0.2201,-8.7521,-4.1439,-0.2441,-0.3052,0.4883,-115.3729,1.3019,-103.4528,-0.5282,-0.6597,-0.4256,0.3236
1777530224.119917,L_Foot,-1.0192,-0.1148,9.9962,-0.6714,-0.3052,0.3662,-0.6866,5.8612,113.9337,0.0396,0.0329,0.8371,0.5447
1777530224.119917,R_Femur,0.0,0.0,0.0,0.0,0.0,0.0,0.0,0.0,0.0,0.0,0.0,0.0,1.0
1777530224.119917,R_Tibia,-0.0957,-9.4746,2.4835,0.2441,-0.1831,0.3662,-75.2783,0.5658,-112.7472,-0.3414,-0.5063,-0.661,0.436
1777530224.119917,R_Foot,0.8565,1.2298,9.8861,0.4883,0.0,-0.1221,7.0752,-4.9384,5.3558,0.0596,-0.0458,0.0439,0.9962
1777530224.119917,Trunk,-7.1825,-0.6269,-6.4504,1.0376,-0.1831,-0.6104,-174.375,47.84,64.5117,-0.7615,0.5041,-0.3185,0.2541
1777530224.119917,L_Femur,0.5934,9.6899,-0.6077,0.3052,-0.4272,-0.1221,93.587,-3.4937,35.6177,0.6873,-0.2427,0.1881,0.6583
1777530224.119917,L_Tibia,-0.2201,-8.7521,-4.1439,-0.2441,-0.3052,0.4883,-115.3729,1.3019,-103.4528,-0.5282,-0.6597,-0.4256,0.3236
1777530224.119917,L_Foot,-1.0192,-0.1148,9.9962,-0.6714,-0.3052,0.3662,-0.6866,5.8612,113.9337,0.0396,0.0329,0.8371,0.5447
1777530224.119917,R_Femur,0.0,0.0,0.0,0.0,0.0,0.0,0.0,0.0,0.0,0.0,0.0,0.0,1.0
1777530224.119917,R_Tibia,-0.0957,-9.4746,2.4835,0.2441,-0.1831,0.3662,-75.2783,0.5658,-112.7472,-0.3414,-0.5063,-0.661,0.436
1777530224.119917,R_Foot,0.8565,1.2298,9.8861,0.4883,0.0,-0.1221,7.0752,-4.9384,5.3558,0.0596,-0.0458,0.0439,0.9962
1777530224.119917,Trunk,-7.1825,-0.6269,-6.4504,1.0376,-0.1831,-0.6104,-174.375,47.84,64.5117,-0.7615,0.5041,-0.3185,0.2541
1777530224.119917,L_Femur,0.5934,9.6899,-0.6077,0.3052,-0.4272,-0.1221,93.587,-3.4937,35.6177,0.6873,-0.2427,0.1881,0.6583
1777530224.119917,L_Tibia,-0.2153,-8.7521,-4.1487,-0.2441,-0.2441,0.4883,-115.3729,1.3019,-103.4528,-0.5282,-0.6597,-0.4256,0.3236
1777530224.119917,L_Foot,-1.0192,-0.1148,9.9962,-0.6714,-0.3052,0.3662,-0.6866,5.8612,113.9337,0.0396,0.0329,0.8371,0.5447
1777530224.119917,R_Femur,0.0,0.0,0.0,0.0,0.0,0.0,0.0,0.0,0.0,0.0,0.0,0.0,1.0
1777530224.119917,R_Tibia,-0.0957,-9.4746,2.4835,0.2441,-0.1831,0.3662,-75.2783,0.5658,-112.7472,-0.3414,-0.5063,-0.661,0.436
1777530224.119917,R_Foot,0.8565,1.2298,9.8861,0.4883,0.0,-0.1221,7.0752,-4.9384,5.3558,0.0596,-0.0458,0.0439,0.9962
1777530224.120918,Trunk,-7.1825,-0.6269,-6.4504,1.0376,-0.1831,-0.6104,-174.375,47.84,64.5117,-0.7615,0.5041,-0.3185,0.2541
1777530224.120918,L_Femur,0.5934,9.6899,-0.6077,0.3052,-0.4272,-0.1221,93.587,-3.4937,35.6177,0.6873,-0.2427,0.1881,0.6583
1777530224.120918,L_Tibia,-0.2153,-8.7521,-4.1487,-0.2441,-0.2441,0.4883,-115.3729,1.3019,-103.4528,-0.5282,-0.6597,-0.4256,0.3236
1777530224.120918,L_Foot,-1.024,-0.1148,10.001,-0.7324,-0.3052,0.3052,-0.6866,5.8612,113.9337,0.0396,0.0329,0.8371,0.5447
1777530224.120918,R_Femur,0.0,0.0,0.0,0.0,0.0,0.0,0.0,0.0,0.0,0.0,0.0,0.0,1.0
1777530224.120918,R_Tibia,-0.0957,-9.4746,2.4835,0.2441,-0.1831,0.3662,-75.2783,0.5658,-112.7472,-0.3414,-0.5063,-0.661,0.436
1777530224.120918,R_Foot,0.8565,1.2298,9.8861,0.4883,0.0,-0.1221,7.0752,-4.9384,5.3558,0.0596,-0.0458,0.0439,0.9962
1777530224.120918,Trunk,-7.1825,-0.6269,-6.4504,1.0376,-0.1831,-0.6104,-174.375,47.84,64.5117,-0.7615,0.5041,-0.3185,0.2541
1777530224.120918,L_Femur,0.5934,9.6899,-0.6077,0.3052,-0.4272,-0.1221,93.587,-3.4937,35.6177,0.6873,-0.2427,0.1881,0.6583
1777530224.120918,L_Tibia,-0.2153,-8.7521,-4.1487,-0.2441,-0.2441,0.4883,-115.3729,1.3019,-103.4528,-0.5282,-0.6597,-0.4256,0.3236
1777530224.120918,L_Foot,-1.024,-0.1148,10.001,-0.7324,-0.3052,0.3052,-0.6866,5.8612,113.9337,0.0396,0.0329,0.8371,0.5447
1777530224.120918,R_Femur,0.0,0.0,0.0,0.0,0.0,0.0,0.0,0.0,0.0,0.0,0.0,0.0,1.0
1777530224.120918,R_Tibia,-0.0957,-9.4746,2.4835,0.2441,-0.1831,0.3662,-75.2783,0.5658,-112.7472,-0.3414,-0.5063,-0.661,0.436
1777530224.120918,R_Foot,0.8565,1.2298,9.8861,0.4883,0.0,-0.1221,7.0752,-4.9384,5.3558,0.0596,-0.0458,0.0439,0.9962
1777530224.120918,Trunk,-7.1825,-0.6316,-6.4504,1.0376,-0.1221,-0.6104,-174.375,47.84,64.5172,-0.7615,0.5041,-0.3185,0.2541
1777530224.120918,L_Femur,0.5934,9.6899,-0.6077,0.3052,-0.4272,-0.1221,93.587,-3.4937,35.6177,0.6873,-0.2427,0.1881,0.6583
1777530224.120918,L_Tibia,-0.2153,-8.7521,-4.1487,-0.2441,-0.2441,0.4883,-115.3729,1.3019,-103.4528,-0.5282,-0.6597,-0.4256,0.3236
1777530224.120918,L_Foot,-1.024,-0.1148,10.001,-0.7324,-0.3052,0.3052,-0.6866,5.8612,113.9337,0.0396,0.0329,0.8371,0.5447
1777530224.120918,R_Femur,0.0,0.0,0.0,0.0,0.0,0.0,0.0,0.0,0.0,0.0,0.0,0.0,1.0
1777530224.120918,R_Tibia,-0.0957,-9.4746,2.4835,0.2441,-0.1831,0.3662,-75.2783,0.5658,-112.7472,-0.3414,-0.5063,-0.661,0.436
1777530224.120918,R_Foot,0.8565,1.2298,9.8861,0.4883,0.0,-0.1221,7.0752,-4.9384,5.3558,0.0596,-0.0458,0.0439,0.9962
1777530224.120918,Trunk,-7.1825,-0.6316,-6.4504,1.0376,-0.1221,-0.6104,-174.375,47.84,64.5172,-0.7615,0.5041,-0.3185,0.2541
1777530224.120918,L_Femur,0.5934,9.6852,-0.6125,0.2441,-0.4272,-0.061,93.587,-3.4937,35.6177,0.6873,-0.2427,0.1881,0.6583
1777530224.120918,L_Tibia,-0.2153,-8.7521,-4.1487,-0.2441,-0.2441,0.4883,-115.3729,1.3019,-103.4528,-0.5282,-0.6597,-0.4256,0.3236
1777530224.120918,L_Foot,-1.024,-0.1148,10.001,-0.7324,-0.3052,0.3052,-0.6866,5.8612,113.9337,0.0396,0.0329,0.8371,0.5447
1777530224.120918,R_Femur,0.0,0.0,0.0,0.0,0.0,0.0,0.0,0.0,0.0,0.0,0.0,0.0,1.0
1777530224.120918,R_Tibia,-0.0957,-9.4746,2.4835,0.2441,-0.1831,0.3662,-75.2783,0.5658,-112.7472,-0.3414,-0.5063,-0.661,0.436
1777530224.120918,R_Foot,0.8565,1.2298,9.8861,0.4883,0.0,-0.1221,7.0752,-4.9384,5.3558,0.0596,-0.0458,0.0439,0.9962
1777530224.120918,Trunk,-7.1825,-0.6316,-6.4504,1.0376,-0.1221,-0.6104,-174.375,47.84,64.5172,-0.7615,0.5041,-0.3185,0.2541
1777530224.120918,L_Femur,0.5934,9.6852,-0.6125,0.2441,-0.4272,-0.061,93.587,-3.4937,35.6177,0.6873,-0.2427,0.1881,0.6583
1777530224.120918,L_Tibia,-0.2153,-8.7521,-4.1487,-0.2441,-0.3052,0.4272,-115.3729,1.3019,-103.4583,-0.5282,-0.6597,-0.4256,0.3235
1777530224.120918,L_Foot,-1.024,-0.1148,10.001,-0.7324,-0.3052,0.3052,-0.6866,5.8612,113.9337,0.0396,0.0329,0.8371,0.5447
1777530224.120918,R_Femur,0.0,0.0,0.0,0.0,0.0,0.0,0.0,0.0,0.0,0.0,0.0,0.0,1.0
1777530224.120918,R_Tibia,-0.0957,-9.4746,2.4835,0.2441,-0.1831,0.3662,-75.2783,0.5658,-112.7472,-0.3414,-0.5063,-0.661,0.436
1777530224.120918,R_Foot,0.8565,1.2298,9.8861,0.4883,0.0,-0.1221,7.0752,-4.9384,5.3558,0.0596,-0.0458,0.0439,0.9962
1777530224.1219175,Trunk,-7.1825,-0.6316,-6.4504,1.0376,-0.1221,-0.6104,-174.375,47.84,64.5172,-0.7615,0.5041,-0.3185,0.2541
1777530224.1219175,L_Femur,0.5934,9.6852,-0.6125,0.2441,-0.4272,-0.061,93.587,-3.4937,35.6177,0.6873,-0.2427,0.1881,0.6583
1777530224.1219175,L_Tibia,-0.2153,-8.7521,-4.1487,-0.2441,-0.3052,0.4272,-115.3729,1.3019,-103.4583,-0.5282,-0.6597,-0.4256,0.3235
1777530224.1219175,L_Foot,-1.024,-0.1196,10.001,-0.6714,-0.2441,0.3052,-0.6866,5.8612,113.9337,0.0396,0.0329,0.8371,0.5447
1777530224.1219175,R_Femur,0.0,0.0,0.0,0.0,0.0,0.0,0.0,0.0,0.0,0.0,0.0,0.0,1.0
1777530224.1219175,R_Tibia,-0.0957,-9.4746,2.4835,0.2441,-0.1831,0.3662,-75.2783,0.5658,-112.7472,-0.3414,-0.5063,-0.661,0.436
1777530224.1219175,R_Foot,0.8565,1.2298,9.8861,0.4883,0.0,-0.1221,7.0752,-4.9384,5.3558,0.0596,-0.0458,0.0439,0.9962
1777530224.1219175,Trunk,-7.1825,-0.6316,-6.4504,1.0376,-0.1221,-0.6104,-174.375,47.84,64.5172,-0.7615,0.5041,-0.3185,0.2541
1777530224.1219175,L_Femur,0.5934,9.6852,-0.6125,0.2441,-0.4272,-0.061,93.587,-3.4937,35.6177,0.6873,-0.2427,0.1881,0.6583
1777530224.1219175,L_Tibia,-0.2153,-8.7521,-4.1487,-0.2441,-0.3052,0.4272,-115.3729,1.3019,-103.4583,-0.5282,-0.6597,-0.4256,0.3235
1777530224.1219175,L_Foot,-1.024,-0.1196,10.001,-0.6714,-0.2441,0.3052,-0.6866,5.8612,113.9337,0.0396,0.0329,0.8371,0.5447
1777530224.1219175,R_Femur,0.0,0.0,0.0,0.0,0.0,0.0,0.0,0.0,0.0,0.0,0.0,0.0,1.0
1777530224.1219175,R_Tibia,-0.1005,-9.4794,2.4883,0.3052,-0.2441,0.3662,-75.2783,0.5658,-112.7472,-0.3414,-0.5063,-0.661,0.436
1777530224.1219175,R_Foot,0.8565,1.2298,9.8861,0.4883,0.0,-0.1221,7.0752,-4.9384,5.3558,0.0596,-0.0458,0.0439,0.9962
1777530224.1219175,Trunk,-7.1777,-0.6316,-6.4552,1.0376,-0.1221,-0.6104,-174.375,47.84,64.5172,-0.7615,0.5041,-0.3185,0.2541
1777530224.1219175,L_Femur,0.5934,9.6852,-0.6125,0.2441,-0.4272,-0.061,93.587,-3.4937,35.6177,0.6873,-0.2427,0.1881,0.6583
1777530224.1219175,L_Tibia,-0.2153,-8.7521,-4.1487,-0.2441,-0.3052,0.4272,-115.3729,1.3019,-103.4583,-0.5282,-0.6597,-0.4256,0.3235
1777530224.1219175,L_Foot,-1.024,-0.1196,10.001,-0.6714,-0.2441,0.3052,-0.6866,5.8612,113.9337,0.0396,0.0329,0.8371,0.5447
1777530224.1219175,R_Femur,0.0,0.0,0.0,0.0,0.0,0.0,0.0,0.0,0.0,0.0,0.0,0.0,1.0
1777530224.1219175,R_Tibia,-0.1005,-9.4794,2.4883,0.3052,-0.2441,0.3662,-75.2783,0.5658,-112.7472,-0.3414,-0.5063,-0.661,0.436
1777530224.1219175,R_Foot,0.8565,1.2298,9.8861,0.4883,0.0,-0.1221,7.0752,-4.9384,5.3558,0.0596,-0.0458,0.0439,0.9962
1777530224.1219175,Trunk,-7.1777,-0.6316,-6.4552,1.0376,-0.1221,-0.6104,-174.375,47.84,64.5172,-0.7615,0.5041,-0.3185,0.2541
1777530224.1219175,L_Femur,0.5934,9.6852,-0.6077,0.3052,-0.4272,-0.1831,93.587,-3.4937,35.6177,0.6873,-0.2427,0.1881,0.6583
1777530224.1219175,L_Tibia,-0.2153,-8.7521,-4.1487,-0.2441,-0.3052,0.4272,-115.3729,1.3019,-103.4583,-0.5282,-0.6597,-0.4256,0.3235
1777530224.1219175,L_Foot,-1.024,-0.1196,10.001,-0.6714,-0.2441,0.3052,-0.6866,5.8612,113.9337,0.0396,0.0329,0.8371,0.5447
1777530224.1219175,R_Femur,0.0,0.0,0.0,0.0,0.0,0.0,0.0,0.0,0.0,0.0,0.0,0.0,1.0
1777530224.1219175,R_Tibia,-0.1005,-9.4794,2.4883,0.3052,-0.2441,0.3662,-75.2783,0.5658,-112.7472,-0.3414,-0.5063,-0.661,0.436
1777530224.1219175,R_Foot,0.8565,1.2298,9.8861,0.4883,0.0,-0.1221,7.0752,-4.9384,5.3558,0.0596,-0.0458,0.0439,0.9962
1777530224.1219175,Trunk,-7.1777,-0.6316,-6.4552,1.0376,-0.1221,-0.6104,-174.375,47.84,64.5172,-0.7615,0.5041,-0.3185,0.2541
1777530224.1219175,L_Femur,0.5934,9.6852,-0.6077,0.3052,-0.4272,-0.1831,93.587,-3.4937,35.6177,0.6873,-0.2427,0.1881,0.6583
1777530224.1219175,L_Tibia,-0.2153,-8.7521,-4.1487,-0.2441,-0.3052,0.4272,-115.3729,1.3019,-103.4583,-0.5282,-0.6597,-0.4256,0.3235
1777530224.1219175,L_Foot,-1.024,-0.1148,10.0058,-0.6714,-0.2441,0.3052,-0.6866,5.8612,113.9282,0.0396,0.0329,0.8371,0.5447
1777530224.1219175,R_Femur,0.0,0.0,0.0,0.0,0.0,0.0,0.0,0.0,0.0,0.0,0.0,0.0,1.0
1777530224.1219175,R_Tibia,-0.1005,-9.4794,2.4883,0.3052,-0.2441,0.3662,-75.2783,0.5658,-112.7472,-0.3414,-0.5063,-0.661,0.436
1777530224.1219175,R_Foot,0.8565,1.2298,9.8861,0.4883,0.0,-0.1221,7.0752,-4.9384,5.3558,0.0596,-0.0458,0.0439,0.9962
1777530224.1219175,Trunk,-7.1777,-0.6316,-6.4552,1.0376,-0.1221,-0.6104,-174.375,47.84,64.5172,-0.7615,0.5041,-0.3185,0.2541
1777530224.1219175,L_Femur,0.5934,9.6852,-0.6077,0.3052,-0.4272,-0.1831,93.587,-3.4937,35.6177,0.6873,-0.2427,0.1881,0.6583
1777530224.1219175,L_Tibia,-0.2153,-8.7521,-4.1487,-0.2441,-0.3052,0.4272,-115.3729,1.3019,-103.4583,-0.5282,-0.6597,-0.4256,0.3235
1777530224.1219175,L_Foot,-1.024,-0.1148,10.0058,-0.6714,-0.2441,0.3052,-0.6866,5.8612,113.9282,0.0396,0.0329,0.8371,0.5447
1777530224.1219175,R_Femur,0.0,0.0,0.0,0.0,0.0,0.0,0.0,0.0,0.0,0.0,0.0,0.0,1.0
1777530224.1219175,R_Tibia,-0.1005,-9.4794,2.4883,0.3052,-0.2441,0.3662,-75.2783,0.5658,-112.7472,-0.3414,-0.5063,-0.661,0.436
1777530224.1219175,R_Foot,0.8613,1.225,9.8909,0.3662,0.061,0.0,7.0752,-4.9384,5.3503,0.0596,-0.0458,0.0439,0.9962
1777530224.1229184,Trunk,-7.1777,-0.6412,-6.46,0.9155,-0.1221,-0.5493,-174.375,47.84,64.5227,-0.7614,0.5042,-0.3185,0.2541
1777530224.1229184,L_Femur,0.5934,9.6852,-0.6077,0.3052,-0.4272,-0.1831,93.587,-3.4937,35.6177,0.6873,-0.2427,0.1881,0.6583
1777530224.1229184,L_Tibia,-0.2153,-8.7521,-4.1487,-0.2441,-0.3052,0.4272,-115.3729,1.3019,-103.4583,-0.5282,-0.6597,-0.4256,0.3235
1777530224.1229184,L_Foot,-1.024,-0.1148,10.0058,-0.6714,-0.2441,0.3052,-0.6866,5.8612,113.9282,0.0396,0.0329,0.8371,0.5447
1777530224.1229184,R_Femur,0.0,0.0,0.0,0.0,0.0,0.0,0.0,0.0,0.0,0.0,0.0,0.0,1.0
1777530224.1229184,R_Tibia,-0.1005,-9.4794,2.4883,0.3052,-0.2441,0.3662,-75.2783,0.5658,-112.7472,-0.3414,-0.5063,-0.661,0.436
1777530224.1229184,R_Foot,0.8613,1.225,9.8909,0.3662,0.061,0.0,7.0752,-4.9384,5.3503,0.0596,-0.0458,0.0439,0.9962
1777530224.1229184,Trunk,-7.1777,-0.6412,-6.46,0.9155,-0.1221,-0.5493,-174.375,47.84,64.5227,-0.7614,0.5042,-0.3185,0.2541
1777530224.1229184,L_Femur,0.5934,9.6852,-0.6077,0.1831,-0.4272,-0.061,93.587,-3.4937,35.6177,0.6873,-0.2427,0.1881,0.6583
1777530224.1229184,L_Tibia,-0.2153,-8.7521,-4.1487,-0.2441,-0.3052,0.4272,-115.3729,1.3019,-103.4583,-0.5282,-0.6597,-0.4256,0.3235
1777530224.1229184,L_Foot,-1.024,-0.1148,10.0058,-0.6714,-0.2441,0.3052,-0.6866,5.8612,113.9282,0.0396,0.0329,0.8371,0.5447
1777530224.1229184,R_Femur,0.0,0.0,0.0,0.0,0.0,0.0,0.0,0.0,0.0,0.0,0.0,0.0,1.0
1777530224.1229184,R_Tibia,-0.1005,-9.4794,2.4883,0.3052,-0.2441,0.3662,-75.2783,0.5658,-112.7472,-0.3414,-0.5063,-0.661,0.436
1777530224.1229184,R_Foot,0.8613,1.225,9.8909,0.3662,0.061,0.0,7.0752,-4.9384,5.3503,0.0596,-0.0458,0.0439,0.9962
1777530224.1229184,Trunk,-7.1777,-0.6412,-6.46,0.9155,-0.1221,-0.5493,-174.375,47.84,64.5227,-0.7614,0.5042,-0.3185,0.2541
1777530224.1229184,L_Femur,0.5934,9.6852,-0.6077,0.1831,-0.4272,-0.061,93.587,-3.4937,35.6177,0.6873,-0.2427,0.1881,0.6583
1777530224.1229184,L_Tibia,-0.2249,-8.7521,-4.1487,-0.2441,-0.3052,0.4883,-115.3729,1.3019,-103.4637,-0.5282,-0.6597,-0.4256,0.3235
1777530224.1229184,L_Foot,-1.024,-0.1148,10.0058,-0.6714,-0.2441,0.3052,-0.6866,5.8612,113.9282,0.0396,0.0329,0.8371,0.5447
1777530224.1229184,R_Femur,0.0,0.0,0.0,0.0,0.0,0.0,0.0,0.0,0.0,0.0,0.0,0.0,1.0
1777530224.1229184,R_Tibia,-0.1005,-9.4794,2.4883,0.3052,-0.2441,0.3662,-75.2783,0.5658,-112.7472,-0.3414,-0.5063,-0.661,0.436
1777530224.1229184,R_Foot,0.8613,1.225,9.8909,0.3662,0.061,0.0,7.0752,-4.9384,5.3503,0.0596,-0.0458,0.0439,0.9962
1777530224.1229184,Trunk,-7.1777,-0.6412,-6.46,0.9155,-0.1221,-0.5493,-174.375,47.84,64.5227,-0.7614,0.5042,-0.3185,0.2541
1777530224.1229184,L_Femur,0.5934,9.6852,-0.6077,0.1831,-0.4272,-0.061,93.587,-3.4937,35.6177,0.6873,-0.2427,0.1881,0.6583
1777530224.1229184,L_Tibia,-0.2249,-8.7521,-4.1487,-0.2441,-0.3052,0.4883,-115.3729,1.3019,-103.4637,-0.5282,-0.6597,-0.4256,0.3235
1777530224.1229184,L_Foot,-1.0192,-0.1101,9.9962,-0.6714,-0.2441,0.3052,-0.6866,5.8612,113.9282,0.0396,0.0329,0.8371,0.5447
1777530224.1229184,R_Femur,0.0,0.0,0.0,0.0,0.0,0.0,0.0,0.0,0.0,0.0,0.0,0.0,1.0
1777530224.1229184,R_Tibia,-0.1005,-9.4794,2.4883,0.3052,-0.2441,0.3662,-75.2783,0.5658,-112.7472,-0.3414,-0.5063,-0.661,0.436
1777530224.1229184,R_Foot,0.8613,1.225,9.8909,0.3662,0.061,0.0,7.0752,-4.9384,5.3503,0.0596,-0.0458,0.0439,0.9962
1777530224.1229184,Trunk,-7.1777,-0.6412,-6.46,0.9155,-0.1221,-0.5493,-174.375,47.84,64.5227,-0.7614,0.5042,-0.3185,0.2541
1777530224.1229184,L_Femur,0.5934,9.6852,-0.6077,0.1831,-0.4272,-0.061,93.587,-3.4937,35.6177,0.6873,-0.2427,0.1881,0.6583
1777530224.1229184,L_Tibia,-0.2249,-8.7521,-4.1487,-0.2441,-0.3052,0.4883,-115.3729,1.3019,-103.4637,-0.5282,-0.6597,-0.4256,0.3235
1777530224.1229184,L_Foot,-1.0192,-0.1101,9.9962,-0.6714,-0.2441,0.3052,-0.6866,5.8612,113.9282,0.0396,0.0329,0.8371,0.5447
1777530224.1229184,R_Femur,0.0,0.0,0.0,0.0,0.0,0.0,0.0,0.0,0.0,0.0,0.0,0.0,1.0
1777530224.1229184,R_Tibia,-0.0957,-9.4746,2.4883,0.3662,-0.1831,0.3662,-75.2783,0.5658,-112.7472,-0.3414,-0.5063,-0.661,0.436
1777530224.1229184,R_Foot,0.8613,1.225,9.8909,0.3662,0.061,0.0,7.0752,-4.9384,5.3503,0.0596,-0.0458,0.0439,0.9962
1777530224.1239166,Trunk,-7.1729,-0.6412,-6.4552,0.9766,-0.061,-0.5493,-174.375,47.84,64.5282,-0.7614,0.5042,-0.3185,0.2541
1777530224.1239166,L_Femur,0.5934,9.6852,-0.6077,0.1831,-0.4272,-0.061,93.587,-3.4937,35.6177,0.6873,-0.2427,0.1881,0.6583
