Timestamp,Vicon_Frame_Num,IsDuplicate,Vicon_Root_X,Vicon_Root_Y,Vicon_Root_Z,Vicon_L_Femur_X,Vicon_L_Femur_Y,Vicon_L_Femur_Z,Vicon_L_Tibia_X,Vicon_L_Tibia_Y,Vicon_L_Tibia_Z,Vicon_L_Foot_X,Vicon_L_Foot_Y,Vicon_L_Foot_Z,Vicon_L_Toe_X,Vicon_L_Toe_Y,Vicon_L_Toe_Z,Vicon_R_Femur_X,Vicon_R_Femur_Y,Vicon_R_Femur_Z,Vicon_R_Tibia_X,Vicon_R_Tibia_Y,Vicon_R_Tibia_Z,Vicon_R_Foot_X,Vicon_R_Foot_Y,Vicon_R_Foot_Z,Vicon_R_Toe_X,Vicon_R_Toe_Y,Vicon_R_Toe_Z,Vicon_LASI_X,Vicon_LASI_Y,Vicon_LASI_Z,Vicon_RASI_X,Vicon_RASI_Y,Vicon_RASI_Z,Vicon_LPSI_X,Vicon_LPSI_Y,Vicon_LPSI_Z,Vicon_RPSI_X,Vicon_RPSI_Y,Vicon_RPSI_Z,Vicon_LTHI_X,Vicon_LTHI_Y,Vicon_LTHI_Z,Vicon_LKNE_X,Vicon_LKNE_Y,Vicon_LKNE_Z,Vicon_LTIB_X,Vicon_LTIB_Y,Vicon_LTIB_Z,Vicon_LANK_X,Vicon_LANK_Y,Vicon_LANK_Z,Vicon_LHEE_X,Vicon_LHEE_Y,Vicon_LHEE_Z,Vicon_LTOE_X,Vicon_LTOE_Y,Vicon_LTOE_Z,Vicon_RTHI_X,Vicon_RTHI_Y,Vicon_RTHI_Z,Vicon_RKNE_X,Vicon_RKNE_Y,Vicon_RKNE_Z,Vicon_RTIB_X,Vicon_RTIB_Y,Vicon_RTIB_Z,Vicon_RANK_X,Vicon_RANK_Y,Vicon_RANK_Z,Vicon_RHEE_X,Vicon_RHEE_Y,Vicon_RHEE_Z,Vicon_RTOE_X,Vicon_RTOE_Y,Vicon_RTOE_Z,IMU_Trunk_Acc_X,IMU_Trunk_Acc_Y,IMU_Trunk_Acc_Z,IMU_Trunk_Gyro_X,IMU_Trunk_Gyro_Y,IMU_Trunk_Gyro_Z,IMU_Trunk_Roll,IMU_Trunk_Pitch,IMU_Trunk_Yaw,IMU_Trunk_Quat_x,IMU_Trunk_Quat_y,IMU_Trunk_Quat_z,IMU_Trunk_Quat_w,IMU_L_Femur_Acc_X,IMU_L_Femur_Acc_Y,IMU_L_Femur_Acc_Z,IMU_L_Femur_Gyro_X,IMU_L_Femur_Gyro_Y,IMU_L_Femur_Gyro_Z,IMU_L_Femur_Roll,IMU_L_Femur_Pitch,IMU_L_Femur_Yaw,IMU_L_Femur_Quat_x,IMU_L_Femur_Quat_y,IMU_L_Femur_Quat_z,IMU_L_Femur_Quat_w,IMU_L_Tibia_Acc_X,IMU_L_Tibia_Acc_Y,IMU_L_Tibia_Acc_Z,IMU_L_Tibia_Gyro_X,IMU_L_Tibia_Gyro_Y,IMU_L_Tibia_Gyro_Z,IMU_L_Tibia_Roll,IMU_L_Tibia_Pitch,IMU_L_Tibia_Yaw,IMU_L_Tibia_Quat_x,IMU_L_Tibia_Quat_y,IMU_L_Tibia_Quat_z,IMU_L_Tibia_Quat_w,IMU_L_Foot_Acc_X,IMU_L_Foot_Acc_Y,IMU_L_Foot_Acc_Z,IMU_L_Foot_Gyro_X,IMU_L_Foot_Gyro_Y,IMU_L_Foot_Gyro_Z,IMU_L_Foot_Roll,IMU_L_Foot_Pitch,IMU_L_Foot_Yaw,IMU_L_Foot_Quat_x,IMU_L_Foot_Quat_y,IMU_L_Foot_Quat_z,IMU_L_Foot_Quat_w,IMU_R_Femur_Acc_X,IMU_R_Femur_Acc_Y,IMU_R_Femur_Acc_Z,IMU_R_Femur_Gyro_X,IMU_R_Femur_Gyro_Y,IMU_R_Femur_Gyro_Z,IMU_R_Femur_Roll,IMU_R_Femur_Pitch,IMU_R_Femur_Yaw,IMU_R_Femur_Quat_x,IMU_R_Femur_Quat_y,IMU_R_Femur_Quat_z,IMU_R_Femur_Quat_w,IMU_R_Tibia_Acc_X,IMU_R_Tibia_Acc_Y,IMU_R_Tibia_Acc_Z,IMU_R_Tibia_Gyro_X,IMU_R_Tibia_Gyro_Y,IMU_R_Tibia_Gyro_Z,IMU_R_Tibia_Roll,IMU_R_Tibia_Pitch,IMU_R_Tibia_Yaw,IMU_R_Tibia_Quat_x,IMU_R_Tibia_Quat_y,IMU_R_Tibia_Quat_z,IMU_R_Tibia_Quat_w,IMU_R_Foot_Acc_X,IMU_R_Foot_Acc_Y,IMU_R_Foot_Acc_Z,IMU_R_Foot_Gyro_X,IMU_R_Foot_Gyro_Y,IMU_R_Foot_Gyro_Z,IMU_R_Foot_Roll,IMU_R_Foot_Pitch,IMU_R_Foot_Yaw,IMU_R_Foot_Quat_x,IMU_R_Foot_Quat_y,IMU_R_Foot_Quat_z,IMU_R_Foot_Quat_w,Planter_Left_0,Planter_Left_1,Planter_Left_2,Planter_Left_3,Planter_Left_4,Planter_Left_5,Planter_Left_6,Planter_Left_7,Planter_Left_8,Planter_Left_9,Planter_Left_10,Planter_Left_11,Planter_Left_12,Planter_Left_13,Planter_Left_14,Planter_Left_15,Planter_Left_16,Planter_Left_17,Planter_Right_0,Planter_Right_1,Planter_Right_2,Planter_Right_3,Planter_Right_4,Planter_Right_5,Planter_Right_6,Planter_Right_7,Planter_Right_8,Planter_Right_9,Planter_Right_10,Planter_Right_11,Planter_Right_12,Planter_Right_13,Planter_Right_14,Planter_Right_15,Planter_Right_16,Planter_Right_17
1777280554.8063653,7282,0,0.0,0.0,0.0,0.0,0.0,0.0,0.0,0.0,0.0,0.0,0.0,0.0,0.0,0.0,0.0,0.0,0.0,0.0,0.0,0.0,0.0,0.0,0.0,0.0,0.0,0.0,0.0,739.1395874023438,559.5574340820312,1113.3017578125,985.3026123046875,610.8151245117188,1118.5899658203125,800.2930297851562,383.3549499511719,1133.1064453125,961.24951171875,395.8069763183594,1139.778076171875,678.7688598632812,504.59283447265625,848.3199462890625,699.5167236328125,560.321533203125,599.4365844726562,692.3168334960938,428.0630187988281,502.4887390136719,719.4173583984375,296.263916015625,354.09814453125,802.4996337890625,189.2504425048828,371.0787658691406,720.3262329101562,358.18780517578125,177.71420288085938,1048.04248046875,584.4002075195312,803.8992919921875,996.1807861328125,567.010009765625,567.5435791015625,1003.3482055664062,565.3281860351562,429.6497802734375,950.2360229492188,559.810791015625,219.135498046875,883.885498046875,482.30670166015625,163.33270263671875,917.8347778320312,746.0336303710938,180.14132690429688,1.1054,-1.5169,9.7474,0.9766,-0.1221,-0.6104,-8.844,-6.3885,134.7253,-0.0809,0.0497,0.9204,0.3792,5.4503,-8.1108,0.0574,0.3052,-0.4272,-0.1221,-89.6265,-33.8599,-9.2944,-0.6553,-0.2605,0.1496,0.6931,7.3356,-4.5363,4.7612,-0.2441,-0.2441,0.4883,-43.5718,-48.0981,148.3649,-0.4565,0.2229,0.8571,0.0856,0.3685,0.579,-9.4555,-0.5493,-0.3662,0.3052,176.4624,-2.2192,50.3064,0.9043,-0.4253,-0.0044,0.0362,-1.7322,5.3689,8.1061,0.5493,-0.5493,-0.6104,33.5358,10.0854,143.1628,0.1706,-0.2461,0.9129,0.2773,5.3115,-4.9096,6.7327,0.1831,-0.2441,0.4272,-36.1121,-32.4976,-3.1531,-0.2901,-0.2741,0.0616,0.9148,-9.7761,0.0431,-0.2058,0.4883,0.0,-0.061,169.8816,88.7585,105.9521,0.4779,-0.5313,0.4698,-0.5183,0,0,0,0,0,0,0,0,0,0,0,0,0,0,0,0,0,0,26624,0,0,0,0,0,0,0,0,0,0,0,0,0,0,0,0,0
1777280554.8247955,7284,0,0.0,0.0,0.0,0.0,0.0,0.0,0.0,0.0,0.0,0.0,0.0,0.0,0.0,0.0,0.0,0.0,0.0,0.0,0.0,0.0,0.0,0.0,0.0,0.0,0.0,0.0,0.0,741.6432495117188,557.3869018554688,1115.142333984375,987.536376953125,609.7401733398438,1120.1634521484375,803.4956665039062,381.32427978515625,1134.8131103515625,964.3507080078125,394.5892639160156,1141.6968994140625,678.6325073242188,511.2940368652344,853.4075317382812,697.088623046875,575.47705078125,606.4180908203125,691.8308715820312,443.55535888671875,510.8832702636719,720.96826171875,311.7396240234375,363.11590576171875,806.8887329101562,208.1175994873047,380.9096374511719,716.7374267578125,371.9944763183594,184.5750732421875,1050.957275390625,579.0529174804688,803.74267578125,998.245849609375,556.3984985351562,567.4493408203125,1004.7741088867188,552.94482421875,429.37286376953125,950.5315551757812,545.0623168945312,219.2119140625,884.2446899414062,467.2793884277344,163.48101806640625,918.1923217773438,731.078857421875,180.0710906982422,1.1054,-1.5121,9.7426,0.9766,-0.1221,-0.6104,-8.844,-6.3885,134.7253,-0.0809,0.0497,0.9204,0.3792,5.4455,-8.1156,0.0622,0.3052,-0.4272,-0.1221,-89.6265,-33.8599,-9.2944,-0.6553,-0.2605,0.1496,0.6931,7.3356,-4.5268,4.7708,-0.2441,-0.1831,0.4883,-43.5718,-48.0981,148.3649,-0.4565,0.2229,0.8571,0.0856,0.3685,0.579,-9.4555,-0.6104,-0.3052,0.2441,176.4624,-2.2192,50.3284,0.9042,-0.4255,-0.0044,0.0362,-1.7274,5.3785,8.1013,0.5493,-0.5493,-0.6104,33.5358,10.0854,143.1628,0.1706,-0.2461,0.9129,0.2773,5.3115,-4.9048,6.7279,0.1831,-0.1831,0.4272,-36.1121,-32.4976,-3.1531,-0.2901,-0.2741,0.0616,0.9148,-9.7761,0.0335,-0.2105,0.4883,0.0,0.0,169.8761,88.7585,105.9467,0.478,-0.5312,0.4699,-0.5182,0,0,0,0,0,0,0,0,0,0,0,0,0,0,0,0,0,0,26624,0,0,0,0,0,0,0,0,0,0,0,0,0,0,0,0,0
1777280554.8503783,7285,0,0.0,0.0,0.0,0.0,0.0,0.0,0.0,0.0,0.0,0.0,0.0,0.0,0.0,0.0,0.0,0.0,0.0,0.0,0.0,0.0,0.0,0.0,0.0,0.0,0.0,0.0,0.0,742.8370361328125,556.21923828125,1116.13037109375,988.628173828125,608.9876708984375,1120.90771484375,804.9785766601562,380.1929016113281,1135.7733154296875,965.7979736328125,393.7940979003906,1142.66552734375,678.6138305664062,514.0518188476562,856.166015625,696.1130981445312,582.3507080078125,610.162841796875,691.899658203125,450.9422607421875,514.4755859375,721.978759765625,319.9795837402344,366.1821594238281,809.5653686523438,216.98092651367188,381.5118103027344,714.5972290039062,381.7845458984375,188.50767517089844,1052.206298828125,576.2063598632812,803.6627197265625,999.174560546875,551.0404663085938,567.4722900390625,1005.4584350585938,546.736572265625,429.3396301269531,950.719482421875,537.653076171875,219.3194580078125,884.4229736328125,459.7147521972656,163.591552734375,918.3757934570312,723.537841796875,180.0883331298828,1.1054,-1.5121,9.7426,0.9766,-0.1221,-0.6104,-8.844,-6.3885,134.7253,-0.0809,0.0497,0.9204,0.3792,5.4455,-8.1156,0.0622,0.3052,-0.4272,-0.1221,-89.6265,-33.8599,-9.2944,-0.6553,-0.2605,0.1496,0.6931,7.3356,-4.5268,4.7708,-0.2441,-0.1831,0.4883,-43.5718,-48.0981,148.3649,-0.4565,0.2229,0.8571,0.0856,0.3685,0.579,-9.4555,-0.6104,-0.3052,0.2441,176.4624,-2.2192,50.3284,0.9042,-0.4255,-0.0044,0.0362,-1.7274,5.3785,8.1013,0.5493,-0.5493,-0.6104,33.5358,10.0854,143.1628,0.1706,-0.2461,0.9129,0.2773,5.3115,-4.9048,6.7279,0.1831,-0.1831,0.4272,-36.1121,-32.4976,-3.1531,-0.2901,-0.2741,0.0616,0.9148,-9.7761,0.0335,-0.2105,0.4883,0.0,0.0,169.8761,88.7585,105.9467,0.478,-0.5312,0.4699,-0.5182,0,0,0,0,0,0,0,0,0,0,0,0,0,0,0,0,0,0,23808,0,0,0,0,0,0,0,0,0,0,0,0,0,0,0,0,0
1777280554.8656445,7286,0,0.0,0.0,0.0,0.0,0.0,0.0,0.0,0.0,0.0,0.0,0.0,0.0,0.0,0.0,0.0,0.0,0.0,0.0,0.0,0.0,0.0,0.0,0.0,0.0,0.0,0.0,0.0,743.9959716796875,555.0128784179688,1117.156494140625,989.7105102539062,608.1011962890625,1121.6239013671875,806.3770141601562,378.9975280761719,1136.7919921875,967.1714477539062,392.885009765625,1143.6304931640625,678.6856079101562,516.358154296875,858.9912719726562,695.3121337890625,588.7350463867188,613.9934692382812,692.1458740234375,458.099365234375,517.5546264648438,723.0519409179688,328.5880126953125,368.1670837402344,812.333984375,225.72402954101562,379.6451721191406,712.2679443359375,393.30413818359375,192.3815155029297,1053.318359375,573.2756958007812,803.589599609375,1000.0211181640625,545.6810913085938,567.545654296875,1006.1036376953125,540.5185546875,429.3832092285156,950.9274291992188,530.2124633789062,219.47689819335938,884.6011352539062,452.1151428222656,163.71990966796875,918.5623779296875,715.9498901367188,180.14154052734375,1.1054,-1.5121,9.7474,1.0376,-0.1221,-0.5493,-8.844,-6.3885,134.7253,-0.0809,0.0497,0.9204,0.3792,5.4455,-8.1108,0.0574,0.3052,-0.4272,-0.1221,-89.6265,-33.8599,-9.2944,-0.6553,-0.2605,0.1496,0.6931,7.3356,-4.5363,4.7612,-0.3052,-0.2441,0.4883,-43.5718,-48.0981,148.3649,-0.4565,0.2229,0.8571,0.0856,0.3685,0.5838,-9.4603,-0.6104,-0.3662,0.3052,176.4679,-2.2192,50.3503,0.9042,-0.4256,-0.0044,0.0361,-1.7274,5.3737,8.1013,0.6104,-0.5493,-0.5493,33.5358,10.0854,143.1628,0.1706,-0.2461,0.9129,0.2773,5.3163,-4.9144,6.7279,0.1831,-0.2441,0.4272,-36.1121,-32.4976,-3.1531,-0.2901,-0.2741,0.0616,0.9148,-9.7761,0.0335,-0.201,0.4883,-0.061,-0.061,169.8816,88.7585,105.9521,0.4779,-0.5313,0.4698,-0.5183,0,0,0,0,0,0,0,0,0,0,0,0,0,0,0,0,0,0,23808,0,0,0,0,0,0,0,0,0,0,0,0,0,0,0,0,0
1777280554.8797946,7288,0,0.0,0.0,0.0,0.0,0.0,0.0,0.0,0.0,0.0,0.0,0.0,0.0,0.0,0.0,0.0,0.0,0.0,0.0,0.0,0.0,0.0,0.0,0.0,0.0,0.0,0.0,0.0,746.2120361328125,552.5218505859375,1119.2869873046875,991.8560791015625,605.96337890625,1122.9617919921875,808.91357421875,376.4537048339844,1138.95654296875,969.6889038085938,390.76220703125,1145.5179443359375,679.2328491210938,519.5000610351562,864.5989990234375,694.2525024414062,600.0084838867188,621.6455688476562,693.0338134765625,471.8067932128906,521.8865966796875,725.1063232421875,347.05462646484375,368.68896484375,817.3854370117188,243.8910675048828,370.0680236816406,707.2783203125,420.6875915527344,198.8889923095703,1055.1605224609375,567.2296142578125,803.4638061523438,1001.4400024414062,535.027099609375,567.82666015625,1007.2267456054688,528.0401611328125,429.6871643066406,951.37451171875,515.218505859375,219.9307098388672,884.9652099609375,436.82275390625,164.0207061767578,918.95458984375,700.6422119140625,180.33692932128906,1.1006,-1.5169,9.7426,0.9766,-0.1221,-0.6104,-8.844,-6.3885,134.7253,-0.0809,0.0497,0.9204,0.3792,5.4551,-8.1156,0.0526,0.3662,-0.4883,-0.1221,-89.621,-33.8599,-9.2999,-0.6553,-0.2606,0.1495,0.6931,7.3356,-4.5315,4.766,-0.2441,-0.2441,0.4883,-43.5718,-48.0981,148.3649,-0.4565,0.2229,0.8571,0.0856,0.3685,0.5838,-9.4603,-0.6104,-0.3662,0.3052,176.4679,-2.2192,50.3613,0.9041,-0.4257,-0.0044,0.0361,-1.7322,5.3689,8.1013,0.5493,-0.6104,-0.6104,33.5358,10.0854,143.1628,0.1706,-0.2461,0.9129,0.2773,5.3163,-4.9144,6.7279,0.1831,-0.2441,0.4272,-36.1121,-32.4976,-3.1531,-0.2901,-0.2741,0.0616,0.9148,-9.7761,0.0335,-0.201,0.4883,-0.061,-0.061,169.8816,88.7585,105.9521,0.4779,-0.5313,0.4698,-0.5183,0,0,0,0,0,0,0,0,0,0,0,0,0,0,0,0,0,0,20992,0,0,0,0,0,0,0,0,0,0,0,0,0,0,0,0,0
1777280554.8981218,7290,0,0.0,0.0,0.0,0.0,0.0,0.0,0.0,0.0,0.0,0.0,0.0,0.0,0.0,0.0,0.0,0.0,0.0,0.0,0.0,0.0,0.0,0.0,0.0,0.0,0.0,0.0,0.0,748.2860717773438,549.9751586914062,1121.435791015625,993.970458984375,603.4134521484375,1124.1346435546875,811.1056518554688,373.7706604003906,1141.195068359375,971.8973999023438,388.3038635253906,1147.29541015625,680.4517822265625,520.5892333984375,869.758056640625,693.9130859375,609.2649536132812,628.8423461914062,694.1943969726562,484.87322998046875,523.429443359375,726.6491088867188,367.4161682128906,364.5674743652344,820.7883911132812,264.3184814453125,354.80999755859375,702.28662109375,452.5729064941406,202.7032470703125,1056.556884765625,561.0106811523438,803.3294067382812,1002.4705810546875,524.5521240234375,568.2210083007812,1008.078369140625,515.5235595703125,430.2105407714844,951.816162109375,500.080322265625,220.525634765625,885.3552856445312,421.4455261230469,164.37460327148438,919.388916015625,685.203125,180.59613037109375,1.1054,-1.5169,9.7474,0.9766,-0.1221,-0.5493,-8.844,-6.3885,134.7253,-0.0809,0.0497,0.9204,0.3792,5.4503,-8.1156,0.0574,0.3052,-0.4883,-0.061,-89.621,-33.8599,-9.2999,-0.6553,-0.2606,0.1495,0.6931,7.3356,-4.5363,4.7708,-0.2441,-0.2441,0.4883,-43.5718,-48.0981,148.3649,-0.4565,0.2229,0.8571,0.0856,0.3685,0.5886,-9.4555,-0.6104,-0.3662,0.3052,176.4679,-2.2192,50.3723,0.9041,-0.4258,-0.0044,0.0361,-1.7322,5.3689,8.0965,0.5493,-0.5493,-0.6104,33.5358,10.0854,143.1628,0.1706,-0.2461,0.9129,0.2773,5.3163,-4.9144,6.7279,0.1831,-0.2441,0.4272,-36.1121,-32.4976,-3.1531,-0.2901,-0.2741,0.0616,0.9148,-9.7761,0.0335,-0.201,0.4883,-0.061,-0.061,169.8816,88.7585,105.9521,0.4779,-0.5313,0.4698,-0.5183,0,0,0,0,0,0,0,0,0,0,0,0,0,0,0,0,0,0,20992,0,0,0,0,0,0,0,0,0,0,0,0,0,0,0,0,0
1777280554.914732,7293,0,0.0,0.0,0.0,0.0,0.0,0.0,0.0,0.0,0.0,0.0,0.0,0.0,0.0,0.0,0.0,0.0,0.0,0.0,0.0,0.0,0.0,0.0,0.0,0.0,0.0,0.0,0.0,751.0940551757812,546.1529541015625,1124.3909912109375,997.0142211914062,599.0502319335938,1125.415283203125,813.7859497070312,369.6584167480469,1144.412841796875,974.6486206054688,384.1970520019531,1149.61279296875,683.5530395507812,518.5254516601562,875.8017578125,694.6649169921875,619.3058471679688,637.7186279296875,695.8450317382812,503.68212890625,520.1364135742188,727.4120483398438,401.96990966796875,350.5345153808594,821.7424926757812,300.82965087890625,324.0645446777344,695.6251831054688,506.6846923828125,203.38035583496094,1057.9605712890625,551.4752197265625,802.9369506835938,1003.3081665039062,509.3807678222656,568.7830200195312,1008.8309936523438,496.9217224121094,431.12396240234375,952.3739624023438,477.2464294433594,221.52647399902344,885.9942016601562,398.34881591796875,164.96043395996094,920.114990234375,661.9612426757812,180.93258666992188,1.1006,-1.5121,9.7474,0.9766,-0.1221,-0.6104,-8.844,-6.3885,134.7253,-0.0809,0.0497,0.9204,0.3792,5.4455,-8.1108,0.0574,0.3662,-0.4272,-0.061,-89.621,-33.8599,-9.2999,-0.6553,-0.2606,0.1495,0.6931,7.3309,-4.5315,4.766,-0.3052,-0.2441,0.4883,-43.5718,-48.0981,148.3649,-0.4565,0.2229,0.8571,0.0856,0.3637,0.5886,-9.4603,-0.6104,-0.3662,0.3052,176.4679,-2.2192,50.3778,0.9041,-0.4259,-0.0044,0.0361,-1.7274,5.3737,8.0965,0.5493,-0.5493,-0.6104,33.5358,10.0854,143.1628,0.1706,-0.2461,0.9129,0.2773,5.3115,-4.9096,6.7327,0.1831,-0.1831,0.3662,-36.1121,-32.4976,-3.1531,-0.2901,-0.2741,0.0616,0.9148,-9.7761,0.0383,-0.2105,0.4883,0.0,0.0,169.8816,88.7585,105.9521,0.4779,-0.5313,0.4698,-0.5183,0,0,0,0,0,0,0,0,0,0,0,0,0,0,0,0,0,0,20992,0,0,0,0,0,0,0,0,0,0,0,0,0,0,0,0,0
1777280554.9428864,7294,0,0.0,0.0,0.0,0.0,0.0,0.0,0.0,0.0,0.0,0.0,0.0,0.0,0.0,0.0,0.0,0.0,0.0,0.0,0.0,0.0,0.0,0.0,0.0,0.0,0.0,0.0,0.0,751.9404296875,544.9010009765625,1125.2264404296875,997.9722290039062,597.5125122070312,1125.668212890625,814.5294189453125,368.3048095703125,1145.383544921875,975.4232177734375,382.7681579589844,1150.2606201171875,684.8541259765625,516.976318359375,877.2319946289062,695.2174682617188,621.6055908203125,639.9644165039062,696.2730712890625,509.8197937011719,517.58740234375,727.2216186523438,414.6368103027344,344.1439514160156,821.0458984375,314.70147705078125,312.04638671875,693.6793823242188,526.1107788085938,202.6524658203125,1058.26611328125,548.2654418945312,802.710205078125,1003.4178466796875,504.5011901855469,568.9059448242188,1008.9533081054688,490.84393310546875,431.3935241699219,952.5153198242188,469.6484680175781,221.85462951660156,886.2105712890625,390.66595458984375,165.15065002441406,920.3629150390625,654.2255249023438,180.9970703125,1.1054,-1.5169,9.7426,0.9766,-0.1221,-0.6104,-8.844,-6.3885,134.7253,-0.0809,0.0497,0.9204,0.3792,5.4455,-8.1108,0.0574,0.3662,-0.4272,-0.061,-89.621,-33.8599,-9.2999,-0.6553,-0.2606,0.1495,0.6931,7.3309,-4.5315,4.766,-0.3052,-0.2441,0.4883,-43.5718,-48.0981,148.3649,-0.4565,0.2229,0.8571,0.0856,0.3637,0.5886,-9.4603,-0.6104,-0.3662,0.3052,176.4679,-2.2192,50.3778,0.9041,-0.4259,-0.0044,0.0361,-1.7322,5.3737,8.1013,0.5493,-0.4883,-0.6104,33.5358,10.0854,143.1628,0.1706,-0.2461,0.9129,0.2773,5.3115,-4.9096,6.7279,0.1831,-0.2441,0.3662,-36.1121,-32.4976,-3.1531,-0.2901,-0.2741,0.0616,0.9148,-9.7761,0.0431,-0.2058,0.4883,0.0,0.0,169.8816,88.7585,105.9521,0.4779,-0.5313,0.4698,-0.5183,0,0,0,0,0,0,0,0,0,0,0,0,0,0,0,0,0,0,20992,0,0,0,0,0,0,0,0,0,0,0,0,0,0,0,0,0
1777280554.946524,7296,0,0.0,0.0,0.0,0.0,0.0,0.0,0.0,0.0,0.0,0.0,0.0,0.0,0.0,0.0,0.0,0.0,0.0,0.0,0.0,0.0,0.0,0.0,0.0,0.0,0.0,0.0,0.0,753.4884033203125,542.4686889648438,1126.5595703125,999.7680053710938,594.4080810546875,1125.8502197265625,815.8096313476562,365.6843566894531,1147.0836181640625,976.7716674804688,379.9007568359375,1151.3272705078125,687.6550903320312,512.8902587890625,879.1302490234375,696.7049560546875,624.5955200195312,643.1744384765625,696.8679809570312,521.998046875,510.5557556152344,726.2532348632812,441.7772521972656,329.5713806152344,818.607177734375,345.1440124511719,286.0993347167969,690.0855102539062,566.6493530273438,200.50961303710938,1058.6551513671875,541.8480834960938,802.0574951171875,1003.4268798828125,495.0197448730469,568.9892578125,1009.0276489257812,478.9544372558594,431.7970275878906,952.7069091796875,454.53216552734375,222.4651641845703,886.6189575195312,375.3377685546875,165.4954071044922,920.8397216796875,638.803955078125,181.02630615234375,1.1054,-1.5169,9.7426,0.9766,-0.1221,-0.5493,-8.844,-6.3885,134.7253,-0.0809,0.0497,0.9204,0.3792,5.4455,-8.1156,0.0622,0.3052,-0.4272,-0.1221,-89.621,-33.8599,-9.2999,-0.6553,-0.2606,0.1495,0.6931,7.3309,-4.5315,4.766,-0.2441,-0.2441,0.4883,-43.5718,-48.0981,148.3649,-0.4565,0.2229,0.8571,0.0856,0.3637,0.5838,-9.4555,-0.6104,-0.2441,0.3052,176.4624,-2.2192,50.3888,0.904,-0.4259,-0.0044,0.0362,-1.7274,5.3689,8.0965,0.6104,-0.5493,-0.6104,33.5358,10.0854,143.1628,0.1706,-0.2461,0.9129,0.2773,5.3115,-4.9096,6.7279,0.1831,-0.2441,0.3662,-36.1121,-32.4976,-3.1531,-0.2901,-0.2741,0.0616,0.9148,-9.7761,0.0431,-0.2058,0.4883,0.0,0.0,169.8816,88.7585,105.9521,0.4779,-0.5313,0.4698,-0.5183,0,0,0,0,0,0,0,0,0,0,0,0,0,0,0,0,0,0,20992,0,0,0,0,0,0,0,0,0,0,0,0,0,0,0,0,0
1777280554.9623408,7298,0,0.0,0.0,0.0,0.0,0.0,0.0,0.0,0.0,0.0,0.0,0.0,0.0,0.0,0.0,0.0,0.0,0.0,0.0,0.0,0.0,0.0,0.0,0.0,0.0,0.0,0.0,0.0,754.8351440429688,540.1807861328125,1127.3427734375,1001.3692016601562,591.3727416992188,1125.55517578125,816.8321533203125,363.2447509765625,1148.3807373046875,977.8659057617188,377.1094665527344,1152.050537109375,690.4342041015625,507.9020690917969,879.7681274414062,698.6051635742188,625.4176025390625,644.5611572265625,697.0983276367188,534.1256713867188,501.39752197265625,724.6729125976562,471.3192138671875,313.64337158203125,815.4652099609375,379.2497863769531,258.96966552734375,686.6834716796875,608.8640747070312,198.2760467529297,1058.7738037109375,535.507080078125,801.1063842773438,1003.2155151367188,485.8739013671875,568.8150634765625,1008.9027099609375,467.4328308105469,431.9660339355469,952.7509765625,439.5536193847656,222.9929962158203,886.9629516601562,360.04876708984375,165.77987670898438,921.2703857421875,623.4668579101562,180.91990661621094,1.1054,-1.5169,9.7426,0.9766,-0.1221,-0.5493,-8.844,-6.3885,134.7253,-0.0809,0.0497,0.9204,0.3792,5.4455,-8.1156,0.0622,0.3052,-0.4272,-0.1221,-89.621,-33.8599,-9.2999,-0.6553,-0.2606,0.1495,0.6931,7.3309,-4.5315,4.766,-0.2441,-0.2441,0.4883,-43.5718,-48.0981,148.3649,-0.4565,0.2229,0.8571,0.0856,0.3637,0.5838,-9.4555,-0.6104,-0.3052,0.3052,176.4624,-2.2192,50.3998,0.904,-0.426,-0.0044,0.0362,-1.7274,5.3737,8.0965,0.6104,-0.5493,-0.6104,33.5358,10.0854,143.1628,0.1706,-0.2461,0.9129,0.2773,5.3067,-4.9048,6.7327,0.2441,-0.1831,0.3662,-36.1121,-32.4976,-3.1531,-0.2901,-0.2741,0.0616,0.9148,-9.7761,0.0335,-0.2105,0.4883,0.0,0.0,169.8816,88.7585,105.9467,0.478,-0.5312,0.4698,-0.5182,0,0,0,0,0,0,0,0,0,0,0,0,0,0,0,0,0,0,20992,0,0,0,0,0,0,0,0,0,0,0,0,0,0,0,0,0
1777280554.9765413,7299,0,0.0,0.0,0.0,0.0,0.0,0.0,0.0,0.0,0.0,0.0,0.0,0.0,0.0,0.0,0.0,0.0,0.0,0.0,0.0,0.0,0.0,0.0,0.0,0.0,0.0,0.0,0.0,755.4302978515625,539.1104736328125,1127.502197265625,1002.0855712890625,589.9202270507812,1125.221923828125,817.2526245117188,362.1155700683594,1148.854248046875,978.3223876953125,375.7746887207031,1152.2725830078125,691.7063598632812,505.22723388671875,879.6475830078125,699.6699829101562,625.0242309570312,644.5650634765625,697.0913696289062,540.1795043945312,496.2402038574219,723.7256469726562,486.9341735839844,305.5918273925781,813.8690795898438,397.62847900390625,245.551025390625,685.0020751953125,630.3506469726562,197.45626831054688,1058.74365234375,532.396484375,800.515625,1003.0510864257812,481.4060974121094,568.6259155273438,1008.778076171875,461.79595947265625,431.95367431640625,952.7120361328125,432.1172790527344,223.22340393066406,887.1051635742188,352.410400390625,165.90176391601562,921.4661254882812,615.8319702148438,180.82232666015625,1.1054,-1.5121,9.7474,0.9766,-0.1221,-0.5493,-8.844,-6.3885,134.7253,-0.0809,0.0497,0.9204,0.3792,5.4455,-8.1156,0.0622,0.3052,-0.4272,-0.1221,-89.621,-33.8599,-9.2999,-0.6553,-0.2606,0.1495,0.6931,7.3309,-4.5315,4.766,-0.2441,-0.2441,0.4883,-43.5718,-48.0981,148.3649,-0.4565,0.2229,0.8571,0.0856,0.3637,0.5838,-9.4555,-0.6104,-0.3052,0.3052,176.4624,-2.2192,50.3998,0.904,-0.426,-0.0044,0.0362,-1.7274,5.3737,8.0965,0.6104,-0.5493,-0.6104,33.5358,10.0854,143.1628,0.1706,-0.2461,0.9129,0.2773,5.3067,-4.9048,6.7327,0.2441,-0.1831,0.3662,-36.1121,-32.4976,-3.1531,-0.2901,-0.2741,0.0616,0.9148,-9.7761,0.0335,-0.2105,0.4883,0.0,0.0,169.8816,88.7585,105.9467,0.478,-0.5312,0.4698,-0.5182,0,0,0,0,0,0,0,0,0,0,0,0,0,0,0,0,0,0,20992,0,0,0,0,0,0,0,0,0,0,0,0,0,0,0,0,0
1777280555.0082977,7299,1,0.0,0.0,0.0,0.0,0.0,0.0,0.0,0.0,0.0,0.0,0.0,0.0,0.0,0.0,0.0,0.0,0.0,0.0,0.0,0.0,0.0,0.0,0.0,0.0,0.0,0.0,0.0,755.4302978515625,539.1104736328125,1127.502197265625,1002.0855712890625,589.9202270507812,1125.221923828125,817.2526245117188,362.1155700683594,1148.854248046875,978.3223876953125,375.7746887207031,1152.2725830078125,691.7063598632812,505.22723388671875,879.6475830078125,699.6699829101562,625.0242309570312,644.5650634765625,697.0913696289062,540.1795043945312,496.2402038574219,723.7256469726562,486.9341735839844,305.5918273925781,813.8690795898438,397.62847900390625,245.551025390625,685.0020751953125,630.3506469726562,197.45626831054688,1058.74365234375,532.396484375,800.515625,1003.0510864257812,481.4060974121094,568.6259155273438,1008.778076171875,461.79595947265625,431.95367431640625,952.7120361328125,432.1172790527344,223.22340393066406,887.1051635742188,352.410400390625,165.90176391601562,921.4661254882812,615.8319702148438,180.82232666015625,1.1054,-1.5121,9.7474,0.9766,-0.1221,-0.5493,-8.844,-6.3885,134.7253,-0.0809,0.0497,0.9204,0.3792,5.4455,-8.1108,0.0622,0.3662,-0.4883,-0.1831,-89.621,-33.8599,-9.2999,-0.6553,-0.2606,0.1495,0.6931,7.3309,-4.5315,4.766,-0.2441,-0.2441,0.4883,-43.5718,-48.0981,148.3649,-0.4565,0.2229,0.8571,0.0856,0.3732,0.5838,-9.4603,-0.6104,-0.3052,0.3662,176.4624,-2.2192,50.4108,0.9039,-0.4261,-0.0044,0.0362,-1.7274,5.3737,8.0965,0.6104,-0.5493,-0.6104,33.5358,10.0854,143.1628,0.1706,-0.2461,0.9129,0.2773,5.3067,-4.9048,6.7327,0.2441,-0.1831,0.3662,-36.1121,-32.4976,-3.1531,-0.2901,-0.2741,0.0616,0.9148,-9.7761,0.0335,-0.2105,0.4883,0.0,0.0,169.8816,88.7585,105.9467,0.478,-0.5312,0.4698,-0.5182,0,0,0,0,0,0,0,0,0,0,0,0,0,0,0,0,0,0,24064,0,0,0,0,0,0,0,0,0,0,0,0,0,0,0,0,0
1777280555.0113325,7302,0,0.0,0.0,0.0,0.0,0.0,0.0,0.0,0.0,0.0,0.0,0.0,0.0,0.0,0.0,0.0,0.0,0.0,0.0,0.0,0.0,0.0,0.0,0.0,0.0,0.0,0.0,0.0,756.888671875,536.2853393554688,1127.0167236328125,1003.856201171875,585.9938354492188,1123.5162353515625,818.1734008789062,359.1842346191406,1149.5067138671875,979.3486328125,372.15728759765625,1152.3529052734375,694.6336669921875,497.1072692871094,877.77197265625,703.129150390625,620.8563842773438,642.0372924804688,696.8008422851562,558.1387329101562,479.78106689453125,720.5763549804688,536.3948364257812,283.1686096191406,809.6244506835938,457.2225341796875,208.50599670410156,680.1529541015625,695.0288696289062,198.06118774414062,1058.364013671875,523.4644775390625,798.3184814453125,1002.4341430664062,468.33819580078125,567.6783447265625,1008.2379150390625,445.27239990234375,431.54913330078125,952.3824462890625,409.9813537597656,223.8021240234375,887.4454956054688,329.47369384765625,166.2318115234375,921.9996337890625,593.0308227539062,180.40953063964844,1.1054,-1.5121,9.7474,0.9766,-0.1221,-0.5493,-8.844,-6.3885,134.7253,-0.0809,0.0497,0.9204,0.3792,5.4503,-8.1204,0.0574,0.3052,-0.4883,-0.1221,-89.621,-33.8599,-9.2999,-0.6553,-0.2606,0.1495,0.6931,7.3309,-4.5363,4.7612,-0.1831,-0.1831,0.4883,-43.5718,-48.0981,148.3649,-0.4565,0.2229,0.8571,0.0856,0.3685,0.579,-9.4603,-0.6104,-0.3052,0.3052,176.4624,-2.2192,50.4218,0.9039,-0.4262,-0.0044,0.0362,-1.7274,5.3737,8.1013,0.6104,-0.5493,-0.6104,33.5358,10.0854,143.1628,0.1706,-0.2461,0.9129,0.2773,5.3115,-4.9096,6.7327,0.1831,-0.1831,0.3662,-36.1121,-32.4976,-3.1531,-0.2901,-0.2741,0.0616,0.9148,-9.7713,0.0383,-0.2058,0.4883,0.0,-0.061,169.8816,88.7585,105.9521,0.4779,-0.5313,0.4698,-0.5183,0,0,0,0,0,0,0,0,0,0,0,0,0,0,0,0,0,0,24064,0,0,0,0,0,0,0,0,0,0,0,0,0,0,0,0,0
1777280555.0224147,7302,1,0.0,0.0,0.0,0.0,0.0,0.0,0.0,0.0,0.0,0.0,0.0,0.0,0.0,0.0,0.0,0.0,0.0,0.0,0.0,0.0,0.0,0.0,0.0,0.0,0.0,0.0,0.0,756.888671875,536.2853393554688,1127.0167236328125,1003.856201171875,585.9938354492188,1123.5162353515625,818.1734008789062,359.1842346191406,1149.5067138671875,979.3486328125,372.15728759765625,1152.3529052734375,694.6336669921875,497.1072692871094,877.77197265625,703.129150390625,620.8563842773438,642.0372924804688,696.8008422851562,558.1387329101562,479.78106689453125,720.5763549804688,536.3948364257812,283.1686096191406,809.6244506835938,457.2225341796875,208.50599670410156,680.1529541015625,695.0288696289062,198.06118774414062,1058.364013671875,523.4644775390625,798.3184814453125,1002.4341430664062,468.33819580078125,567.6783447265625,1008.2379150390625,445.27239990234375,431.54913330078125,952.3824462890625,409.9813537597656,223.8021240234375,887.4454956054688,329.47369384765625,166.2318115234375,921.9996337890625,593.0308227539062,180.40953063964844,1.1054,-1.5121,9.7474,0.9766,-0.1221,-0.5493,-8.844,-6.3885,134.7253,-0.0809,0.0497,0.9204,0.3792,5.4503,-8.1204,0.0574,0.3052,-0.4883,-0.1221,-89.621,-33.8599,-9.2999,-0.6553,-0.2606,0.1495,0.6931,7.3309,-4.5363,4.7612,-0.1831,-0.1831,0.4883,-43.5718,-48.0981,148.3649,-0.4565,0.2229,0.8571,0.0856,0.3685,0.579,-9.4603,-0.6104,-0.3052,0.3052,176.4624,-2.2192,50.4218,0.9039,-0.4262,-0.0044,0.0362,-1.7274,5.3737,8.1013,0.6104,-0.5493,-0.6104,33.5358,10.0854,143.1628,0.1706,-0.2461,0.9129,0.2773,5.3115,-4.9096,6.7327,0.1831,-0.1831,0.3662,-36.1121,-32.4976,-3.1531,-0.2901,-0.2741,0.0616,0.9148,-9.7713,0.0383,-0.2058,0.4883,0.0,-0.061,169.8816,88.7585,105.9521,0.4779,-0.5313,0.4698,-0.5183,0,0,0,0,0,0,0,0,0,0,0,0,0,0,0,0,0,0,24064,0,0,0,0,0,0,0,0,0,0,0,0,0,0,0,0,0
1777280555.0375533,7304,0,0.0,0.0,0.0,0.0,0.0,0.0,0.0,0.0,0.0,0.0,0.0,0.0,0.0,0.0,0.0,0.0,0.0,0.0,0.0,0.0,0.0,0.0,0.0,0.0,0.0,0.0,0.0,757.5752563476562,534.7908935546875,1125.93212890625,1004.6951904296875,583.8547973632812,1121.8726806640625,818.51953125,357.6719665527344,1149.2838134765625,979.7601318359375,370.1741943359375,1151.9154052734375,695.6617431640625,491.9562683105469,875.4796752929688,705.5066528320312,616.0003662109375,638.6065673828125,696.6401977539062,569.63232421875,469.1889343261719,718.4299926757812,570.4462280273438,271.2184143066406,807.2550048828125,499.446533203125,188.080078125,677.52978515625,737.1716918945312,202.65292358398438,1057.9276123046875,517.9784545898438,796.5609130859375,1001.9953002929688,459.8940734863281,566.7890625,1007.8197631835938,434.528076171875,431.03521728515625,952.0718383789062,395.3317565917969,224.14132690429688,887.6580200195312,314.1492004394531,166.4768524169922,922.3411254882812,577.86767578125,180.0654296875,1.1006,-1.5169,9.7426,1.0376,-0.061,-0.5493,-8.844,-6.3885,134.7253,-0.0809,0.0497,0.9204,0.3792,5.4455,-8.1156,0.0574,0.3662,-0.4883,-0.1221,-89.621,-33.8599,-9.2999,-0.6553,-0.2606,0.1495,0.6931,7.3309,-4.5315,4.7612,-0.2441,-0.2441,0.4883,-43.5718,-48.0981,148.3649,-0.4565,0.2229,0.8571,0.0856,0.3685,0.5838,-9.4555,-0.6104,-0.3052,0.3662,176.4624,-2.2192,50.4327,0.9039,-0.4263,-0.0044,0.0362,-1.7322,5.3689,8.1013,0.6104,-0.5493,-0.6104,33.5358,10.0854,143.1628,0.1706,-0.2461,0.9129,0.2773,5.3115,-4.9096,6.7327,0.1831,-0.1831,0.3662,-36.1121,-32.4976,-3.1531,-0.2901,-0.2741,0.0616,0.9148,-9.7761,0.0335,-0.2105,0.4272,0.0,0.0,169.8816,88.7585,105.9521,0.4779,-0.5313,0.4698,-0.5183,0,0,0,0,0,0,0,0,0,0,0,0,0,0,0,0,0,0,24064,0,0,0,0,0,0,0,0,0,0,0,0,0,0,0,0,0
1777280555.0429344,7306,0,0.0,0.0,0.0,0.0,0.0,0.0,0.0,0.0,0.0,0.0,0.0,0.0,0.0,0.0,0.0,0.0,0.0,0.0,0.0,0.0,0.0,0.0,0.0,0.0,0.0,0.0,0.0,758.0210571289062,533.657470703125,1124.334228515625,1005.245361328125,582.1834716796875,1119.9337158203125,818.663818359375,356.5556640625,1148.552001953125,979.962646484375,368.61822509765625,1151.1002197265625,695.9522094726562,487.2041320800781,872.564697265625,707.8190307617188,610.0888061523438,634.2583618164062,696.6926879882812,580.3580932617188,459.9100036621094,716.3980712890625,603.9241943359375,262.67626953125,804.8755493164062,542.0022583007812,171.94692993164062,676.0145263671875,777.2481689453125,211.6375732421875,1057.3826904296875,512.9893188476562,794.642822265625,1001.5732421875,451.7154235839844,565.7745971679688,1007.419921875,424.0176086425781,430.4221496582031,951.7996215820312,380.75775146484375,224.51612854003906,887.9111328125,298.8185729980469,166.8072967529297,922.6813354492188,562.6959228515625,179.6625518798828,1.1054,-1.5121,9.7474,0.9766,0.0,-0.5493,-8.844,-6.3885,134.7253,-0.0809,0.0497,0.9204,0.3792,5.4455,-8.1156,0.0574,0.3052,-0.4883,-0.1221,-89.621,-33.8599,-9.2999,-0.6553,-0.2606,0.1495,0.6931,7.3309,-4.5363,4.7612,-0.3052,-0.3052,0.4883,-43.5718,-48.0981,148.3649,-0.4565,0.2229,0.8571,0.0856,0.3685,0.5838,-9.4555,-0.6104,-0.3662,0.3052,176.4624,-2.2192,50.4437,0.9038,-0.4264,-0.0044,0.0362,-1.7274,5.3689,8.0917,0.5493,-0.4883,-0.5493,33.5358,10.0854,143.1628,0.1706,-0.2461,0.9129,0.2773,5.3115,-4.9096,6.7327,0.1831,-0.1831,0.3662,-36.1121,-32.4976,-3.1531,-0.2901,-0.2741,0.0616,0.9148,-9.7761,0.0335,-0.2105,0.4272,0.0,0.0,169.8816,88.7585,105.9521,0.4779,-0.5313,0.4698,-0.5183,0,0,0,0,0,0,0,0,0,0,0,0,0,0,0,0,0,0,24064,0,0,0,0,0,0,0,0,0,0,0,0,0,0,0,0,0
1777280555.0690436,7307,0,0.0,0.0,0.0,0.0,0.0,0.0,0.0,0.0,0.0,0.0,0.0,0.0,0.0,0.0,0.0,0.0,0.0,0.0,0.0,0.0,0.0,0.0,0.0,0.0,0.0,0.0,0.0,758.1508178710938,533.2362060546875,1123.379150390625,1005.4104614257812,581.5386962890625,1118.8878173828125,818.6627807617188,356.15399169921875,1148.0078125,979.9868774414062,368.0189514160156,1150.5594482421875,695.85986328125,485.01776123046875,870.935546875,708.92236328125,606.9490966796875,631.8877563476562,696.808349609375,585.3283081054688,455.9471740722656,715.4655151367188,619.9811401367188,259.773193359375,803.555908203125,562.8159790039062,165.56698608398438,675.8380737304688,796.092041015625,217.7645263671875,1057.072021484375,510.7092590332031,793.6449584960938,1001.3680419921875,447.74884033203125,565.2469482421875,1007.2353515625,418.8670959472656,430.11224365234375,951.7036743164062,373.50506591796875,224.74285888671875,888.0634155273438,291.162353515625,167.02633666992188,922.8477783203125,555.1023559570312,179.4375762939453,1.1054,-1.5121,9.7474,0.9766,0.0,-0.5493,-8.844,-6.3885,134.7253,-0.0809,0.0497,0.9204,0.3792,5.4455,-8.1156,0.0574,0.3052,-0.4883,-0.1221,-89.621,-33.8599,-9.2999,-0.6553,-0.2606,0.1495,0.6931,7.3309,-4.5363,4.7612,-0.3052,-0.3052,0.4883,-43.5718,-48.0981,148.3649,-0.4565,0.2229,0.8571,0.0856,0.3685,0.5838,-9.4555,-0.6104,-0.3662,0.3052,176.4624,-2.2192,50.4437,0.9038,-0.4264,-0.0044,0.0362,-1.7274,5.3689,8.0917,0.5493,-0.4883,-0.5493,33.5358,10.0854,143.1628,0.1706,-0.2461,0.9129,0.2773,5.3115,-4.9096,6.7327,0.1831,-0.1831,0.3662,-36.1121,-32.4976,-3.1531,-0.2901,-0.2741,0.0616,0.9148,-9.7761,0.0335,-0.2105,0.4272,0.0,0.0,169.8816,88.7585,105.9521,0.4779,-0.5313,0.4698,-0.5183,0,0,0,0,0,0,0,0,0,0,0,0,0,0,0,0,0,0,24064,0,0,0,0,0,0,0,0,0,0,0,0,0,0,0,0,0
1777280555.0852375,7310,0,0.0,0.0,0.0,0.0,0.0,0.0,0.0,0.0,0.0,0.0,0.0,0.0,0.0,0.0,0.0,0.0,0.0,0.0,0.0,0.0,0.0,0.0,0.0,0.0,0.0,0.0,0.0,758.1572265625,532.5957641601562,1120.088623046875,1005.4705810546875,580.4146728515625,1115.60986328125,818.37060546875,355.6062927246094,1145.7515869140625,979.7499389648438,367.0078430175781,1148.4609375,694.9288330078125,479.4815979003906,865.700439453125,711.9066772460938,597.907958984375,624.67578125,697.3911743164062,598.26611328125,447.03094482421875,713.266845703125,663.0406494140625,255.92173767089844,798.9334106445312,620.107421875,152.6503448486328,678.1375732421875,845.6604614257812,240.68438720703125,1055.9573974609375,504.811279296875,790.5894775390625,1000.72265625,436.42584228515625,563.7167358398438,1006.7246704101562,403.90771484375,429.3414611816406,951.6192626953125,351.93780517578125,225.7100067138672,888.6468505859375,268.2718505859375,167.97357177734375,923.3194580078125,532.3037719726562,178.70587158203125,1.1054,-1.5169,9.7474,1.0376,-0.1831,-0.5493,-8.844,-6.3885,134.7253,-0.0809,0.0497,0.9204,0.3792,5.4455,-8.1156,0.0574,0.2441,-0.4272,-0.061,-89.621,-33.8599,-9.2999,-0.6553,-0.2606,0.1495,0.6931,7.3309,-4.5315,4.7612,-0.2441,-0.1831,0.4883,-43.5718,-48.0981,148.3649,-0.4565,0.2229,0.8571,0.0856,0.3685,0.5838,-9.4555,-0.5493,-0.3662,0.3052,176.4624,-2.2192,50.4657,0.9037,-0.4266,-0.0044,0.0362,-1.7274,5.3737,8.1013,0.5493,-0.6104,-0.5493,33.5413,10.0854,143.1628,0.1707,-0.2461,0.9129,0.2773,5.3115,-4.9048,6.7327,0.2441,-0.2441,0.3662,-36.1121,-32.4976,-3.1531,-0.2901,-0.2741,0.0616,0.9148,-9.7761,0.0383,-0.2058,0.4272,-0.061,-0.061,169.8816,88.7585,105.9521,0.4779,-0.5313,0.4698,-0.5183,0,0,0,0,0,0,0,0,0,0,0,0,0,0,0,0,0,0,29696,0,0,0,0,0,0,0,0,0,0,0,0,0,0,0,0,0
1777280555.1187127,7313,0,0.0,0.0,0.0,0.0,0.0,0.0,0.0,0.0,0.0,0.0,0.0,0.0,0.0,0.0,0.0,0.0,0.0,0.0,0.0,0.0,0.0,0.0,0.0,0.0,0.0,0.0,0.0,757.5741577148438,532.9781494140625,1116.5081787109375,1004.9069213867188,580.5590209960938,1112.3760986328125,817.6270141601562,356.1077880859375,1142.7562255859375,979.0260009765625,367.2770080566406,1145.7740478515625,693.5820922851562,476.128662109375,860.5696411132812,714.2967529296875,591.2122802734375,618.243896484375,698.1309814453125,607.7892456054688,441.91265869140625,712.5740356445312,694.6773681640625,256.5447082519531,794.5761108398438,663.71728515625,146.50376892089844,684.8119506835938,881.5164794921875,263.7158203125,1054.472900390625,500.3258361816406,787.5677490234375,999.8829345703125,425.9689636230469,562.47998046875,1006.16357421875,389.6835021972656,429.0615234375,951.7438354492188,330.7285461425781,227.28001403808594,889.3622436523438,245.51821899414062,169.2688446044922,923.7582397460938,509.5552673339844,177.99708557128906,1.1054,-1.5169,9.7426,1.0376,-0.061,-0.6104,-8.844,-6.3885,134.7253,-0.0809,0.0497,0.9204,0.3792,5.4503,-8.1108,0.0526,0.3662,-0.4272,-0.1221,-89.621,-33.8599,-9.2999,-0.6553,-0.2606,0.1495,0.6931,7.3309,-4.5363,4.766,-0.2441,-0.2441,0.4883,-43.5718,-48.0981,148.3649,-0.4565,0.2229,0.8571,0.0856,0.3685,0.5886,-9.4555,-0.6104,-0.3662,0.3052,176.4624,-2.2192,50.4877,0.9036,-0.4267,-0.0043,0.0362,-1.7274,5.3737,8.0965,0.5493,-0.5493,-0.5493,33.5413,10.0854,143.1628,0.1707,-0.2461,0.9129,0.2773,5.3115,-4.9048,6.7327,0.2441,-0.2441,0.3662,-36.1121,-32.4976,-3.1531,-0.2901,-0.2741,0.0616,0.9148,-9.7761,0.0431,-0.2105,0.4883,0.0,-0.061,169.8761,88.7585,105.9467,0.478,-0.5312,0.4699,-0.5182,0,0,0,0,0,0,0,0,0,0,0,0,0,0,0,0,0,0,29696,0,0,0,0,0,0,0,0,0,0,0,0,0,0,0,0,0
1777280555.137163,7314,0,0.0,0.0,0.0,0.0,0.0,0.0,0.0,0.0,0.0,0.0,0.0,0.0,0.0,0.0,0.0,0.0,0.0,0.0,0.0,0.0,0.0,0.0,0.0,0.0,0.0,0.0,0.0,757.2452392578125,533.3597412109375,1115.3206787109375,1004.5886840820312,580.8993530273438,1111.3531494140625,817.2684936523438,356.5267639160156,1141.6424560546875,978.6669311523438,367.6690979003906,1144.77978515625,693.1469116210938,475.6551208496094,859.0057983398438,714.9695434570312,589.8003540039062,616.397216796875,698.4300537109375,610.1480712890625,440.7553405761719,712.8076782226562,702.0714721679688,256.9432067871094,793.6768798828125,674.0083618164062,145.27267456054688,687.9100341796875,889.96435546875,269.6650695800781,1053.8756103515625,499.1150817871094,786.5896606445312,999.52685546875,422.64593505859375,562.1724853515625,1005.936279296875,385.0731201171875,429.1165466308594,951.7901000976562,323.74114990234375,227.96034240722656,889.5967407226562,237.9609375,169.72076416015625,923.9033203125,502.00390625,177.7820587158203,1.1054,-1.5169,9.7474,0.9766,-0.1221,-0.5493,-8.844,-6.3885,134.7253,-0.0809,0.0497,0.9204,0.3792,5.4455,-8.1108,0.0622,0.3052,-0.4272,-0.1221,-89.621,-33.8599,-9.2999,-0.6553,-0.2606,0.1495,0.6931,7.3356,-4.5315,4.766,-0.2441,-0.2441,0.4883,-43.5718,-48.0981,148.3649,-0.4565,0.2229,0.8571,0.0856,0.3637,0.5886,-9.4555,-0.6104,-0.3052,0.3052,176.4624,-2.2192,50.4987,0.9036,-0.4268,-0.0043,0.0362,-1.7227,5.3737,8.1013,0.6104,-0.6104,-0.5493,33.5413,10.0854,143.1628,0.1707,-0.2461,0.9129,0.2773,5.3067,-4.9144,6.7375,0.1831,-0.1831,0.3662,-36.1121,-32.4976,-3.1531,-0.2901,-0.2741,0.0616,0.9148,-9.7713,0.0335,-0.2058,0.4883,0.0,-0.061,169.8706,88.7585,105.9412,0.478,-0.5312,0.4699,-0.5182,0,0,0,0,0,0,0,0,0,0,0,0,0,0,0,0,0,0,35584,0,0,0,0,0,0,0,0,0,0,0,0,0,0,0,0,0
1777280555.1482103,7316,0,0.0,0.0,0.0,0.0,0.0,0.0,0.0,0.0,0.0,0.0,0.0,0.0,0.0,0.0,0.0,0.0,0.0,0.0,0.0,0.0,0.0,0.0,0.0,0.0,0.0,0.0,0.0,756.3794555664062,534.5507202148438,1113.0294189453125,1003.7648315429688,582.0325927734375,1109.427978515625,816.3621215820312,357.77337646484375,1139.31103515625,977.7536010742188,368.9223327636719,1142.68994140625,692.3736572265625,475.84490966796875,856.1961059570312,716.191162109375,588.3822021484375,613.1742553710938,699.2315673828125,613.6412963867188,438.80999755859375,714.0615234375,711.8611450195312,257.0726013183594,793.1871337890625,687.155517578125,143.394287109375,695.1797485351562,901.5781860351562,277.0766296386719,1052.5164794921875,497.0560607910156,784.7012329101562,998.672119140625,416.1919250488281,561.7509765625,1005.395263671875,375.9804382324219,429.4787292480469,951.8338012695312,309.8718566894531,229.57347106933594,890.0020751953125,222.88511657714844,170.60215759277344,924.204345703125,486.9703369140625,177.38229370117188,1.1054,-1.5169,9.7474,0.9766,-0.1221,-0.5493,-8.844,-6.3885,134.7253,-0.0809,0.0497,0.9204,0.3792,5.4455,-8.1108,0.0622,0.3052,-0.4272,-0.1221,-89.621,-33.8599,-9.2999,-0.6553,-0.2606,0.1495,0.6931,7.3356,-4.5315,4.766,-0.2441,-0.2441,0.4883,-43.5718,-48.0981,148.3649,-0.4565,0.2229,0.8571,0.0856,0.3637,0.5886,-9.4555,-0.6104,-0.3052,0.3052,176.4624,-2.2192,50.4987,0.9036,-0.4268,-0.0043,0.0362,-1.7274,5.3785,8.1013,0.6104,-0.5493,-0.6104,33.5413,10.0854,143.1628,0.1707,-0.2461,0.9129,0.2773,5.3067,-4.9144,6.7375,0.1831,-0.1831,0.3662,-36.1121,-32.4976,-3.1531,-0.2901,-0.2741,0.0616,0.9148,-9.7713,0.0335,-0.2058,0.4883,0.0,-0.061,169.8706,88.7585,105.9412,0.478,-0.5312,0.4699,-0.5182,0,0,0,0,0,0,0,0,0,0,0,0,0,0,0,0,0,0,35584,0,0,0,0,0,0,0,0,0,0,0,0,0,0,0,0,0
1777280555.1511927,7317,0,0.0,0.0,0.0,0.0,0.0,0.0,0.0,0.0,0.0,0.0,0.0,0.0,0.0,0.0,0.0,0.0,0.0,0.0,0.0,0.0,0.0,0.0,0.0,0.0,0.0,0.0,0.0,755.8399658203125,535.3775024414062,1111.9453125,1003.2601318359375,582.8300170898438,1108.533935546875,815.8043823242188,358.612060546875,1138.117431640625,977.1920166015625,369.7856140136719,1141.6114501953125,692.0414428710938,476.54229736328125,854.9613037109375,716.7677001953125,588.3727416992188,611.7754516601562,699.7825317382812,614.8035888671875,437.8885192871094,715.0798950195312,714.3406372070312,256.5915832519531,793.5814819335938,689.8982543945312,142.6607666015625,699.2761840820312,904.9113159179688,278.1839294433594,1051.75732421875,496.18743896484375,783.7997436523438,998.1702270507812,413.05389404296875,561.6450805664062,1005.0787353515625,371.47845458984375,429.79388427734375,951.8190307617188,302.9804382324219,230.5140380859375,890.1578369140625,215.37086486816406,171.04647827148438,924.364501953125,479.49188232421875,177.1908416748047,1.1054,-1.5169,9.7474,0.9766,-0.1221,-0.5493,-8.844,-6.3885,134.7253,-0.0809,0.0497,0.9204,0.3792,5.4455,-8.1108,0.0622,0.3052,-0.4272,-0.1221,-89.621,-33.8599,-9.2999,-0.6553,-0.2606,0.1495,0.6931,7.3356,-4.5315,4.766,-0.2441,-0.2441,0.4883,-43.5718,-48.0981,148.3649,-0.4565,0.2229,0.8571,0.0856,0.3637,0.5886,-9.4555,-0.6104,-0.3052,0.3052,176.4624,-2.2192,50.4987,0.9036,-0.4268,-0.0043,0.0362,-1.7274,5.3785,8.1013,0.6104,-0.5493,-0.6104,33.5413,10.0854,143.1628,0.1707,-0.2461,0.9129,0.2773,5.3067,-4.9144,6.7375,0.1831,-0.1831,0.3662,-36.1121,-32.4976,-3.1531,-0.2901,-0.2741,0.0616,0.9148,-9.7713,0.0335,-0.2058,0.4883,0.0,-0.061,169.8706,88.7585,105.9412,0.478,-0.5312,0.4699,-0.5182,0,0,0,0,0,0,0,0,0,0,0,0,0,0,0,0,0,0,35584,0,0,0,0,0,0,0,0,0,0,0,0,0,0,0,0,0
1777280555.1647182,7317,1,0.0,0.0,0.0,0.0,0.0,0.0,0.0,0.0,0.0,0.0,0.0,0.0,0.0,0.0,0.0,0.0,0.0,0.0,0.0,0.0,0.0,0.0,0.0,0.0,0.0,0.0,0.0,755.8399658203125,535.3775024414062,1111.9453125,1003.2601318359375,582.8300170898438,1108.533935546875,815.8043823242188,358.612060546875,1138.117431640625,977.1920166015625,369.7856140136719,1141.6114501953125,692.0414428710938,476.54229736328125,854.9613037109375,716.7677001953125,588.3727416992188,611.7754516601562,699.7825317382812,614.8035888671875,437.8885192871094,715.0798950195312,714.3406372070312,256.5915832519531,793.5814819335938,689.8982543945312,142.6607666015625,699.2761840820312,904.9113159179688,278.1839294433594,1051.75732421875,496.18743896484375,783.7997436523438,998.1702270507812,413.05389404296875,561.6450805664062,1005.0787353515625,371.47845458984375,429.79388427734375,951.8190307617188,302.9804382324219,230.5140380859375,890.1578369140625,215.37086486816406,171.04647827148438,924.364501953125,479.49188232421875,177.1908416748047,1.1054,-1.5169,9.7426,0.9766,-0.1831,-0.6104,-8.844,-6.3885,134.7253,-0.0809,0.0497,0.9204,0.3792,5.4455,-8.1156,0.0574,0.3662,-0.4272,-0.1221,-89.621,-33.8599,-9.2999,-0.6553,-0.2606,0.1495,0.6931,7.3309,-4.5268,4.766,-0.2441,-0.3052,0.4883,-43.5718,-48.0981,148.3649,-0.4565,0.2229,0.8571,0.0856,0.3637,0.5886,-9.4555,-0.6104,-0.3052,0.3052,176.4624,-2.2192,50.4987,0.9036,-0.4268,-0.0043,0.0362,-1.7274,5.3785,8.1013,0.6104,-0.5493,-0.6104,33.5413,10.0854,143.1628,0.1707,-0.2461,0.9129,0.2773,5.3067,-4.9144,6.7375,0.1831,-0.1831,0.3662,-36.1121,-32.4976,-3.1531,-0.2901,-0.2741,0.0616,0.9148,-9.7713,0.0335,-0.2058,0.4883,0.0,-0.061,169.8706,88.7585,105.9412,0.478,-0.5312,0.4699,-0.5182,0,0,0,0,0,0,0,0,0,0,0,0,0,0,0,0,0,0,37888,0,0,0,0,0,0,0,0,0,0,0,0,0,0,0,0,0
1777280555.1819117,7319,0,0.0,0.0,0.0,0.0,0.0,0.0,0.0,0.0,0.0,0.0,0.0,0.0,0.0,0.0,0.0,0.0,0.0,0.0,0.0,0.0,0.0,0.0,0.0,0.0,0.0,0.0,0.0,754.5406494140625,537.53564453125,1109.940673828125,1002.062255859375,584.8929443359375,1106.8963623046875,814.4531860351562,360.744873046875,1135.73779296875,975.8404541015625,371.9813537597656,1139.432861328125,691.4620971679688,479.15985107421875,852.817138671875,717.9115600585938,589.6234130859375,609.3074340820312,701.2584228515625,616.1146240234375,435.9045715332031,717.8243408203125,715.071044921875,254.32928466796875,795.2230224609375,688.2182006835938,141.62330627441406,708.2548828125,907.4119873046875,275.1056213378906,1050.1026611328125,494.74395751953125,782.1063232421875,997.0250854492188,406.9925231933594,561.6522216796875,1004.3622436523438,362.5467529296875,430.71533203125,951.711181640625,289.2626647949219,232.6985626220703,890.3689575195312,200.41636657714844,172.08958435058594,924.71044921875,464.6060791015625,176.79908752441406,1.1054,-1.5169,9.7426,0.9766,-0.1831,-0.6104,-8.844,-6.3885,134.7253,-0.0809,0.0497,0.9204,0.3792,5.4455,-8.1156,0.0574,0.3662,-0.4272,-0.1221,-89.621,-33.8599,-9.2999,-0.6553,-0.2606,0.1495,0.6931,7.3309,-4.5268,4.766,-0.2441,-0.3052,0.4883,-43.5718,-48.0981,148.3649,-0.4565,0.2229,0.8571,0.0856,0.3685,0.5838,-9.4603,-0.6104,-0.3662,0.3662,176.4624,-2.2192,50.5096,0.9036,-0.4269,-0.0043,0.0362,-1.7274,5.3689,8.0965,0.6104,-0.5493,-0.6104,33.5413,10.0854,143.1628,0.1707,-0.2461,0.9129,0.2773,5.3067,-4.9048,6.7231,0.1831,-0.2441,0.4272,-36.1121,-32.4976,-3.1531,-0.2901,-0.2741,0.0616,0.9148,-9.7761,0.0383,-0.2058,0.4272,0.0,-0.061,169.8706,88.7585,105.9412,0.478,-0.5312,0.4699,-0.5182,0,0,0,0,0,0,0,0,0,0,0,0,0,0,0,0,0,0,37888,0,0,0,0,0,0,0,0,0,0,0,0,0,0,0,0,0
1777280555.1969748,7320,0,0.0,0.0,0.0,0.0,0.0,0.0,0.0,0.0,0.0,0.0,0.0,0.0,0.0,0.0,0.0,0.0,0.0,0.0,0.0,0.0,0.0,0.0,0.0,0.0,0.0,0.0,0.0,753.7781372070312,538.8804931640625,1109.033203125,1001.3661499023438,586.157470703125,1106.1563720703125,813.6495971679688,362.04583740234375,1134.578369140625,975.0438232421875,373.30712890625,1138.35205078125,691.194580078125,481.05755615234375,851.8907470703125,718.4906616210938,590.7935180664062,608.1951904296875,702.1787109375,616.3612670898438,434.7879638671875,719.4912109375,713.6990966796875,252.59274291992188,796.2290649414062,684.3411865234375,141.36709594726562,713.0870971679688,906.996337890625,271.18768310546875,1049.22265625,494.1737365722656,781.3239135742188,996.3919067382812,404.1144714355469,561.7634887695312,1003.9727783203125,358.13214111328125,431.3331298828125,951.6292114257812,282.4335632324219,233.96534729003906,890.4419555664062,192.99195861816406,172.792236328125,924.8968505859375,457.1884765625,176.58859252929688,1.1006,-1.5169,9.7426,0.9766,-0.1221,-0.6104,-8.844,-6.3885,134.7253,-0.0809,0.0497,0.9204,0.3792,5.4503,-8.1204,0.0526,0.3052,-0.4883,-0.1221,-89.621,-33.8599,-9.2999,-0.6553,-0.2606,0.1495,0.6931,7.3356,-4.5363,4.7612,-0.2441,-0.2441,0.4883,-43.5718,-48.0981,148.3649,-0.4565,0.2229,0.8571,0.0856,0.3685,0.5838,-9.4555,-0.5493,-0.3052,0.3052,176.4624,-2.2192,50.5151,0.9035,-0.4269,-0.0043,0.0362,-1.7274,5.3689,8.1013,0.6104,-0.5493,-0.6104,33.5413,10.0854,143.1628,0.1707,-0.2461,0.9129,0.2773,5.3067,-4.9048,6.7231,0.1831,-0.2441,0.4272,-36.1121,-32.4976,-3.1531,-0.2901,-0.2741,0.0616,0.9148,-9.7761,0.0383,-0.2058,0.4272,0.0,-0.061,169.8706,88.7585,105.9412,0.478,-0.5312,0.4699,-0.5182,0,0,0,0,0,0,0,0,0,0,0,0,0,0,0,0,0,0,37888,0,0,0,0,0,0,0,0,0,0,0,0,0,0,0,0,0
1777280555.215406,7323,0,0.0,0.0,0.0,0.0,0.0,0.0,0.0,0.0,0.0,0.0,0.0,0.0,0.0,0.0,0.0,0.0,0.0,0.0,0.0,0.0,0.0,0.0,0.0,0.0,0.0,0.0,0.0,751.028564453125,544.009765625,1106.7596435546875,998.8660278320312,590.8327026367188,1104.2752685546875,810.681884765625,366.8877868652344,1131.3900146484375,972.1453247070312,378.1118469238281,1135.265869140625,690.3336181640625,488.7685241699219,849.5821533203125,720.19873046875,595.8071899414062,605.15478515625,705.3453979492188,616.2244873046875,430.9327392578125,725.082275390625,705.3976440429688,245.8856658935547,798.9041748046875,665.4905395507812,141.8418731689453,728.3099365234375,901.650390625,252.91885375976562,1046.4989013671875,493.25592041015625,779.2734985351562,994.3607788085938,396.6266784667969,562.466064453125,1002.7953491210938,345.4025573730469,433.89801025390625,951.440673828125,262.1485290527344,238.67007446289062,890.7866821289062,171.03106689453125,176.39974975585938,925.508544921875,434.9140930175781,175.88441467285156,1.1006,-1.5169,9.7426,0.9766,-0.1221,-0.6104,-8.844,-6.3885,134.7253,-0.0809,0.0497,0.9204,0.3792,5.4503,-8.1156,0.0622,0.3052,-0.4883,-0.061,-89.621,-33.8599,-9.2999,-0.6553,-0.2606,0.1495,0.6931,7.3356,-4.5363,4.7708,-0.2441,-0.1831,0.4883,-43.5718,-48.0981,148.3649,-0.4565,0.2229,0.8571,0.0856,0.3637,0.5838,-9.4555,-0.6104,-0.3052,0.3052,176.4624,-2.2192,50.5371,0.9035,-0.4271,-0.0043,0.0362,-1.7274,5.3689,8.1061,0.4883,-0.5493,-0.5493,33.5413,10.0854,143.1628,0.1707,-0.2461,0.9129,0.2773,5.3115,-4.9144,6.7327,0.2441,-0.2441,0.3662,-36.1121,-32.4976,-3.1531,-0.2901,-0.2741,0.0616,0.9148,-9.7713,0.0335,-0.2105,0.4883,0.0,-0.061,169.8651,88.7585,105.9357,0.4781,-0.5311,0.47,-0.5181,0,0,0,0,0,0,0,0,0,0,0,0,0,0,0,0,0,0,43264,0,0,0,0,0,0,0,0,0,0,0,0,0,0,0,0,0
1777280555.2282236,7323,1,0.0,0.0,0.0,0.0,0.0,0.0,0.0,0.0,0.0,0.0,0.0,0.0,0.0,0.0,0.0,0.0,0.0,0.0,0.0,0.0,0.0,0.0,0.0,0.0,0.0,0.0,0.0,751.028564453125,544.009765625,1106.7596435546875,998.8660278320312,590.8327026367188,1104.2752685546875,810.681884765625,366.8877868652344,1131.3900146484375,972.1453247070312,378.1118469238281,1135.265869140625,690.3336181640625,488.7685241699219,849.5821533203125,720.19873046875,595.8071899414062,605.15478515625,705.3453979492188,616.2244873046875,430.9327392578125,725.082275390625,705.3976440429688,245.8856658935547,798.9041748046875,665.4905395507812,141.8418731689453,728.3099365234375,901.650390625,252.91885375976562,1046.4989013671875,493.25592041015625,779.2734985351562,994.3607788085938,396.6266784667969,562.466064453125,1002.7953491210938,345.4025573730469,433.89801025390625,951.440673828125,262.1485290527344,238.67007446289062,890.7866821289062,171.03106689453125,176.39974975585938,925.508544921875,434.9140930175781,175.88441467285156,1.1006,-1.5169,9.7426,0.9766,-0.1221,-0.6104,-8.844,-6.3885,134.7253,-0.0809,0.0497,0.9204,0.3792,5.4503,-8.1156,0.0622,0.3052,-0.4883,-0.061,-89.621,-33.8599,-9.2999,-0.6553,-0.2606,0.1495,0.6931,7.3356,-4.5363,4.7708,-0.2441,-0.1831,0.4883,-43.5718,-48.0981,148.3649,-0.4565,0.2229,0.8571,0.0856,0.3637,0.5838,-9.4555,-0.6104,-0.3052,0.3052,176.4624,-2.2192,50.5371,0.9035,-0.4271,-0.0043,0.0362,-1.7274,5.3689,8.1061,0.4883,-0.5493,-0.5493,33.5413,10.0854,143.1628,0.1707,-0.2461,0.9129,0.2773,5.3115,-4.9144,6.7327,0.2441,-0.2441,0.3662,-36.1121,-32.4976,-3.1531,-0.2901,-0.2741,0.0616,0.9148,-9.7713,0.0335,-0.2105,0.4883,0.0,-0.061,169.8651,88.7585,105.9357,0.4781,-0.5311,0.47,-0.5181,0,0,0,0,0,0,0,0,0,0,0,0,0,0,0,0,0,0,43264,0,0,0,0,0,0,0,0,0,0,0,0,0,0,0,0,0
1777280555.2312496,7325,0,0.0,0.0,0.0,0.0,0.0,0.0,0.0,0.0,0.0,0.0,0.0,0.0,0.0,0.0,0.0,0.0,0.0,0.0,0.0,0.0,0.0,0.0,0.0,0.0,0.0,0.0,0.0,748.8125610351562,548.2964477539062,1105.6749267578125,996.83984375,594.5859375,1103.3304443359375,808.2305297851562,370.8442077636719,1129.647705078125,969.7908325195312,381.8871154785156,1133.440673828125,689.611083984375,495.1417236328125,848.3898315429688,721.1443481445312,599.8391723632812,603.3486938476562,707.2791137695312,616.021728515625,428.2052001953125,728.608154296875,698.5010375976562,241.1877899169922,800.0423583984375,650.8524780273438,143.2586669921875,737.972412109375,896.2000732421875,238.12681579589844,1044.731201171875,493.6228942871094,778.1581420898438,993.0359497070312,393.2868957519531,563.13623046875,1002.145751953125,337.84661865234375,436.2740173339844,951.5867309570312,249.02537536621094,242.7931671142578,891.3704223632812,156.71432495117188,180.5745391845703,925.96337890625,419.9161682128906,175.4249725341797,1.1006,-1.5169,9.7474,0.9766,-0.1221,-0.6104,-8.844,-6.3885,134.7253,-0.0809,0.0497,0.9204,0.3792,5.4455,-8.1156,0.0622,0.3052,-0.4883,-0.1221,-89.621,-33.8599,-9.2999,-0.6553,-0.2606,0.1495,0.6931,7.3309,-4.5315,4.7612,-0.2441,-0.2441,0.4883,-43.5718,-48.0981,148.3649,-0.4565,0.2229,0.8571,0.0856,0.3637,0.5886,-9.4555,-0.6104,-0.3662,0.3052,176.4624,-2.2192,50.5371,0.9035,-0.4271,-0.0043,0.0362,-1.7274,5.3689,8.1013,0.6714,-0.5493,-0.6104,33.5413,10.0854,143.1628,0.1707,-0.2461,0.9129,0.2773,5.3115,-4.9096,6.7327,0.1831,-0.1831,0.3662,-36.1121,-32.4976,-3.1531,-0.2901,-0.2741,0.0616,0.9148,-9.7761,0.0335,-0.2105,0.5493,0.0,-0.061,169.8706,88.7585,105.9412,0.478,-0.5312,0.4699,-0.5182,0,0,0,0,0,0,0,0,0,0,0,0,0,0,0,0,0,0,43264,0,0,0,0,0,0,0,0,0,0,0,0,0,0,0,0,0
1777280555.244576,7325,1,0.0,0.0,0.0,0.0,0.0,0.0,0.0,0.0,0.0,0.0,0.0,0.0,0.0,0.0,0.0,0.0,0.0,0.0,0.0,0.0,0.0,0.0,0.0,0.0,0.0,0.0,0.0,748.8125610351562,548.2964477539062,1105.6749267578125,996.83984375,594.5859375,1103.3304443359375,808.2305297851562,370.8442077636719,1129.647705078125,969.7908325195312,381.8871154785156,1133.440673828125,689.611083984375,495.1417236328125,848.3898315429688,721.1443481445312,599.8391723632812,603.3486938476562,707.2791137695312,616.021728515625,428.2052001953125,728.608154296875,698.5010375976562,241.1877899169922,800.0423583984375,650.8524780273438,143.2586669921875,737.972412109375,896.2000732421875,238.12681579589844,1044.731201171875,493.6228942871094,778.1581420898438,993.0359497070312,393.2868957519531,563.13623046875,1002.145751953125,337.84661865234375,436.2740173339844,951.5867309570312,249.02537536621094,242.7931671142578,891.3704223632812,156.71432495117188,180.5745391845703,925.96337890625,419.9161682128906,175.4249725341797,1.1006,-1.5169,9.7474,0.9766,-0.1221,-0.6104,-8.844,-6.3885,134.7253,-0.0809,0.0497,0.9204,0.3792,5.4455,-8.1156,0.0622,0.3052,-0.4883,-0.1221,-89.621,-33.8599,-9.2999,-0.6553,-0.2606,0.1495,0.6931,7.3309,-4.5315,4.7612,-0.2441,-0.2441,0.4883,-43.5718,-48.0981,148.3649,-0.4565,0.2229,0.8571,0.0856,0.3637,0.5886,-9.4555,-0.6104,-0.3662,0.3052,176.4624,-2.2192,50.5371,0.9035,-0.4271,-0.0043,0.0362,-1.7274,5.3689,8.1013,0.6714,-0.5493,-0.6104,33.5413,10.0854,143.1628,0.1707,-0.2461,0.9129,0.2773,5.3115,-4.9096,6.7327,0.1831,-0.1831,0.3662,-36.1121,-32.4976,-3.1531,-0.2901,-0.2741,0.0616,0.9148,-9.7761,0.0335,-0.2105,0.5493,0.0,-0.061,169.8706,88.7585,105.9412,0.478,-0.5312,0.4699,-0.5182,0,0,0,0,0,0,0,0,0,0,0,0,0,0,0,0,0,0,43264,0,0,0,0,0,0,0,0,0,0,0,0,0,0,0,0,0
1777280555.2595117,7326,0,0.0,0.0,0.0,0.0,0.0,0.0,0.0,0.0,0.0,0.0,0.0,0.0,0.0,0.0,0.0,0.0,0.0,0.0,0.0,0.0,0.0,0.0,0.0,0.0,0.0,0.0,0.0,747.5943603515625,550.6627807617188,1105.279541015625,995.7173461914062,596.607177734375,1102.9615478515625,806.870361328125,373.0072937011719,1128.9317626953125,968.4947509765625,383.89862060546875,1132.627197265625,689.18701171875,498.5308532714844,847.9050903320312,721.4892578125,601.9171142578125,602.5431518554688,708.0035400390625,616.009521484375,426.92315673828125,730.08154296875,695.06298828125,239.04360961914062,800.3908081054688,643.66064453125,144.28048706054688,742.221923828125,893.0939331054688,230.68124389648438,1043.8935546875,494.2290344238281,777.6690063476562,992.4346313476562,392.373046875,563.4879760742188,1001.9124755859375,334.5627136230469,437.6808776855469,951.818603515625,242.7142791748047,245.23289489746094,891.8096923828125,149.67601013183594,183.27880859375,926.2056884765625,412.3441162109375,175.2389373779297,1.1054,-1.5169,9.7426,0.9766,-0.1831,-0.6104,-8.844,-6.3885,134.7253,-0.0809,0.0497,0.9204,0.3792,5.4407,-8.1156,0.0574,0.3052,-0.4883,-0.1221,-89.621,-33.8599,-9.2999,-0.6553,-0.2606,0.1495,0.6931,7.3309,-4.5315,4.7612,-0.2441,-0.2441,0.4883,-43.5718,-48.0981,148.3649,-0.4565,0.2229,0.8571,0.0856,0.3589,0.5838,-9.4603,-0.6104,-0.3662,0.3052,176.4624,-2.2192,50.5481,0.9034,-0.4272,-0.0043,0.0362,-1.7322,5.3737,8.1013,0.5493,-0.5493,-0.6714,33.5413,10.0854,143.1628,0.1707,-0.2461,0.9129,0.2773,5.3115,-4.9096,6.7327,0.1831,-0.1831,0.3662,-36.1121,-32.4976,-3.1531,-0.2901,-0.2741,0.0616,0.9148,-9.7761,0.0335,-0.2105,0.5493,0.0,-0.061,169.8706,88.7585,105.9412,0.478,-0.5312,0.4699,-0.5182,0,0,0,0,0,0,0,0,0,0,0,0,0,0,0,0,0,0,43264,0,0,0,0,0,0,0,0,0,0,0,0,0,0,0,0,0
1777280555.2631862,7328,0,0.0,0.0,0.0,0.0,0.0,0.0,0.0,0.0,0.0,0.0,0.0,0.0,0.0,0.0,0.0,0.0,0.0,0.0,0.0,0.0,0.0,0.0,0.0,0.0,0.0,0.0,0.0,744.9544067382812,555.7310791015625,1104.8101806640625,993.260986328125,600.8305053710938,1102.4515380859375,803.9138793945312,377.61248779296875,1127.8651123046875,965.6932373046875,388.06866455078125,1131.2413330078125,688.1998291015625,505.4026794433594,847.2073364257812,721.8125,606.0093383789062,601.2259521484375,708.6831665039062,616.156494140625,424.7648620605469,732.1536865234375,688.329345703125,235.43365478515625,800.67333984375,629.8084106445312,146.75778198242188,748.89306640625,885.9317626953125,216.62445068359375,1042.3492431640625,496.5228271484375,776.806884765625,991.45263671875,392.5332336425781,564.1423950195312,1001.7161865234375,329.4409484863281,440.95245361328125,952.7195434570312,230.95181274414062,251.01611328125,892.9530639648438,135.9696807861328,190.03964233398438,926.717529296875,397.0794982910156,175.01657104492188,1.1054,-1.5169,9.7426,0.9766,-0.061,-0.6104,-8.844,-6.3885,134.7253,-0.0809,0.0497,0.9204,0.3792,5.4455,-8.1108,0.0526,0.3662,-0.4883,-0.1221,-89.621,-33.8599,-9.2999,-0.6553,-0.2606,0.1495,0.6931,7.3309,-4.5315,4.7612,-0.2441,-0.2441,0.4883,-43.5718,-48.0981,148.3649,-0.4565,0.2229,0.8571,0.0856,0.3637,0.5838,-9.4603,-0.6104,-0.3052,0.3052,176.4624,-2.2192,50.5591,0.9034,-0.4273,-0.0043,0.0362,-1.7227,5.3689,8.1013,0.5493,-0.6104,-0.6104,33.5413,10.0854,143.1628,0.1707,-0.2461,0.9129,0.2773,5.3115,-4.9096,6.7279,0.1831,-0.1831,0.3662,-36.1121,-32.4976,-3.1531,-0.2901,-0.2741,0.0616,0.9148,-9.7713,0.0383,-0.2058,0.4883,0.0,-0.061,169.8816,88.7585,105.9467,0.478,-0.5312,0.4698,-0.5182,0,0,0,0,0,0,0,0,0,0,0,0,0,0,0,0,0,0,43264,0,0,0,0,0,0,0,0,0,0,0,0,0,0,0,0,0
1777280555.2756183,7328,1,0.0,0.0,0.0,0.0,0.0,0.0,0.0,0.0,0.0,0.0,0.0,0.0,0.0,0.0,0.0,0.0,0.0,0.0,0.0,0.0,0.0,0.0,0.0,0.0,0.0,0.0,0.0,744.9544067382812,555.7310791015625,1104.8101806640625,993.260986328125,600.8305053710938,1102.4515380859375,803.9138793945312,377.61248779296875,1127.8651123046875,965.6932373046875,388.06866455078125,1131.2413330078125,688.1998291015625,505.4026794433594,847.2073364257812,721.8125,606.0093383789062,601.2259521484375,708.6831665039062,616.156494140625,424.7648620605469,732.1536865234375,688.329345703125,235.43365478515625,800.67333984375,629.8084106445312,146.75778198242188,748.89306640625,885.9317626953125,216.62445068359375,1042.3492431640625,496.5228271484375,776.806884765625,991.45263671875,392.5332336425781,564.1423950195312,1001.7161865234375,329.4409484863281,440.95245361328125,952.7195434570312,230.95181274414062,251.01611328125,892.9530639648438,135.9696807861328,190.03964233398438,926.717529296875,397.0794982910156,175.01657104492188,1.1054,-1.5169,9.7426,0.9766,-0.061,-0.6104,-8.844,-6.3885,134.7253,-0.0809,0.0497,0.9204,0.3792,5.4455,-8.1108,0.0526,0.3662,-0.4883,-0.1221,-89.621,-33.8599,-9.2999,-0.6553,-0.2606,0.1495,0.6931,7.3309,-4.5315,4.7612,-0.2441,-0.2441,0.4883,-43.5718,-48.0981,148.3649,-0.4565,0.2229,0.8571,0.0856,0.3637,0.5838,-9.4603,-0.6104,-0.3052,0.3052,176.4624,-2.2192,50.5591,0.9034,-0.4273,-0.0043,0.0362,-1.7227,5.3689,8.1013,0.5493,-0.6104,-0.6104,33.5413,10.0854,143.1628,0.1707,-0.2461,0.9129,0.2773,5.3115,-4.9096,6.7279,0.1831,-0.1831,0.3662,-36.1121,-32.4976,-3.1531,-0.2901,-0.2741,0.0616,0.9148,-9.7713,0.0383,-0.2058,0.4883,0.0,-0.061,169.8816,88.7585,105.9467,0.478,-0.5312,0.4698,-0.5182,0,0,0,0,0,0,0,0,0,0,0,0,0,0,0,0,0,0,48896,0,0,0,0,0,0,0,0,0,0,0,0,0,0,0,0,0
1777280555.2911308,7329,0,0.0,0.0,0.0,0.0,0.0,0.0,0.0,0.0,0.0,0.0,0.0,0.0,0.0,0.0,0.0,0.0,0.0,0.0,0.0,0.0,0.0,0.0,0.0,0.0,0.0,0.0,0.0,743.54248046875,558.3759155273438,1104.7451171875,991.93408203125,602.9821166992188,1102.318359375,802.33642578125,380.00897216796875,1127.530029296875,964.2029418945312,390.18212890625,1130.683349609375,687.632568359375,508.76092529296875,847.018310546875,721.763427734375,607.9564819335938,600.7518920898438,708.5706176757812,616.2446899414062,423.9682312011719,732.7041015625,684.9395751953125,234.01234436035156,800.6387939453125,623.0654296875,148.08297729492188,751.1737670898438,881.7301025390625,210.3209228515625,1041.6522216796875,498.2936096191406,776.4266357421875,991.1107177734375,393.7873840332031,564.4164428710938,1001.7850341796875,327.8031005859375,442.8209533691406,953.426513671875,225.68685913085938,254.41647338867188,893.6273803710938,129.4207000732422,194.19667053222656,926.9893188476562,389.4362487792969,174.9845733642578,1.1006,-1.5121,9.7474,0.9766,-0.1221,-0.6104,-8.844,-6.3885,134.7253,-0.0809,0.0497,0.9204,0.3792,5.4503,-8.1156,0.0574,0.3052,-0.4883,-0.1221,-89.621,-33.8599,-9.2999,-0.6553,-0.2606,0.1495,0.6931,7.3309,-4.5363,4.766,-0.1831,-0.1831,0.4883,-43.5718,-48.0981,148.3649,-0.4565,0.2229,0.8571,0.0856,0.3685,0.5886,-9.4603,-0.5493,-0.3662,0.3052,176.4624,-2.2192,50.5701,0.9033,-0.4274,-0.0043,0.0362,-1.7274,5.3737,8.1013,0.5493,-0.5493,-0.5493,33.5413,10.0854,143.1628,0.1707,-0.2461,0.9129,0.2773,5.3115,-4.9096,6.7279,0.1831,-0.1831,0.3662,-36.1121,-32.4976,-3.1531,-0.2901,-0.2741,0.0616,0.9148,-9.7713,0.0383,-0.2058,0.4883,0.0,-0.061,169.8816,88.7585,105.9467,0.478,-0.5312,0.4698,-0.5182,0,0,0,0,0,0,0,0,0,0,0,0,0,0,0,0,0,0,48896,0,0,0,0,0,0,0,0,0,0,0,0,0,0,0,0,0
1777280555.2948031,7331,0,0.0,0.0,0.0,0.0,0.0,0.0,0.0,0.0,0.0,0.0,0.0,0.0,0.0,0.0,0.0,0.0,0.0,0.0,0.0,0.0,0.0,0.0,0.0,0.0,0.0,0.0,0.0,740.5670166015625,563.720458984375,1104.96484375,989.1106567382812,607.2276000976562,1102.3104248046875,799.0397338867188,384.85858154296875,1127.2750244140625,961.0877685546875,394.347412109375,1129.864013671875,686.3368530273438,515.0325317382812,847.0077514648438,721.2437133789062,611.4755249023438,600.221435546875,707.4581909179688,616.156982421875,423.0438232421875,732.936279296875,677.7254638671875,231.92771911621094,800.3409423828125,609.5807495117188,150.55091857910156,753.740234375,871.7927856445312,199.76866149902344,1040.419921875,503.2220764160156,775.7616577148438,990.8067626953125,399.0116271972656,564.818115234375,1002.3212280273438,326.8705139160156,447.0234069824219,955.4135131835938,216.933349609375,262.3578796386719,895.1314086914062,117.4786148071289,204.5436248779297,927.59912109375,374.3679504394531,174.99534606933594,1.1054,-1.5217,9.7426,0.9766,-0.1221,-0.5493,-8.844,-6.3885,134.7253,-0.0809,0.0497,0.9204,0.3792,5.4503,-8.1156,0.0574,0.3662,-0.4883,-0.1221,-89.621,-33.8599,-9.2999,-0.6553,-0.2606,0.1495,0.6931,7.3309,-4.5268,4.7612,-0.2441,-0.2441,0.4883,-43.5718,-48.0981,148.3649,-0.4565,0.2229,0.8571,0.0856,0.3637,0.5838,-9.4555,-0.6714,-0.3052,0.3052,176.4624,-2.2192,50.5811,0.9033,-0.4275,-0.0043,0.0362,-1.7274,5.3689,8.1013,0.6104,-0.5493,-0.6104,33.5413,10.0854,143.1628,0.1707,-0.2461,0.9129,0.2773,5.3067,-4.9144,6.7327,0.1831,-0.1831,0.3662,-36.1121,-32.4976,-3.1531,-0.2901,-0.2741,0.0616,0.9148,-9.7761,0.0383,-0.2058,0.4883,0.0,0.0,169.8816,88.7585,105.9521,0.4779,-0.5313,0.4698,-0.5183,0,0,0,0,0,0,0,0,0,0,0,0,0,0,0,0,0,0,48896,0,0,0,0,0,0,0,0,0,0,0,0,0,0,0,0,0
1777280555.3080401,7331,1,0.0,0.0,0.0,0.0,0.0,0.0,0.0,0.0,0.0,0.0,0.0,0.0,0.0,0.0,0.0,0.0,0.0,0.0,0.0,0.0,0.0,0.0,0.0,0.0,0.0,0.0,0.0,740.5670166015625,563.720458984375,1104.96484375,989.1106567382812,607.2276000976562,1102.3104248046875,799.0397338867188,384.85858154296875,1127.2750244140625,961.0877685546875,394.347412109375,1129.864013671875,686.3368530273438,515.0325317382812,847.0077514648438,721.2437133789062,611.4755249023438,600.221435546875,707.4581909179688,616.156982421875,423.0438232421875,732.936279296875,677.7254638671875,231.92771911621094,800.3409423828125,609.5807495117188,150.55091857910156,753.740234375,871.7927856445312,199.76866149902344,1040.419921875,503.2220764160156,775.7616577148438,990.8067626953125,399.0116271972656,564.818115234375,1002.3212280273438,326.8705139160156,447.0234069824219,955.4135131835938,216.933349609375,262.3578796386719,895.1314086914062,117.4786148071289,204.5436248779297,927.59912109375,374.3679504394531,174.99534606933594,1.1054,-1.5217,9.7426,0.9766,-0.1221,-0.5493,-8.844,-6.3885,134.7253,-0.0809,0.0497,0.9204,0.3792,5.4503,-8.1156,0.0574,0.3662,-0.4883,-0.1221,-89.621,-33.8599,-9.2999,-0.6553,-0.2606,0.1495,0.6931,7.3309,-4.5268,4.7612,-0.2441,-0.2441,0.4883,-43.5718,-48.0981,148.3649,-0.4565,0.2229,0.8571,0.0856,0.3637,0.5838,-9.4555,-0.6714,-0.3052,0.3052,176.4624,-2.2192,50.5811,0.9033,-0.4275,-0.0043,0.0362,-1.7274,5.3689,8.1013,0.6104,-0.5493,-0.6104,33.5413,10.0854,143.1628,0.1707,-0.2461,0.9129,0.2773,5.3067,-4.9144,6.7327,0.1831,-0.1831,0.3662,-36.1121,-32.4976,-3.1531,-0.2901,-0.2741,0.0616,0.9148,-9.7761,0.0383,-0.2058,0.4883,0.0,0.0,169.8816,88.7585,105.9521,0.4779,-0.5313,0.4698,-0.5183,0,0,0,0,0,0,0,0,0,0,0,0,0,0,0,0,0,0,48896,0,0,0,0,0,0,0,0,0,0,0,0,0,0,0,0,0
1777280555.3110642,7333,0,0.0,0.0,0.0,0.0,0.0,0.0,0.0,0.0,0.0,0.0,0.0,0.0,0.0,0.0,0.0,0.0,0.0,0.0,0.0,0.0,0.0,0.0,0.0,0.0,0.0,0.0,0.0,737.4456787109375,568.9014892578125,1105.642333984375,986.115478515625,611.210693359375,1102.655517578125,795.6361083984375,389.5963134765625,1127.564453125,957.8577880859375,398.27301025390625,1129.4610595703125,684.805908203125,520.3858032226562,847.4961547851562,720.2749633789062,614.2159423828125,600.2069091796875,705.5069580078125,615.2684936523438,422.9637451171875,732.4359741210938,669.4747924804688,230.7235870361328,799.9390869140625,595.7304077148438,152.43331909179688,754.4302368164062,859.7852172851562,192.35862731933594,1039.3988037109375,510.02764892578125,775.2493286132812,991.0726318359375,408.1353759765625,565.0496826171875,1003.4369506835938,329.6287841796875,451.8375244140625,958.1740112304688,211.296875,271.93231201171875,896.9234008789062,108.23706817626953,218.5697021484375,928.4124145507812,360.0699157714844,174.81573486328125,1.1054,-1.5169,9.7474,0.9766,-0.1221,-0.6104,-8.844,-6.3885,134.7253,-0.0809,0.0497,0.9204,0.3792,5.4503,-8.1156,0.0574,0.3052,-0.4272,-0.061,-89.621,-33.8599,-9.2999,-0.6553,-0.2606,0.1495,0.6931,7.3356,-4.5411,4.766,-0.2441,-0.2441,0.5493,-43.5718,-48.0981,148.3649,-0.4565,0.2229,0.8571,0.0856,0.3637,0.5838,-9.4555,-0.5493,-0.3662,0.3052,176.4624,-2.2192,50.592,0.9033,-0.4276,-0.0043,0.0362,-1.7322,5.3737,8.1013,0.5493,-0.5493,-0.6104,33.5413,10.0854,143.1628,0.1707,-0.2461,0.9129,0.2773,5.3067,-4.9144,6.7327,0.1831,-0.1831,0.3662,-36.1121,-32.4976,-3.1531,-0.2901,-0.2741,0.0616,0.9148,-9.7761,0.0383,-0.2058,0.4883,0.0,0.0,169.8816,88.7585,105.9521,0.4779,-0.5313,0.4698,-0.5183,0,0,0,0,0,0,0,0,0,0,0,0,0,0,0,0,0,0,48896,0,0,0,0,0,0,0,0,0,0,0,0,0,0,0,0,0
1777280555.3242164,7333,1,0.0,0.0,0.0,0.0,0.0,0.0,0.0,0.0,0.0,0.0,0.0,0.0,0.0,0.0,0.0,0.0,0.0,0.0,0.0,0.0,0.0,0.0,0.0,0.0,0.0,0.0,0.0,737.4456787109375,568.9014892578125,1105.642333984375,986.115478515625,611.210693359375,1102.655517578125,795.6361083984375,389.5963134765625,1127.564453125,957.8577880859375,398.27301025390625,1129.4610595703125,684.805908203125,520.3858032226562,847.4961547851562,720.2749633789062,614.2159423828125,600.2069091796875,705.5069580078125,615.2684936523438,422.9637451171875,732.4359741210938,669.4747924804688,230.7235870361328,799.9390869140625,595.7304077148438,152.43331909179688,754.4302368164062,859.7852172851562,192.35862731933594,1039.3988037109375,510.02764892578125,775.2493286132812,991.0726318359375,408.1353759765625,565.0496826171875,1003.4369506835938,329.6287841796875,451.8375244140625,958.1740112304688,211.296875,271.93231201171875,896.9234008789062,108.23706817626953,218.5697021484375,928.4124145507812,360.0699157714844,174.81573486328125,1.1054,-1.5169,9.7474,0.9766,-0.1221,-0.6104,-8.844,-6.3885,134.7253,-0.0809,0.0497,0.9204,0.3792,5.4503,-8.1156,0.0574,0.3052,-0.4272,-0.061,-89.621,-33.8599,-9.2999,-0.6553,-0.2606,0.1495,0.6931,7.3356,-4.5411,4.766,-0.2441,-0.2441,0.5493,-43.5718,-48.0981,148.3649,-0.4565,0.2229,0.8571,0.0856,0.3637,0.5838,-9.4555,-0.5493,-0.3662,0.3052,176.4624,-2.2192,50.592,0.9033,-0.4276,-0.0043,0.0362,-1.7322,5.3737,8.1013,0.5493,-0.5493,-0.6104,33.5413,10.0854,143.1628,0.1707,-0.2461,0.9129,0.2773,5.3067,-4.9144,6.7327,0.1831,-0.1831,0.3662,-36.1121,-32.4976,-3.1531,-0.2901,-0.2741,0.0616,0.9148,-9.7761,0.0383,-0.2058,0.4883,0.0,0.0,169.8816,88.7585,105.9521,0.4779,-0.5313,0.4698,-0.5183,0,0,0,0,0,0,0,0,0,0,0,0,0,0,0,0,0,0,46080,0,0,0,0,0,0,0,0,0,0,0,0,0,0,0,0,0
1777280555.3403008,7335,0,0.0,0.0,0.0,0.0,0.0,0.0,0.0,0.0,0.0,0.0,0.0,0.0,0.0,0.0,0.0,0.0,0.0,0.0,0.0,0.0,0.0,0.0,0.0,0.0,0.0,0.0,0.0,734.2615356445312,573.65087890625,1106.7340087890625,983.03271484375,614.7267456054688,1103.347900390625,792.21923828125,394.0044250488281,1128.3482666015625,954.5877685546875,401.7855529785156,1129.4810791015625,683.0274658203125,524.52783203125,848.401123046875,719.0819091796875,615.808837890625,600.536865234375,703.4006958007812,613.0949096679688,423.4730529785156,731.8389282226562,659.9131469726562,230.16751098632812,799.6622924804688,581.4141235351562,153.5877685546875,754.4058227539062,846.1552734375,187.8984832763672,1038.566650390625,518.5175170898438,774.9721069335938,991.9033203125,421.1546630859375,565.2636108398438,1005.1204223632812,336.50079345703125,457.2558898925781,961.602783203125,209.5208740234375,283.18658447265625,899.302978515625,103.44517517089844,237.5040283203125,929.6370849609375,347.2094421386719,173.96458435058594,1.1054,-1.5121,9.7378,1.0376,-0.1221,-0.5493,-8.844,-6.3885,134.7253,-0.0809,0.0497,0.9204,0.3792,5.4455,-8.1156,0.0574,0.3662,-0.4272,-0.1221,-89.621,-33.8599,-9.2999,-0.6553,-0.2606,0.1495,0.6931,7.3309,-4.5363,4.766,-0.2441,-0.3052,0.4883,-43.5718,-48.0981,148.3649,-0.4565,0.2229,0.8571,0.0856,0.3685,0.5838,-9.4507,-0.6104,-0.3052,0.3052,176.4624,-2.2192,50.592,0.9033,-0.4276,-0.0043,0.0362,-1.7274,5.3689,8.1061,0.5493,-0.6104,-0.5493,33.5413,10.0854,143.1628,0.1707,-0.2461,0.9129,0.2773,5.302,-4.9144,6.7279,0.1831,-0.2441,0.4272,-36.1121,-32.4976,-3.1531,-0.2901,-0.2741,0.0616,0.9148,-9.7713,0.0383,-0.201,0.4883,0.0,0.0,169.8816,88.7585,105.9521,0.4779,-0.5313,0.4698,-0.5183,0,0,0,0,0,0,0,0,0,0,0,0,0,0,0,0,0,0,46080,0,0,0,0,0,0,0,0,0,0,0,0,0,0,0,0,0
1777280555.3565605,7337,0,0.0,0.0,0.0,0.0,0.0,0.0,0.0,0.0,0.0,0.0,0.0,0.0,0.0,0.0,0.0,0.0,0.0,0.0,0.0,0.0,0.0,0.0,0.0,0.0,0.0,0.0,0.0,731.1124877929688,577.7542724609375,1108.16259765625,979.9633178710938,617.6136474609375,1104.367431640625,788.8668823242188,397.8974914550781,1129.5423583984375,951.3433227539062,404.74432373046875,1129.912841796875,681.0208740234375,527.2883911132812,849.546630859375,717.899658203125,615.9122924804688,600.9647216796875,701.8505249023438,609.2689208984375,424.1934814453125,731.6447143554688,649.072265625,229.99029541015625,799.6568603515625,566.838134765625,154.13278198242188,754.4898071289062,831.6455078125,185.57086181640625,1037.8876953125,528.2488403320312,775.0738525390625,993.1876220703125,437.6490173339844,565.7495727539062,1007.2545776367188,347.47747802734375,463.29522705078125,965.4296875,211.9647979736328,296.04437255859375,902.5748291015625,104.77635192871094,261.9723205566406,931.4655151367188,336.40972900390625,172.09681701660156,1.1102,-1.5217,9.7474,1.0376,-0.1221,-0.5493,-8.844,-6.3885,134.7253,-0.0809,0.0497,0.9204,0.3792,5.4455,-8.1108,0.0574,0.2441,-0.4883,-0.1221,-89.621,-33.8599,-9.2999,-0.6553,-0.2606,0.1495,0.6931,7.3309,-4.5363,4.766,-0.2441,-0.1831,0.4883,-43.5718,-48.0981,148.3649,-0.4565,0.2229,0.8571,0.0856,0.3685,0.5838,-9.4555,-0.6104,-0.3662,0.3052,176.4624,-2.2192,50.603,0.9032,-0.4276,-0.0043,0.0362,-1.7322,5.3689,8.1013,0.6104,-0.5493,-0.6104,33.5413,10.0854,143.1628,0.1707,-0.2461,0.9129,0.2773,5.302,-4.9144,6.7279,0.1831,-0.2441,0.4272,-36.1121,-32.4976,-3.1531,-0.2901,-0.2741,0.0616,0.9148,-9.7713,0.0383,-0.201,0.4883,0.0,0.0,169.8816,88.7585,105.9521,0.4779,-0.5313,0.4698,-0.5183,0,0,0,0,0,0,0,0,0,0,0,0,0,0,0,0,0,0,46080,0,0,0,0,0,0,0,0,0,0,0,0,0,0,0,0,0
1777280555.3858204,7337,1,0.0,0.0,0.0,0.0,0.0,0.0,0.0,0.0,0.0,0.0,0.0,0.0,0.0,0.0,0.0,0.0,0.0,0.0,0.0,0.0,0.0,0.0,0.0,0.0,0.0,0.0,0.0,731.1124877929688,577.7542724609375,1108.16259765625,979.9633178710938,617.6136474609375,1104.367431640625,788.8668823242188,397.8974914550781,1129.5423583984375,951.3433227539062,404.74432373046875,1129.912841796875,681.0208740234375,527.2883911132812,849.546630859375,717.899658203125,615.9122924804688,600.9647216796875,701.8505249023438,609.2689208984375,424.1934814453125,731.6447143554688,649.072265625,229.99029541015625,799.6568603515625,566.838134765625,154.13278198242188,754.4898071289062,831.6455078125,185.57086181640625,1037.8876953125,528.2488403320312,775.0738525390625,993.1876220703125,437.6490173339844,565.7495727539062,1007.2545776367188,347.47747802734375,463.29522705078125,965.4296875,211.9647979736328,296.04437255859375,902.5748291015625,104.77635192871094,261.9723205566406,931.4655151367188,336.40972900390625,172.09681701660156,1.1102,-1.5217,9.7474,1.0376,-0.1221,-0.5493,-8.844,-6.3885,134.7253,-0.0809,0.0497,0.9204,0.3792,5.4407,-8.1108,0.0622,0.3052,-0.4883,-0.1221,-89.621,-33.8654,-9.2999,-0.6552,-0.2606,0.1496,0.6931,7.3309,-4.5363,4.766,-0.2441,-0.1831,0.4883,-43.5718,-48.0981,148.3649,-0.4565,0.2229,0.8571,0.0856,0.3685,0.5838,-9.4555,-0.5493,-0.3052,0.3052,176.4624,-2.2192,50.614,0.9032,-0.4277,-0.0043,0.0362,-1.7322,5.3689,8.1013,0.6104,-0.5493,-0.6104,33.5413,10.0854,143.1628,0.1707,-0.2461,0.9129,0.2773,5.302,-4.9144,6.7279,0.1831,-0.2441,0.4272,-36.1121,-32.4976,-3.1531,-0.2901,-0.2741,0.0616,0.9148,-9.7713,0.0383,-0.201,0.4883,0.0,0.0,169.8816,88.7585,105.9521,0.4779,-0.5313,0.4698,-0.5183,0,0,0,0,0,0,0,0,0,0,0,0,0,0,0,0,0,0,38144,0,0,0,0,0,0,0,0,0,0,0,0,0,0,0,0,0
1777280555.4004383,7340,0,0.0,0.0,0.0,0.0,0.0,0.0,0.0,0.0,0.0,0.0,0.0,0.0,0.0,0.0,0.0,0.0,0.0,0.0,0.0,0.0,0.0,0.0,0.0,0.0,0.0,0.0,0.0,726.6787109375,582.4268798828125,1110.722412109375,975.6159057617188,620.5634765625,1106.454833984375,784.080322265625,402.49603271484375,1131.884765625,946.6378784179688,407.94818115234375,1131.274169921875,677.7338256835938,528.765869140625,851.2718505859375,716.4729614257812,612.8405151367188,601.3310546875,701.32470703125,600.0554809570312,424.9720153808594,732.4522094726562,630.879638671875,229.9407501220703,800.1524047851562,545.023193359375,154.3390655517578,755.2843017578125,809.5901489257812,184.05482482910156,1037.05859375,543.7978515625,776.3568725585938,995.5093383789062,467.1361999511719,567.801513671875,1010.7694702148438,370.4365539550781,473.6300048828125,970.9653930664062,223.10202026367188,317.74737548828125,908.6791381835938,119.70079803466797,306.79693603515625,935.4418334960938,325.250244140625,168.0826416015625,1.1054,-1.5121,9.7426,1.0376,-0.1221,-0.6104,-8.844,-6.3885,134.7253,-0.0809,0.0497,0.9204,0.3792,5.4455,-8.1156,0.0622,0.3052,-0.4883,-0.1221,-89.621,-33.8599,-9.2999,-0.6553,-0.2606,0.1495,0.6931,7.3356,-4.5363,4.7612,-0.2441,-0.3052,0.4883,-43.5718,-48.0981,148.3649,-0.4565,0.2229,0.8571,0.0856,0.3637,0.579,-9.4603,-0.6104,-0.3052,0.3052,176.4624,-2.2192,50.625,0.9031,-0.4278,-0.0043,0.0362,-1.7322,5.3689,8.1061,0.5493,-0.5493,-0.6104,33.5413,10.0854,143.1628,0.1707,-0.2461,0.9129,0.2773,5.3067,-4.9048,6.7327,0.1831,-0.1831,0.3662,-36.1121,-32.4976,-3.1531,-0.2901,-0.2741,0.0616,0.9148,-9.7761,0.0383,-0.2058,0.4883,0.0,-0.061,169.8761,88.7585,105.9467,0.478,-0.5312,0.4699,-0.5182,0,0,0,0,0,0,0,0,0,0,0,0,0,0,0,0,0,0,38144,0,0,0,0,0,0,0,0,0,0,0,0,0,0,0,0,0
1777280555.4039476,7342,0,0.0,0.0,0.0,0.0,0.0,0.0,0.0,0.0,0.0,0.0,0.0,0.0,0.0,0.0,0.0,0.0,0.0,0.0,0.0,0.0,0.0,0.0,0.0,0.0,0.0,0.0,0.0,724.0457153320312,584.5079956054688,1112.5706787109375,973.0208129882812,621.5889892578125,1108.1878662109375,781.106201171875,404.6493835449219,1133.6749267578125,943.66796875,409.213134765625,1132.6036376953125,675.5189208984375,528.1041870117188,852.2291259765625,715.8168334960938,608.6776123046875,601.2770385742188,701.9409790039062,591.7890625,425.1478576660156,733.514892578125,617.8389892578125,229.90640258789062,800.6571044921875,530.622802734375,154.4233856201172,756.0254516601562,795.0865478515625,183.4755859375,1036.553955078125,553.8558959960938,778.2520141601562,996.9678344726562,488.46966552734375,570.51953125,1012.8447265625,388.6871337890625,481.4057312011719,973.8056640625,234.58328247070312,333.0034484863281,912.1311645507812,136.7480926513672,337.6883544921875,938.876953125,322.35198974609375,166.3617706298828,1.1054,-1.5121,9.7426,1.0376,-0.1221,-0.6104,-8.844,-6.3885,134.7253,-0.0809,0.0497,0.9204,0.3792,5.4455,-8.1156,0.0622,0.3052,-0.4883,-0.1221,-89.621,-33.8599,-9.2999,-0.6553,-0.2606,0.1495,0.6931,7.3356,-4.5363,4.7612,-0.2441,-0.3052,0.4883,-43.5718,-48.0981,148.3649,-0.4565,0.2229,0.8571,0.0856,0.3589,0.5838,-9.4603,-0.6104,-0.3662,0.3052,176.4624,-2.2192,50.636,0.9031,-0.4279,-0.0043,0.0362,-1.7322,5.3689,8.1061,0.5493,-0.5493,-0.6104,33.5413,10.0854,143.1628,0.1707,-0.2461,0.9129,0.2773,5.3115,-4.9096,6.7231,0.1831,-0.2441,0.3662,-36.1121,-32.4976,-3.1531,-0.2901,-0.2741,0.0616,0.9148,-9.7761,0.0335,-0.2058,0.4272,0.061,-0.061,169.8761,88.7585,105.9467,0.478,-0.5312,0.4699,-0.5182,0,0,0,0,0,0,0,0,0,0,0,0,0,0,0,0,0,0,38144,0,0,0,0,0,0,0,0,0,0,0,0,0,0,0,0,0
1777280555.4338427,7344,0,0.0,0.0,0.0,0.0,0.0,0.0,0.0,0.0,0.0,0.0,0.0,0.0,0.0,0.0,0.0,0.0,0.0,0.0,0.0,0.0,0.0,0.0,0.0,0.0,0.0,0.0,0.0,721.7374267578125,585.81005859375,1114.45166015625,970.7333374023438,621.92333984375,1110.173583984375,778.3408813476562,406.0768737792969,1135.554443359375,940.8722534179688,409.8031005859375,1134.217041015625,673.4276733398438,526.345458984375,853.0054931640625,715.3767700195312,603.111328125,601.0535888671875,702.8065795898438,582.3516235351562,425.1944885253906,734.6897583007812,604.343994140625,229.90968322753906,801.1632690429688,516.2254028320312,154.6551971435547,756.6912841796875,780.7036743164062,182.96600341796875,1036.02001953125,563.1082763671875,781.1524047851562,998.1221313476562,509.9383850097656,574.4756469726562,1014.3243408203125,408.0329284667969,489.7305603027344,975.5055541992188,248.41709899902344,347.8084716796875,913.5955200195312,156.4156951904297,364.4073791503906,943.057373046875,324.78955078125,167.42764282226562,1.1006,-1.5121,9.7426,0.9766,-0.061,-0.6104,-8.844,-6.3885,134.7253,-0.0809,0.0497,0.9204,0.3792,5.4455,-8.1156,0.0574,0.3662,-0.4883,-0.1221,-89.6155,-33.8654,-9.2999,-0.6552,-0.2606,0.1496,0.6931,7.3261,-4.5363,4.7612,-0.2441,-0.2441,0.4883,-43.5718,-48.0981,148.3649,-0.4565,0.2229,0.8571,0.0856,0.3637,0.579,-9.4603,-0.5493,-0.2441,0.3052,176.4624,-2.2192,50.6525,0.903,-0.428,-0.0043,0.0362,-1.7322,5.3737,8.1013,0.5493,-0.5493,-0.6104,33.5413,10.0854,143.1628,0.1707,-0.2461,0.9129,0.2773,5.3115,-4.9144,6.7375,0.1831,-0.2441,0.3662,-36.1121,-32.4976,-3.1531,-0.2901,-0.2741,0.0616,0.9148,-9.7713,0.0383,-0.2058,0.4883,-0.061,-0.061,169.8761,88.7585,105.9467,0.478,-0.5312,0.4699,-0.5182,0,0,0,0,0,0,0,0,0,0,0,0,0,0,0,0,0,0,37120,0,0,0,0,0,0,0,0,0,0,0,0,0,0,0,0,0
1777280555.447856,7346,0,0.0,0.0,0.0,0.0,0.0,0.0,0.0,0.0,0.0,0.0,0.0,0.0,0.0,0.0,0.0,0.0,0.0,0.0,0.0,0.0,0.0,0.0,0.0,0.0,0.0,0.0,0.0,719.7682495117188,586.4170532226562,1116.3232421875,968.7664794921875,621.6602172851562,1112.3863525390625,775.8126831054688,406.8289794921875,1137.4581298828125,938.281982421875,409.775634765625,1136.0587158203125,671.5595703125,523.7470092773438,853.65771484375,715.1383666992188,596.5172729492188,600.7783813476562,703.558349609375,572.312744140625,425.3019714355469,735.784423828125,590.5662841796875,230.04066467285156,801.6212158203125,501.6800231933594,155.07249450683594,757.204345703125,766.2744140625,182.50344848632812,1035.4171142578125,571.3585815429688,785.1172485351562,998.866943359375,530.6588134765625,579.5521240234375,1014.98681640625,427.5279235839844,498.19171142578125,975.8858032226562,263.99395751953125,360.9581604003906,912.3180541992188,175.81422424316406,383.1786193847656,948.232421875,334.2681579589844,172.46897888183594,1.1006,-1.5121,9.7426,0.9766,-0.061,-0.6104,-8.844,-6.3885,134.7253,-0.0809,0.0497,0.9204,0.3792,5.4455,-8.1156,0.0574,0.3662,-0.4883,-0.1221,-89.6155,-33.8654,-9.2999,-0.6552,-0.2606,0.1496,0.6931,7.3261,-4.5363,4.7612,-0.2441,-0.2441,0.4883,-43.5718,-48.0981,148.3649,-0.4565,0.2229,0.8571,0.0856,0.3637,0.579,-9.4603,-0.5493,-0.2441,0.3052,176.4624,-2.2192,50.6525,0.903,-0.428,-0.0043,0.0362,-1.7322,5.3737,8.1013,0.5493,-0.5493,-0.6104,33.5413,10.0854,143.1628,0.1707,-0.2461,0.9129,0.2773,5.3115,-4.9144,6.7375,0.1831,-0.2441,0.3662,-36.1121,-32.4976,-3.1531,-0.2901,-0.2741,0.0616,0.9148,-9.7713,0.0383,-0.2058,0.4883,-0.061,-0.061,169.8761,88.7585,105.9467,0.478,-0.5312,0.4699,-0.5182,0,0,0,0,0,0,0,0,0,0,0,0,0,0,0,0,0,0,37120,0,0,0,0,0,0,0,0,0,0,0,0,0,0,0,0,0
1777280555.470557,7348,0,0.0,0.0,0.0,0.0,0.0,0.0,0.0,0.0,0.0,0.0,0.0,0.0,0.0,0.0,0.0,0.0,0.0,0.0,0.0,0.0,0.0,0.0,0.0,0.0,0.0,0.0,0.0,718.1177978515625,586.4278564453125,1118.151611328125,967.1021728515625,620.9027709960938,1114.778076171875,773.5466918945312,406.9820861816406,1139.3280029296875,935.9241943359375,409.20849609375,1138.0623779296875,669.9811401367188,520.5796508789062,854.2445678710938,715.1162719726562,589.2640991210938,600.5381469726562,704.1151733398438,562.0813598632812,425.5794982910156,736.7551879882812,576.595947265625,230.35630798339844,802.05810546875,486.88775634765625,155.6215057373047,757.6126708984375,751.6522216796875,182.10958862304688,1034.746826171875,578.6525268554688,790.1053466796875,999.1837768554688,549.9696655273438,585.4335327148438,1014.7808227539062,446.49261474609375,506.1532897949219,975.0144653320312,280.9754943847656,371.2190856933594,908.4719848632812,193.5952911376953,392.2891540527344,954.5314331054688,351.5492858886719,181.03236389160156,1.1054,-1.5169,9.7474,1.0376,-0.1221,-0.5493,-8.844,-6.3885,134.7253,-0.0809,0.0497,0.9204,0.3792,5.4551,-8.1108,0.0574,0.3052,-0.4272,-0.1221,-89.6155,-33.8654,-9.2999,-0.6552,-0.2606,0.1496,0.6931,7.3356,-4.5315,4.766,-0.2441,-0.1831,0.4883,-43.5718,-48.0981,148.3649,-0.4565,0.2229,0.8571,0.0856,0.3637,0.5838,-9.4507,-0.6104,-0.3052,0.2441,176.4624,-2.2192,50.6635,0.903,-0.4281,-0.0043,0.0362,-1.7274,5.3689,8.1061,0.6104,-0.5493,-0.5493,33.5413,10.0854,143.1628,0.1707,-0.2461,0.9129,0.2773,5.3067,-4.9096,6.7279,0.1831,-0.1831,0.3662,-36.1121,-32.4976,-3.1531,-0.2901,-0.2741,0.0616,0.9148,-9.7809,0.0383,-0.2058,0.4883,0.0,-0.061,169.8706,88.7585,105.9412,0.478,-0.5312,0.4699,-0.5182,0,0,0,0,0,0,0,0,0,0,0,0,0,0,0,0,0,0,37120,0,0,0,0,0,0,0,0,0,0,0,0,0,0,0,0,0
1777280555.4965882,7351,0,0.0,0.0,0.0,0.0,0.0,0.0,0.0,0.0,0.0,0.0,0.0,0.0,0.0,0.0,0.0,0.0,0.0,0.0,0.0,0.0,0.0,0.0,0.0,0.0,0.0,0.0,0.0,716.1461181640625,585.5422973632812,1120.70947265625,965.1022338867188,619.039306640625,1118.515380859375,770.6749267578125,406.2849426269531,1141.9522705078125,932.86376953125,407.53631591796875,1141.197998046875,668.2255859375,515.244873046875,855.0220947265625,715.5386962890625,577.731689453125,600.2782592773438,704.9219360351562,546.6280517578125,426.2810363769531,738.1401977539062,555.325927734375,231.12753295898438,802.8387451171875,464.2530517578125,156.4993896484375,758.2447509765625,729.2509155273438,181.64218139648438,1033.7176513671875,588.1964721679688,799.1401977539062,998.9491577148438,575.4584350585938,594.8139038085938,1013.177001953125,473.2015380859375,515.6170654296875,972.0902709960938,308.9283752441406,379.05816650390625,899.9097900390625,219.20570373535156,389.4223327636719,965.4861450195312,389.8462829589844,195.65284729003906,1.1054,-1.5169,9.7474,1.0376,-0.1221,-0.5493,-8.844,-6.3885,134.7253,-0.0809,0.0497,0.9204,0.3792,5.4503,-8.1204,0.0574,0.3052,-0.4272,-0.1221,-89.6155,-33.8654,-9.2999,-0.6552,-0.2606,0.1496,0.6931,7.3356,-4.5363,4.7612,-0.1831,-0.2441,0.4272,-43.5718,-48.0981,148.3649,-0.4565,0.2229,0.8571,0.0856,0.3637,0.5886,-9.4603,-0.5493,-0.3662,0.3052,176.4624,-2.2192,50.6744,0.9029,-0.4282,-0.0043,0.0362,-1.7322,5.3737,8.1013,0.6104,-0.5493,-0.6104,33.5413,10.0854,143.1628,0.1707,-0.2461,0.9129,0.2773,5.3067,-4.9096,6.7279,0.1831,-0.1831,0.3662,-36.1121,-32.4976,-3.1531,-0.2901,-0.2741,0.0616,0.9148,-9.7809,0.0383,-0.2058,0.4883,0.0,-0.061,169.8706,88.7585,105.9412,0.478,-0.5312,0.4699,-0.5182,0,0,0,0,0,0,0,0,0,0,0,0,0,0,0,0,0,0,36864,0,0,0,0,0,0,0,0,0,0,0,0,0,0,0,0,0
1777280555.5156798,7353,0,0.0,0.0,0.0,0.0,0.0,0.0,0.0,0.0,0.0,0.0,0.0,0.0,0.0,0.0,0.0,0.0,0.0,0.0,0.0,0.0,0.0,0.0,0.0,0.0,0.0,0.0,0.0,715.10302734375,584.4827880859375,1122.18603515625,964.0582275390625,617.4175415039062,1120.9302978515625,769.1187133789062,405.3336486816406,1143.51220703125,931.15478515625,406.0026550292969,1143.2479248046875,667.46728515625,511.48822021484375,855.4140625,716.1112060546875,569.83056640625,600.1160888671875,705.6668701171875,536.1748046875,426.8117980957031,739.1197509765625,540.9509887695312,231.72706604003906,803.5056762695312,448.9967346191406,157.0143585205078,758.7601318359375,714.0753784179688,181.36839294433594,1033.1121826171875,593.8506469726562,805.7692260742188,998.4216918945312,589.9302368164062,600.7868041992188,1011.6602172851562,489.7589416503906,519.4512329101562,969.776123046875,329.31170654296875,378.5019226074219,893.943603515625,238.098876953125,379.04644775390625,972.8551025390625,420.8464660644531,203.09205627441406,1.1054,-1.5169,9.7474,1.0376,-0.1221,-0.5493,-8.844,-6.3885,134.7253,-0.0809,0.0497,0.9204,0.3792,5.4503,-8.1156,0.0622,0.3662,-0.4272,-0.1221,-89.6155,-33.8654,-9.2999,-0.6552,-0.2606,0.1496,0.6931,7.3309,-4.5315,4.7612,-0.2441,-0.3052,0.5493,-43.5718,-48.0981,148.3649,-0.4565,0.2229,0.8571,0.0856,0.3685,0.5838,-9.4555,-0.6104,-0.3662,0.3052,176.4624,-2.2192,50.6964,0.9029,-0.4284,-0.0043,0.0362,-1.7274,5.3737,8.1013,0.5493,-0.5493,-0.5493,33.5413,10.0854,143.1628,0.1707,-0.2461,0.9129,0.2773,5.3115,-4.9096,6.7327,0.1831,-0.2441,0.3662,-36.1121,-32.4976,-3.1531,-0.2901,-0.2741,0.0616,0.9148,-9.7761,0.0383,-0.2058,0.4883,-0.061,-0.061,169.8706,88.7585,105.9412,0.478,-0.5312,0.4699,-0.5182,0,0,0,0,0,0,0,0,0,0,0,0,0,0,0,0,0,0,36864,0,0,0,0,0,0,0,0,0,0,0,0,0,0,0,0,0
1777280555.525743,7353,1,0.0,0.0,0.0,0.0,0.0,0.0,0.0,0.0,0.0,0.0,0.0,0.0,0.0,0.0,0.0,0.0,0.0,0.0,0.0,0.0,0.0,0.0,0.0,0.0,0.0,0.0,0.0,715.10302734375,584.4827880859375,1122.18603515625,964.0582275390625,617.4175415039062,1120.9302978515625,769.1187133789062,405.3336486816406,1143.51220703125,931.15478515625,406.0026550292969,1143.2479248046875,667.46728515625,511.48822021484375,855.4140625,716.1112060546875,569.83056640625,600.1160888671875,705.6668701171875,536.1748046875,426.8117980957031,739.1197509765625,540.9509887695312,231.72706604003906,803.5056762695312,448.9967346191406,157.0143585205078,758.7601318359375,714.0753784179688,181.36839294433594,1033.1121826171875,593.8506469726562,805.7692260742188,998.4216918945312,589.9302368164062,600.7868041992188,1011.6602172851562,489.7589416503906,519.4512329101562,969.776123046875,329.31170654296875,378.5019226074219,893.943603515625,238.098876953125,379.04644775390625,972.8551025390625,420.8464660644531,203.09205627441406,1.1054,-1.5169,9.7474,1.0376,-0.1221,-0.5493,-8.844,-6.3885,134.7253,-0.0809,0.0497,0.9204,0.3792,5.4503,-8.1156,0.0622,0.3662,-0.4272,-0.1221,-89.6155,-33.8654,-9.2999,-0.6552,-0.2606,0.1496,0.6931,7.3309,-4.5315,4.7612,-0.2441,-0.3052,0.5493,-43.5718,-48.0981,148.3649,-0.4565,0.2229,0.8571,0.0856,0.3685,0.5838,-9.4555,-0.6104,-0.3662,0.3052,176.4624,-2.2192,50.6964,0.9029,-0.4284,-0.0043,0.0362,-1.7274,5.3737,8.1013,0.5493,-0.5493,-0.5493,33.5413,10.0854,143.1628,0.1707,-0.2461,0.9129,0.2773,5.3115,-4.9096,6.7327,0.1831,-0.2441,0.3662,-36.1121,-32.4976,-3.1531,-0.2901,-0.2741,0.0616,0.9148,-9.7761,0.0383,-0.2058,0.4883,-0.061,-0.061,169.8706,88.7585,105.9412,0.478,-0.5312,0.4699,-0.5182,0,0,0,0,0,0,0,0,0,0,0,0,0,0,0,0,0,0,26624,0,0,0,0,0,0,0,0,0,0,0,0,0,0,0,0,0
1777280555.5477195,7356,0,0.0,0.0,0.0,0.0,0.0,0.0,0.0,0.0,0.0,0.0,0.0,0.0,0.0,0.0,0.0,0.0,0.0,0.0,0.0,0.0,0.0,0.0,0.0,0.0,0.0,0.0,0.0,713.8724975585938,582.3816528320312,1123.835693359375,962.8848266601562,614.5640869140625,1124.08740234375,767.31103515625,403.37750244140625,1145.4783935546875,929.0987548828125,403.2884216308594,1146.0469970703125,666.9117431640625,505.6344299316406,855.6697998046875,717.2656860351562,557.8662719726562,599.7406005859375,707.085205078125,520.1951904296875,427.4748229980469,740.6212158203125,519.2051391601562,232.5764923095703,804.5679931640625,426.15032958984375,157.58177185058594,759.5911865234375,691.196044921875,180.9508819580078,1032.4896240234375,601.2993774414062,815.6398315429688,997.2802124023438,607.9215698242188,608.3784790039062,1009.4430541992188,512.9954223632812,520.8292846679688,966.904296875,362.8233337402344,369.1290588378906,886.815185546875,271.85009765625,354.46826171875,982.0278930664062,472.22900390625,207.88377380371094,1.1006,-1.5217,9.7521,1.0376,-0.1221,-0.6104,-8.844,-6.3885,134.7253,-0.0809,0.0497,0.9204,0.3792,5.4503,-8.1156,0.0622,0.3052,-0.4272,-0.1221,-89.6155,-33.8654,-9.2999,-0.6552,-0.2606,0.1496,0.6931,7.3309,-4.5315,4.766,-0.2441,-0.2441,0.5493,-43.5718,-48.0981,148.3649,-0.4565,0.2229,0.8571,0.0856,0.3685,0.5838,-9.4603,-0.6104,-0.3052,0.3052,176.4624,-2.2192,50.7074,0.9028,-0.4285,-0.0043,0.0362,-1.7274,5.3737,8.1013,0.5493,-0.4883,-0.5493,33.5413,10.0854,143.1628,0.1707,-0.2461,0.9129,0.2773,5.3115,-4.9096,6.7279,0.1831,-0.1831,0.4272,-36.1121,-32.4976,-3.1531,-0.2901,-0.2741,0.0616,0.9148,-9.7713,0.0383,-0.2058,0.4883,0.0,0.0,169.8651,88.7585,105.9357,0.4781,-0.5311,0.47,-0.5181,0,0,0,0,0,0,0,0,0,0,0,0,0,0,0,0,0,0,26624,0,0,0,0,0,0,0,0,0,0,0,0,0,0,0,0,0
1777280555.561605,7358,0,0.0,0.0,0.0,0.0,0.0,0.0,0.0,0.0,0.0,0.0,0.0,0.0,0.0,0.0,0.0,0.0,0.0,0.0,0.0,0.0,0.0,0.0,0.0,0.0,0.0,0.0,0.0,713.2578735351562,580.7288208007812,1124.4461669921875,962.3492431640625,612.4723510742188,1125.6973876953125,766.4494018554688,401.8177490234375,1146.5078125,928.0750122070312,401.3240966796875,1147.622314453125,666.9088134765625,501.5552978515625,855.5614624023438,718.131103515625,549.9130859375,599.3277587890625,708.0827026367188,509.4471130371094,427.75384521484375,741.529541015625,504.68206787109375,233.0789794921875,805.1781005859375,411.0740661621094,157.85089111328125,760.0928344726562,675.9962158203125,180.66587829589844,1032.337646484375,605.3938598632812,821.5758666992188,996.4097290039062,617.5617065429688,612.121337890625,1008.2828979492188,527.681396484375,518.8646850585938,965.7792358398438,387.3925476074219,357.9382629394531,883.9942626953125,298.28729248046875,333.60565185546875,986.033447265625,509.17437744140625,207.0393829345703,1.1054,-1.5217,9.7569,1.0376,-0.1221,-0.6104,-8.844,-6.3885,134.7253,-0.0809,0.0497,0.9204,0.3792,5.4455,-8.1108,0.0622,0.3052,-0.5493,-0.1221,-89.6155,-33.8654,-9.2999,-0.6552,-0.2606,0.1496,0.6931,7.3309,-4.5315,4.766,-0.2441,-0.2441,0.5493,-43.5718,-48.0981,148.3649,-0.4565,0.2229,0.8571,0.0856,0.3685,0.5838,-9.4603,-0.6104,-0.3052,0.3052,176.4624,-2.2192,50.7074,0.9028,-0.4285,-0.0043,0.0362,-1.7274,5.3737,8.1013,0.5493,-0.4883,-0.5493,33.5413,10.0854,143.1628,0.1707,-0.2461,0.9129,0.2773,5.3115,-4.9096,6.7279,0.1831,-0.1831,0.4272,-36.1121,-32.4976,-3.1531,-0.2901,-0.2741,0.0616,0.9148,-9.7713,0.0383,-0.2058,0.4883,0.0,0.0,169.8651,88.7585,105.9357,0.4781,-0.5311,0.47,-0.5181,0,0,0,0,0,0,0,0,0,0,0,0,0,0,0,0,0,0,26624,0,0,0,0,0,0,0,0,0,0,0,0,0,0,0,0,0
1777280555.6050744,7359,0,0.0,0.0,0.0,0.0,0.0,0.0,0.0,0.0,0.0,0.0,0.0,0.0,0.0,0.0,0.0,0.0,0.0,0.0,0.0,0.0,0.0,0.0,0.0,0.0,0.0,0.0,0.0,713.0107421875,579.8452758789062,1124.5865478515625,962.1504516601562,611.3977661132812,1126.3194580078125,766.1211547851562,400.9830017089844,1146.93310546875,927.6713256835938,400.325927734375,1148.30126953125,667.0128173828125,499.4537048339844,855.418701171875,718.5748901367188,545.967041015625,599.060546875,708.5684814453125,504.0850830078125,427.84136962890625,741.9354248046875,497.4335632324219,233.3185577392578,805.431640625,403.57891845703125,157.9916229248047,760.3190307617188,668.4337158203125,180.5237579345703,1032.351318359375,607.1106567382812,824.2163696289062,995.9727172851562,621.7052612304688,613.5215454101562,1007.8343505859375,534.858642578125,517.0835571289062,965.4799194335938,400.4265441894531,351.15216064453125,883.1903686523438,312.6477966308594,322.2164611816406,987.3334350585938,528.431396484375,205.7001495361328,1.1054,-1.5169,9.7521,1.0376,-0.061,-0.6104,-8.844,-6.3885,134.7253,-0.0809,0.0497,0.9204,0.3792,5.4455,-8.1108,0.0574,0.3052,-0.4883,-0.1831,-89.6155,-33.8654,-9.2999,-0.6552,-0.2606,0.1496,0.6931,7.3261,-4.5315,4.766,-0.2441,-0.2441,0.4272,-43.5718,-48.0981,148.3649,-0.4565,0.2229,0.8571,0.0856,0.3732,0.579,-9.4603,-0.6104,-0.3662,0.3052,176.4624,-2.2192,50.7184,0.9028,-0.4285,-0.0043,0.0362,-1.7274,5.3737,8.1013,0.5493,-0.5493,-0.6104,33.5413,10.0854,143.1628,0.1707,-0.2461,0.9129,0.2773,5.3115,-4.9096,6.7279,0.1831,-0.2441,0.3662,-36.1121,-32.4976,-3.1531,-0.2901,-0.2741,0.0616,0.9148,-9.7761,0.0335,-0.2105,0.4883,0.0,0.0,169.8651,88.7585,105.9357,0.4781,-0.5311,0.47,-0.5181,0,0,0,0,0,0,0,0,0,0,0,0,0,0,0,0,0,0,0,0,0,0,0,0,0,0,0,0,0,0,0,0,0,0,0,0
1777280555.6221938,7362,0,0.0,0.0,0.0,0.0,0.0,0.0,0.0,0.0,0.0,0.0,0.0,0.0,0.0,0.0,0.0,0.0,0.0,0.0,0.0,0.0,0.0,0.0,0.0,0.0,0.0,0.0,0.0,712.5034790039062,577.0288696289062,1124.3421630859375,961.7969970703125,608.197998046875,1127.4010009765625,765.553955078125,398.3430480957031,1147.8365478515625,926.9157104492188,397.3882141113281,1149.8427734375,667.7135009765625,492.9078369140625,854.6558837890625,719.9364013671875,534.3167724609375,598.0071411132812,709.9756469726562,488.1584777832031,427.94573974609375,742.9710693359375,475.7685546875,234.05287170410156,806.0439453125,381.11273193359375,158.6129150390625,760.92724609375,645.9092407226562,180.09523010253906,1032.765380859375,610.6801147460938,830.44580078125,994.7686767578125,631.4923706054688,615.6438598632812,1007.0389404296875,555.9956665039062,508.9675598144531,965.4557495117188,442.7777099609375,327.4962158203125,882.6162719726562,360.0306396484375,285.87628173828125,988.8479614257812,589.06396484375,199.73471069335938,1.1054,-1.5121,9.7569,0.9766,-0.1831,-0.5493,-8.844,-6.3885,134.7253,-0.0809,0.0497,0.9204,0.3792,5.4503,-8.1156,0.0526,0.3052,-0.4883,-0.1221,-89.6155,-33.8654,-9.2999,-0.6552,-0.2606,0.1496,0.6931,7.3309,-4.5363,4.766,-0.2441,-0.2441,0.4883,-43.5718,-48.0981,148.3649,-0.4565,0.2229,0.8571,0.0856,0.3637,0.5838,-9.4555,-0.5493,-0.3052,0.3052,176.4624,-2.2192,50.7404,0.9027,-0.4287,-0.0043,0.0362,-1.7322,5.3689,8.1013,0.6104,-0.5493,-0.5493,33.5413,10.0854,143.1628,0.1707,-0.2461,0.9129,0.2773,5.3115,-4.9144,6.7327,0.2441,-0.1831,0.3662,-36.1121,-32.4976,-3.1531,-0.2901,-0.2741,0.0616,0.9148,-9.7761,0.0383,-0.2058,0.4883,0.061,-0.061,169.8651,88.7585,105.9357,0.4781,-0.5311,0.47,-0.5181,0,0,0,0,0,0,0,0,0,0,0,0,0,0,0,0,0,0,0,0,0,0,0,0,0,0,0,0,0,0,0,0,0,0,0,0
1777280555.625813,7364,0,0.0,0.0,0.0,0.0,0.0,0.0,0.0,0.0,0.0,0.0,0.0,0.0,0.0,0.0,0.0,0.0,0.0,0.0,0.0,0.0,0.0,0.0,0.0,0.0,0.0,0.0,0.0,712.3497924804688,575.068115234375,1123.6646728515625,961.727783203125,606.214111328125,1127.4844970703125,765.5338745117188,396.5472412109375,1148.115478515625,926.8110961914062,395.5782470703125,1150.4228515625,668.4603881835938,488.39532470703125,853.9024047851562,720.8834228515625,526.7296752929688,597.1135864257812,710.92333984375,477.7019958496094,427.94805908203125,743.5577392578125,461.3761901855469,234.60198974609375,806.438720703125,366.0830383300781,159.22061157226562,761.3103637695312,630.9981689453125,179.79135131835938,1033.3519287109375,611.6156616210938,832.9989624023438,994.13037109375,635.8168334960938,615.25,1006.91259765625,569.8598022460938,501.6995849609375,965.8972778320312,473.75274658203125,310.32049560546875,883.0460205078125,394.9938049316406,261.1248779296875,988.4495849609375,631.3631591796875,195.7950897216797,1.1054,-1.5121,9.7569,0.9766,-0.1831,-0.5493,-8.844,-6.3885,134.7253,-0.0809,0.0497,0.9204,0.3792,5.4503,-8.1156,0.0526,0.3662,-0.4883,-0.1221,-89.6155,-33.8654,-9.2999,-0.6552,-0.2606,0.1496,0.6931,7.3261,-4.5363,4.7612,-0.2441,-0.2441,0.4883,-43.5718,-48.0981,148.3649,-0.4565,0.2229,0.8571,0.0856,0.3685,0.579,-9.4555,-0.6104,-0.3052,0.3052,176.4624,-2.2192,50.7513,0.9027,-0.4288,-0.0043,0.0362,-1.7322,5.3689,8.1013,0.5493,-0.5493,-0.5493,33.5413,10.0854,143.1628,0.1707,-0.2461,0.9129,0.2773,5.3115,-4.9144,6.7327,0.2441,-0.1831,0.3662,-36.1121,-32.4976,-3.1531,-0.2901,-0.2741,0.0616,0.9148,-9.7761,0.0383,-0.2058,0.4883,0.061,-0.061,169.8651,88.7585,105.9357,0.4781,-0.5311,0.47,-0.5181,0,0,0,0,0,0,0,0,0,0,0,0,0,0,0,0,0,0,0,0,0,0,0,0,0,0,0,0,0,0,0,0,0,0,0,0
1777280555.6538212,7367,0,0.0,0.0,0.0,0.0,0.0,0.0,0.0,0.0,0.0,0.0,0.0,0.0,0.0,0.0,0.0,0.0,0.0,0.0,0.0,0.0,0.0,0.0,0.0,0.0,0.0,0.0,0.0,712.3699951171875,572.1475219726562,1122.026611328125,961.8053588867188,603.7269897460938,1126.7852783203125,766.0592651367188,393.98583984375,1148.012451171875,927.2781372070312,393.29132080078125,1150.5709228515625,669.8934326171875,481.6055908203125,852.4868774414062,722.3908081054688,515.60546875,595.557861328125,712.4552612304688,462.2394104003906,427.9566345214844,744.374267578125,439.798583984375,235.56568908691406,807.1322021484375,343.474853515625,160.28460693359375,761.8965454101562,608.697021484375,179.27076721191406,1034.6783447265625,610.9038696289062,834.3048706054688,993.4804077148438,638.978759765625,612.0277709960938,1007.069091796875,590.073486328125,489.1515808105469,966.6618041992188,523.7024536132812,285.1864929199219,883.8329467773438,451.893310546875,225.3018035888672,986.468994140625,696.174560546875,193.40585327148438,1.1006,-1.5121,9.7569,1.0376,-0.061,-0.6104,-8.844,-6.3885,134.7253,-0.0809,0.0497,0.9204,0.3792,5.4503,-8.1156,0.0574,0.2441,-0.5493,-0.1831,-89.6155,-33.8654,-9.2999,-0.6552,-0.2606,0.1496,0.6931,7.3309,-4.5315,4.7612,-0.3052,-0.2441,0.4883,-43.5718,-48.0981,148.3649,-0.4565,0.2229,0.8571,0.0856,0.3685,0.5838,-9.4603,-0.6104,-0.3052,0.3052,176.4624,-2.2192,50.7678,0.9026,-0.4289,-0.0043,0.0362,-1.7322,5.3737,8.0965,0.5493,-0.5493,-0.6104,33.5413,10.0854,143.1628,0.1707,-0.2461,0.9129,0.2773,5.3115,-4.9096,6.7279,0.1831,-0.2441,0.3662,-36.1121,-32.4976,-3.1531,-0.2901,-0.2741,0.0616,0.9148,-9.7761,0.0383,-0.2058,0.4883,0.061,-0.061,169.8651,88.7585,105.9357,0.4781,-0.5311,0.47,-0.5181,0,0,0,0,0,0,0,0,0,0,0,0,0,0,0,0,0,0,0,0,0,0,0,0,0,0,0,0,0,0,0,0,0,0,0,0
1777280555.6660945,7367,1,0.0,0.0,0.0,0.0,0.0,0.0,0.0,0.0,0.0,0.0,0.0,0.0,0.0,0.0,0.0,0.0,0.0,0.0,0.0,0.0,0.0,0.0,0.0,0.0,0.0,0.0,0.0,712.3699951171875,572.1475219726562,1122.026611328125,961.8053588867188,603.7269897460938,1126.7852783203125,766.0592651367188,393.98583984375,1148.012451171875,927.2781372070312,393.29132080078125,1150.5709228515625,669.8934326171875,481.6055908203125,852.4868774414062,722.3908081054688,515.60546875,595.557861328125,712.4552612304688,462.2394104003906,427.9566345214844,744.374267578125,439.798583984375,235.56568908691406,807.1322021484375,343.474853515625,160.28460693359375,761.8965454101562,608.697021484375,179.27076721191406,1034.6783447265625,610.9038696289062,834.3048706054688,993.4804077148438,638.978759765625,612.0277709960938,1007.069091796875,590.073486328125,489.1515808105469,966.6618041992188,523.7024536132812,285.1864929199219,883.8329467773438,451.893310546875,225.3018035888672,986.468994140625,696.174560546875,193.40585327148438,1.1006,-1.5121,9.7569,1.0376,-0.061,-0.6104,-8.844,-6.3885,134.7253,-0.0809,0.0497,0.9204,0.3792,5.4503,-8.1156,0.0574,0.2441,-0.5493,-0.1831,-89.6155,-33.8654,-9.2999,-0.6552,-0.2606,0.1496,0.6931,7.3309,-4.5315,4.7612,-0.3052,-0.2441,0.4883,-43.5718,-48.0981,148.3649,-0.4565,0.2229,0.8571,0.0856,0.3685,0.5838,-9.4603,-0.6104,-0.3052,0.3052,176.4624,-2.2192,50.7678,0.9026,-0.4289,-0.0043,0.0362,-1.7322,5.3737,8.0965,0.5493,-0.5493,-0.6104,33.5413,10.0854,143.1628,0.1707,-0.2461,0.9129,0.2773,5.3115,-4.9096,6.7279,0.1831,-0.2441,0.3662,-36.1121,-32.4976,-3.1531,-0.2901,-0.2741,0.0616,0.9148,-9.7761,0.0383,-0.2058,0.4883,0.061,-0.061,169.8651,88.7585,105.9357,0.4781,-0.5311,0.47,-0.5181,0,0,0,0,0,0,0,0,0,0,0,0,0,0,0,0,0,0,0,0,0,0,0,0,0,0,0,0,0,0,0,0,0,0,0,0
1777280555.6818516,7368,0,0.0,0.0,0.0,0.0,0.0,0.0,0.0,0.0,0.0,0.0,0.0,0.0,0.0,0.0,0.0,0.0,0.0,0.0,0.0,0.0,0.0,0.0,0.0,0.0,0.0,0.0,0.0,712.4403686523438,571.2200317382812,1121.3521728515625,961.8720092773438,603.0776977539062,1126.3681640625,766.384033203125,393.2117614746094,1147.8299560546875,927.6005859375,392.6839904785156,1150.4197998046875,670.4315185546875,479.3927001953125,851.9566650390625,722.9143676757812,511.9542236328125,594.999267578125,713.0028686523438,457.1372985839844,427.9702453613281,744.643310546875,432.5989685058594,235.92491149902344,807.3805541992188,335.9287109375,160.65011596679688,762.095703125,601.2603759765625,179.08299255371094,1035.2294921875,610.1810302734375,834.0843505859375,993.3363647460938,639.167724609375,610.3204345703125,1007.1469116210938,596.5219116210938,484.78955078125,966.8531494140625,540.9647216796875,277.49029541015625,884.0707397460938,471.7987060546875,214.0958251953125,985.4140014648438,717.7508544921875,194.12985229492188,1.1006,-1.5121,9.7569,1.0376,-0.061,-0.6104,-8.844,-6.3885,134.7253,-0.0809,0.0497,0.9204,0.3792,5.4503,-8.1156,0.0574,0.2441,-0.5493,-0.1831,-89.6155,-33.8654,-9.2999,-0.6552,-0.2606,0.1496,0.6931,7.3309,-4.5315,4.7612,-0.3052,-0.2441,0.4883,-43.5718,-48.0981,148.3649,-0.4565,0.2229,0.8571,0.0856,0.3685,0.5838,-9.4603,-0.6104,-0.3052,0.3052,176.4624,-2.2192,50.7678,0.9026,-0.4289,-0.0043,0.0362,-1.7322,5.3737,8.0965,0.5493,-0.5493,-0.6104,33.5413,10.0854,143.1628,0.1707,-0.2461,0.9129,0.2773,5.3115,-4.9096,6.7279,0.1831,-0.2441,0.3662,-36.1121,-32.4976,-3.1531,-0.2901,-0.2741,0.0616,0.9148,-9.7761,0.0383,-0.2058,0.4883,0.061,-0.061,169.8651,88.7585,105.9357,0.4781,-0.5311,0.47,-0.5181,0,0,0,0,0,0,0,0,0,0,0,0,0,0,0,0,0,0,0,0,0,0,0,0,0,0,0,0,0,0,0,0,0,0,0,0
1777280555.6980076,7370,0,0.0,0.0,0.0,0.0,0.0,0.0,0.0,0.0,0.0,0.0,0.0,0.0,0.0,0.0,0.0,0.0,0.0,0.0,0.0,0.0,0.0,0.0,0.0,0.0,0.0,0.0,0.0,712.6790771484375,569.5126953125,1119.8671875,962.0702514648438,602.1124877929688,1125.3094482421875,767.2548828125,391.8580627441406,1147.2279052734375,928.4884033203125,391.7601623535156,1149.8076171875,671.5587768554688,475.1400146484375,850.838134765625,723.976318359375,504.7083435058594,593.8505249023438,714.149658203125,446.99371337890625,428.01715087890625,745.1986694335938,418.1853942871094,236.69158935546875,807.8784790039062,320.8208312988281,161.37986755371094,762.5026245117188,586.3472900390625,178.7129364013672,1036.4654541015625,608.2122192382812,832.7322387695312,993.12255859375,638.3748168945312,606.122802734375,1007.254150390625,608.7250366210938,476.176025390625,967.061279296875,575.6062622070312,263.7658386230469,884.5394897460938,512.2806396484375,193.51715087890625,982.5421752929688,760.0259399414062,198.28465270996094,1.1006,-1.5217,9.7521,1.0376,-0.1221,-0.6104,-8.844,-6.3885,134.7253,-0.0809,0.0497,0.9204,0.3792,5.4407,-8.1156,0.0622,0.3662,-0.4272,-0.1221,-89.6155,-33.8654,-9.2999,-0.6552,-0.2606,0.1496,0.6931,7.3309,-4.5315,4.7612,-0.2441,-0.2441,0.4883,-43.5718,-48.0981,148.3649,-0.4565,0.2229,0.8571,0.0856,0.3685,0.5886,-9.4603,-0.6714,-0.3662,0.3052,176.4624,-2.2192,50.7788,0.9026,-0.429,-0.0043,0.0362,-1.7322,5.3737,8.1013,0.6104,-0.5493,-0.6104,33.5413,10.0854,143.1628,0.1707,-0.2461,0.9129,0.2773,5.3115,-4.9144,6.7327,0.2441,-0.1221,0.3662,-36.1121,-32.5031,-3.1531,-0.2901,-0.2742,0.0616,0.9148,-9.7761,0.0383,-0.2105,0.4272,-0.061,0.0,169.8706,88.7585,105.9412,0.478,-0.5312,0.4699,-0.5182,0,0,0,0,0,0,0,0,0,0,0,0,0,0,0,0,0,0,0,0,0,0,0,0,0,0,0,0,0,0,0,0,0,0,0,0
1777280555.7037697,7372,0,0.0,0.0,0.0,0.0,0.0,0.0,0.0,0.0,0.0,0.0,0.0,0.0,0.0,0.0,0.0,0.0,0.0,0.0,0.0,0.0,0.0,0.0,0.0,0.0,0.0,0.0,0.0,713.0634765625,568.105712890625,1118.2596435546875,962.3792114257812,601.6478271484375,1123.9984130859375,768.4103393554688,390.85113525390625,1146.2962646484375,929.6826782226562,391.2816467285156,1148.7786865234375,672.6990356445312,471.23443603515625,849.6795043945312,725.0266723632812,497.4939880371094,592.6962890625,715.3482666015625,436.8923034667969,428.0972595214844,745.8075561523438,403.761962890625,237.50929260253906,808.3755493164062,305.684814453125,162.11473083496094,762.9329223632812,571.3416748046875,178.38613891601562,1037.82421875,605.855712890625,830.294921875,992.96484375,636.3078002929688,601.1204223632812,1007.2371826171875,619.7208251953125,468.05828857421875,966.9884033203125,609.1419677734375,252.7255859375,885.001220703125,552.2291259765625,176.39857482910156,978.53759765625,799.83056640625,205.78684997558594,1.1054,-1.5169,9.7569,0.9766,-0.061,-0.5493,-8.844,-6.3885,134.7253,-0.0809,0.0497,0.9204,0.3792,5.4455,-8.1108,0.0622,0.3052,-0.4883,-0.1831,-89.6155,-33.8654,-9.2999,-0.6552,-0.2606,0.1496,0.6931,7.3309,-4.5315,4.766,-0.2441,-0.2441,0.5493,-43.5718,-48.0981,148.3649,-0.4565,0.2229,0.8571,0.0856,0.3637,0.5838,-9.4555,-0.6104,-0.3662,0.3052,176.4624,-2.2192,50.7898,0.9025,-0.4291,-0.0043,0.0362,-1.7274,5.3737,8.1013,0.6104,-0.5493,-0.6104,33.5413,10.0854,143.1628,0.1707,-0.2461,0.9129,0.2773,5.3067,-4.9048,6.7279,0.1831,-0.3052,0.3662,-36.1121,-32.5031,-3.1531,-0.2901,-0.2742,0.0616,0.9148,-9.7761,0.0335,-0.2105,0.4883,-0.061,-0.061,169.8706,88.7585,105.9412,0.478,-0.5312,0.4699,-0.5182,0,0,0,0,0,0,0,0,0,0,0,0,0,0,0,0,0,0,0,0,0,0,0,0,0,0,0,0,0,0,0,0,0,0,0,0
1777280555.7331655,7374,0,0.0,0.0,0.0,0.0,0.0,0.0,0.0,0.0,0.0,0.0,0.0,0.0,0.0,0.0,0.0,0.0,0.0,0.0,0.0,0.0,0.0,0.0,0.0,0.0,0.0,0.0,0.0,713.6266479492188,567.1314697265625,1116.5921630859375,962.8484497070312,601.7327880859375,1122.4786376953125,769.8297119140625,390.2932434082031,1145.02734375,931.154052734375,391.3045654296875,1147.342041015625,673.7743530273438,467.8160705566406,848.5296020507812,726.024658203125,490.2566833496094,591.586181640625,716.5669555664062,426.7684631347656,428.2349853515625,746.5072021484375,389.3525695800781,238.36672973632812,808.8958129882812,290.521484375,162.8726806640625,763.3931884765625,556.2223510742188,178.1300811767578,1039.2149658203125,603.53955078125,826.9778442382812,992.823486328125,633.4589233398438,595.6350708007812,1007.0641479492188,629.22119140625,460.73046875,966.5724487304688,639.767822265625,244.52877807617188,885.353759765625,589.2429809570312,163.8059844970703,973.44677734375,835.2828369140625,215.518310546875,1.1006,-1.5169,9.7521,1.0376,-0.1221,-0.6104,-8.844,-6.3885,134.7253,-0.0809,0.0497,0.9204,0.3792,5.4503,-8.1108,0.0574,0.3662,-0.4272,-0.1221,-89.6155,-33.8654,-9.2999,-0.6552,-0.2606,0.1496,0.6931,7.3309,-4.5411,4.766,-0.2441,-0.1831,0.5493,-43.5718,-48.0981,148.3649,-0.4565,0.2229,0.8571,0.0856,0.3685,0.5838,-9.4603,-0.6104,-0.3662,0.3052,176.4624,-2.2192,50.8118,0.9024,-0.4293,-0.0042,0.0362,-1.7322,5.3737,8.1013,0.6104,-0.5493,-0.6104,33.5413,10.0854,143.1628,0.1707,-0.2461,0.9129,0.2773,5.3067,-4.9048,6.7279,0.1831,-0.3052,0.3662,-36.1121,-32.5031,-3.1531,-0.2901,-0.2742,0.0616,0.9148,-9.7761,0.0335,-0.2105,0.4883,-0.061,-0.061,169.8706,88.7585,105.9412,0.478,-0.5312,0.4699,-0.5182,0,0,0,0,0,0,0,0,0,0,0,0,0,0,0,0,0,0,0,0,0,0,0,0,0,0,0,0,0,0,0,0,0,0,0,0
1777280555.7459931,7375,0,0.0,0.0,0.0,0.0,0.0,0.0,0.0,0.0,0.0,0.0,0.0,0.0,0.0,0.0,0.0,0.0,0.0,0.0,0.0,0.0,0.0,0.0,0.0,0.0,0.0,0.0,0.0,713.9899291992188,566.8473510742188,1115.7535400390625,963.1638793945312,601.99072265625,1121.651611328125,770.6293334960938,390.2115783691406,1144.2685546875,931.9822998046875,391.5162353515625,1146.47998046875,674.2617797851562,466.33135986328125,847.973388671875,726.4940795898438,486.6180725097656,591.0641479492188,717.1720581054688,421.6779479980469,428.33880615234375,746.9000244140625,382.1636047363281,238.81028747558594,809.177001953125,282.93414306640625,163.26638793945312,763.6304321289062,548.6265869140625,178.03016662597656,1039.886962890625,602.5368041992188,825.068603515625,992.751708984375,631.9268798828125,592.81640625,1006.9165649414062,633.33740234375,457.41119384765625,966.208984375,653.389404296875,241.40769958496094,885.437744140625,605.7528686523438,159.33758544921875,970.5599975585938,850.7501831054688,220.65377807617188,1.1006,-1.5169,9.7521,1.0376,-0.1221,-0.6104,-8.844,-6.3885,134.7253,-0.0809,0.0497,0.9204,0.3792,5.4503,-8.1108,0.0574,0.3662,-0.4272,-0.1221,-89.6155,-33.8654,-9.2999,-0.6552,-0.2606,0.1496,0.6931,7.3309,-4.5411,4.766,-0.2441,-0.1831,0.5493,-43.5718,-48.0981,148.3649,-0.4565,0.2229,0.8571,0.0856,0.3685,0.5838,-9.4603,-0.6104,-0.3662,0.3052,176.4624,-2.2192,50.8118,0.9024,-0.4293,-0.0042,0.0362,-1.7322,5.3737,8.1013,0.6104,-0.5493,-0.6104,33.5413,10.0854,143.1628,0.1707,-0.2461,0.9129,0.2773,5.3115,-4.9096,6.7279,0.1831,-0.2441,0.4272,-36.1121,-32.5031,-3.1531,-0.2901,-0.2742,0.0616,0.9148,-9.7761,0.0383,-0.2105,0.4883,0.0,-0.061,169.8761,88.7585,105.9467,0.478,-0.5312,0.4699,-0.5182,0,0,0,0,0,0,0,0,0,0,0,0,0,0,0,0,0,0,0,0,0,0,0,0,0,0,0,0,0,0,0,0,0,0,0,0
1777280555.7611787,7376,0,0.0,0.0,0.0,0.0,0.0,0.0,0.0,0.0,0.0,0.0,0.0,0.0,0.0,0.0,0.0,0.0,0.0,0.0,0.0,0.0,0.0,0.0,0.0,0.0,0.0,0.0,0.0,714.4169921875,566.7184448242188,1114.919921875,963.5458374023438,602.3944091796875,1120.785400390625,771.4832153320312,390.2744140625,1143.4306640625,932.865478515625,391.86480712890625,1145.5306396484375,674.703369140625,465.01666259765625,847.4373779296875,726.9418334960938,482.9667663574219,590.5726318359375,717.7687377929688,416.56121826171875,428.47528076171875,747.32421875,374.99114990234375,239.26644897460938,809.4793090820312,275.34661865234375,163.67327880859375,763.8671875,541.0153198242188,177.94686889648438,1040.5225830078125,601.7088623046875,823.0404663085938,992.6769409179688,630.42529296875,590.001953125,1006.7267456054688,636.998291015625,454.32769775390625,965.7265625,665.5814819335938,238.83152770996094,885.4351806640625,620.448486328125,156.01486206054688,967.4967041015625,864.4021606445312,225.5946807861328,1.1054,-1.5121,9.7521,0.9766,-0.1221,-0.6104,-8.844,-6.3885,134.7253,-0.0809,0.0497,0.9204,0.3792,5.4455,-8.1108,0.0574,0.3662,-0.4883,-0.1221,-89.6155,-33.8654,-9.3054,-0.6552,-0.2606,0.1495,0.6931,7.3309,-4.5363,4.7708,-0.2441,-0.1831,0.4883,-43.5718,-48.0981,148.3649,-0.4565,0.2229,0.8571,0.0856,0.3685,0.5838,-9.4603,-0.6104,-0.3662,0.3052,176.4624,-2.2192,50.8118,0.9024,-0.4293,-0.0042,0.0362,-1.7322,5.3737,8.1013,0.6104,-0.5493,-0.6104,33.5413,10.0854,143.1628,0.1707,-0.2461,0.9129,0.2773,5.3115,-4.9096,6.7279,0.1831,-0.2441,0.4272,-36.1121,-32.5031,-3.1531,-0.2901,-0.2742,0.0616,0.9148,-9.7761,0.0383,-0.2105,0.4883,0.0,-0.061,169.8761,88.7585,105.9467,0.478,-0.5312,0.4699,-0.5182,0,0,0,0,0,0,0,0,0,0,0,0,0,0,0,0,0,0,0,0,0,0,0,0,0,0,0,0,0,0,0,0,0,0,0,0
1777280555.7658758,7378,0,0.0,0.0,0.0,0.0,0.0,0.0,0.0,0.0,0.0,0.0,0.0,0.0,0.0,0.0,0.0,0.0,0.0,0.0,0.0,0.0,0.0,0.0,0.0,0.0,0.0,0.0,0.0,715.49267578125,566.9747314453125,1113.292236328125,964.5480346679688,603.6353759765625,1118.9573974609375,773.3336181640625,390.8615417480469,1141.54150390625,934.7755737304688,392.97235107421875,1143.4090576171875,675.424072265625,462.95050048828125,846.44482421875,727.7813110351562,475.6614990234375,589.701904296875,718.9276733398438,406.2490539550781,428.8791198730469,748.26513671875,360.7126770019531,240.2374267578125,810.164306640625,260.18072509765625,164.53953552246094,764.317626953125,525.779052734375,177.81564331054688,1041.622314453125,600.7576904296875,818.7850952148438,992.5146484375,627.7880249023438,584.5350952148438,1006.2113647460938,642.8720092773438,448.8336486816406,964.3821411132812,684.9493408203125,234.8797607421875,885.1420288085938,643.1685180664062,152.2339630126953,961.0223388671875,885.5642700195312,233.6687469482422,1.1054,-1.5121,9.7521,1.0376,-0.061,-0.5493,-8.844,-6.3885,134.7253,-0.0809,0.0497,0.9204,0.3792,5.4455,-8.1108,0.0526,0.3052,-0.4883,-0.1831,-89.6155,-33.8654,-9.3054,-0.6552,-0.2606,0.1495,0.6931,7.3309,-4.5315,4.766,-0.3052,-0.3052,0.4883,-43.5718,-48.0981,148.3649,-0.4565,0.2229,0.8571,0.0856,0.3637,0.5838,-9.4555,-0.6104,-0.3662,0.3662,176.4624,-2.2192,50.8228,0.9024,-0.4294,-0.0042,0.0362,-1.7274,5.3737,8.1013,0.5493,-0.5493,-0.6104,33.5413,10.0854,143.1628,0.1707,-0.2461,0.9129,0.2773,5.3115,-4.9096,6.7279,0.1831,-0.2441,0.4272,-36.1121,-32.5031,-3.1531,-0.2901,-0.2742,0.0616,0.9148,-9.7761,0.0383,-0.2105,0.4883,0.0,-0.061,169.8761,88.7585,105.9467,0.478,-0.5312,0.4699,-0.5182,0,0,0,0,0,0,0,0,0,0,0,0,0,0,0,0,0,0,0,0,0,0,0,0,0,0,0,0,0,0,0,0,0,0,0,0
1777280555.7939653,7380,0,0.0,0.0,0.0,0.0,0.0,0.0,0.0,0.0,0.0,0.0,0.0,0.0,0.0,0.0,0.0,0.0,0.0,0.0,0.0,0.0,0.0,0.0,0.0,0.0,0.0,0.0,0.0,716.9124145507812,567.9707641601562,1111.7578125,965.9274291992188,605.4304809570312,1117.05126953125,775.3387451171875,392.08734130859375,1139.42724609375,936.8421020507812,394.6068420410156,1141.07763671875,675.9220581054688,461.71026611328125,845.5790405273438,728.5913696289062,468.49072265625,589.0035400390625,720.0406494140625,395.884765625,429.5167236328125,749.3081665039062,346.5499267578125,241.3472137451172,810.9614868164062,245.0400848388672,165.51730346679688,764.702392578125,510.5740051269531,177.6956329345703,1042.4029541015625,600.9522094726562,814.5342407226562,992.331787109375,625.9776611328125,579.4957885742188,1005.4970092773438,646.720703125,444.1232604980469,962.5833129882812,696.906494140625,231.78863525390625,884.55517578125,655.69873046875,151.15301513671875,954.442626953125,898.0218505859375,237.413330078125,1.1006,-1.5169,9.7521,1.0376,-0.1221,-0.6104,-8.844,-6.3885,134.7253,-0.0809,0.0497,0.9204,0.3792,5.4455,-8.1156,0.0622,0.3662,-0.5493,-0.1221,-89.6155,-33.8654,-9.3054,-0.6552,-0.2606,0.1495,0.6931,7.3309,-4.5363,4.766,-0.3052,-0.2441,0.4883,-43.5718,-48.0981,148.3649,-0.4565,0.2229,0.8571,0.0856,0.3685,0.579,-9.4555,-0.6104,-0.3052,0.3052,176.4624,-2.2192,50.8337,0.9024,-0.4295,-0.0042,0.0362,-1.7274,5.3737,8.0965,0.6104,-0.5493,-0.6104,33.5413,10.0854,143.1628,0.1707,-0.2461,0.9129,0.2773,5.3067,-4.9096,6.7231,0.1831,-0.2441,0.3662,-36.1121,-32.5031,-3.1531,-0.2901,-0.2742,0.0616,0.9148,-9.7761,0.0431,-0.2105,0.4883,0.0,-0.061,169.8816,88.7585,105.9521,0.4779,-0.5313,0.4698,-0.5183,0,0,0,0,0,0,0,0,0,0,0,0,0,0,0,0,0,0,0,0,0,0,0,0,0,0,0,0,0,0,0,0,0,0,0,0
1777280555.8126187,7382,0,0.0,0.0,0.0,0.0,0.0,0.0,0.0,0.0,0.0,0.0,0.0,0.0,0.0,0.0,0.0,0.0,0.0,0.0,0.0,0.0,0.0,0.0,0.0,0.0,0.0,0.0,0.0,718.7244873046875,569.7236938476562,1110.3704833984375,967.7384033203125,607.7222900390625,1115.1534423828125,777.4559326171875,393.9398193359375,1137.1893310546875,939.0252075195312,396.7153625488281,1138.67041015625,676.2525024414062,461.3678283691406,844.847412109375,729.4619750976562,461.7527160644531,588.4812622070312,721.1253051757812,385.63128662109375,430.4608459472656,750.396484375,332.5473937988281,242.71060180664062,811.8251342773438,229.94680786132812,166.72975158691406,764.9979858398438,495.4368591308594,177.5370330810547,1042.7991943359375,602.3678588867188,810.5973510742188,992.137939453125,625.1880493164062,575.0799560546875,1004.5888061523438,648.5458984375,440.0500183105469,960.538330078125,701.4564208984375,228.89004516601562,883.9371948242188,657.98583984375,151.67684936523438,948.29052734375,902.23681640625,235.28977966308594,1.1006,-1.5169,9.7521,1.0376,-0.1221,-0.6104,-8.844,-6.3885,134.7253,-0.0809,0.0497,0.9204,0.3792,5.4455,-8.1156,0.0622,0.3662,-0.5493,-0.1221,-89.6155,-33.8654,-9.3054,-0.6552,-0.2606,0.1495,0.6931,7.3309,-4.5363,4.766,-0.3052,-0.2441,0.4883,-43.5718,-48.0981,148.3649,-0.4565,0.2229,0.8571,0.0856,0.3685,0.579,-9.4555,-0.6104,-0.3052,0.3052,176.4624,-2.2192,50.8337,0.9024,-0.4295,-0.0042,0.0362,-1.7274,5.3689,8.1013,0.5493,-0.5493,-0.5493,33.5413,10.0854,143.1628,0.1707,-0.2461,0.9129,0.2773,5.3067,-4.9096,6.7231,0.1831,-0.2441,0.3662,-36.1121,-32.5031,-3.1531,-0.2901,-0.2742,0.0616,0.9148,-9.7761,0.0431,-0.2105,0.4883,0.0,-0.061,169.8816,88.7585,105.9521,0.4779,-0.5313,0.4698,-0.5183,0,0,0,0,0,0,0,0,0,0,0,0,0,0,0,0,0,0,0,0,0,0,0,0,0,0,0,0,0,0,0,0,0,0,0,0
1777280555.8263617,7383,0,0.0,0.0,0.0,0.0,0.0,0.0,0.0,0.0,0.0,0.0,0.0,0.0,0.0,0.0,0.0,0.0,0.0,0.0,0.0,0.0,0.0,0.0,0.0,0.0,0.0,0.0,0.0,719.786865234375,570.8713989257812,1109.751220703125,968.8145141601562,609.0269775390625,1114.2445068359375,778.5444946289062,395.08294677734375,1136.0640869140625,940.149658203125,397.9219055175781,1137.4873046875,676.3932495117188,461.5509033203125,844.5286865234375,729.9534912109375,458.6836242675781,588.2798461914062,721.6642456054688,380.6354675292969,431.0711669921875,750.9307861328125,325.6315612792969,243.5384979248047,812.249755859375,222.4330291748047,167.5039825439453,765.1109619140625,487.9002990722656,177.4308319091797,1042.853515625,603.4971923828125,808.8310546875,992.0494384765625,625.1697387695312,573.1522827148438,1004.0847778320312,648.756103515625,438.2261962890625,959.5255737304688,701.2413940429688,227.42359924316406,883.7030639648438,655.7997436523438,152.326416015625,945.559326171875,901.7164916992188,231.97921752929688,1.1006,-1.5169,9.7569,1.0376,-0.1221,-0.5493,-8.844,-6.3885,134.7253,-0.0809,0.0497,0.9204,0.3792,5.4503,-8.1156,0.0574,0.3052,-0.4272,-0.1221,-89.6155,-33.8654,-9.3054,-0.6552,-0.2606,0.1495,0.6931,7.3356,-4.5363,4.766,-0.1831,-0.1831,0.4883,-43.5718,-48.0981,148.3649,-0.4565,0.2229,0.8571,0.0856,0.3637,0.5838,-9.4507,-0.6104,-0.3662,0.3052,176.4624,-2.2192,50.8447,0.9023,-0.4295,-0.0042,0.0362,-1.7274,5.3689,8.1013,0.5493,-0.5493,-0.6104,33.5413,10.0854,143.1628,0.1707,-0.2461,0.9129,0.2773,5.3115,-4.9096,6.7327,0.2441,-0.1831,0.3662,-36.1121,-32.5031,-3.1531,-0.2901,-0.2742,0.0616,0.9148,-9.7761,0.0335,-0.201,0.4883,0.0,-0.061,169.8761,88.7585,105.9467,0.478,-0.5312,0.4699,-0.5182,0,0,0,0,0,0,0,0,0,0,0,0,0,0,0,0,0,0,0,0,0,0,0,0,0,0,0,0,0,0,0,0,0,0,0,0
1777280555.8436232,7385,0,0.0,0.0,0.0,0.0,0.0,0.0,0.0,0.0,0.0,0.0,0.0,0.0,0.0,0.0,0.0,0.0,0.0,0.0,0.0,0.0,0.0,0.0,0.0,0.0,0.0,0.0,0.0,722.2257080078125,573.6442260742188,1108.70556640625,971.3043823242188,611.8809814453125,1112.597412109375,780.7626953125,397.7361755371094,1133.8914794921875,942.447265625,400.57293701171875,1135.2659912109375,676.7376708984375,462.65179443359375,843.9711303710938,731.1051025390625,453.5010986328125,587.9714965820312,722.742919921875,371.1702575683594,432.6203308105469,751.9151000976562,312.0662536621094,245.62252807617188,812.9998168945312,207.5312957763672,169.6551971435547,765.2747192382812,472.90533447265625,177.16285705566406,1042.730712890625,606.4144897460938,805.833984375,991.9409790039062,625.7651977539062,569.9321899414062,1003.0878295898438,648.0147094726562,435.0236511230469,957.7408447265625,696.8746337890625,224.52244567871094,883.4922485351562,646.609375,154.1573486328125,941.0781860351562,896.7437744140625,221.82223510742188,1.1054,-1.5217,9.7617,0.9766,-0.1221,-0.5493,-8.844,-6.3885,134.7253,-0.0809,0.0497,0.9204,0.3792,5.4455,-8.1156,0.0574,0.3662,-0.4883,-0.1221,-89.6155,-33.8654,-9.3054,-0.6552,-0.2606,0.1495,0.6931,7.3309,-4.5315,4.7612,-0.2441,-0.2441,0.4883,-43.5718,-48.0981,148.3649,-0.4565,0.2229,0.8571,0.0856,0.3637,0.5838,-9.4555,-0.6104,-0.3662,0.3052,176.4624,-2.2192,50.8667,0.9022,-0.4297,-0.0042,0.0362,-1.7274,5.3737,8.0917,0.5493,-0.5493,-0.5493,33.5413,10.0854,143.1628,0.1707,-0.2461,0.9129,0.2773,5.3067,-4.9048,6.7231,0.2441,-0.1831,0.4272,-36.1121,-32.5031,-3.1531,-0.2901,-0.2742,0.0616,0.9148,-9.7761,0.0383,-0.2058,0.4883,-0.061,-0.061,169.8761,88.7585,105.9467,0.478,-0.5312,0.4699,-0.5182,0,0,0,0,0,0,0,0,0,0,0,0,0,0,0,0,0,0,0,0,0,0,0,0,0,0,0,0,0,0,0,0,0,0,0,0
