Timestamp,Vicon_Frame_Num,Vicon_Recv_Timestamp,IMU_Recv_Timestamp,Planter_Recv_Timestamp,Vicon_Gap_Flag,Vicon_Gap_Size,IMU_Stale_ms,Planter_Stale_ms,IMU_Matched_Flag,Planter_Matched_Flag,Vicon_Root_X,Vicon_Root_Y,Vicon_Root_Z,Vicon_L_Femur_X,Vicon_L_Femur_Y,Vicon_L_Femur_Z,Vicon_L_Tibia_X,Vicon_L_Tibia_Y,Vicon_L_Tibia_Z,Vicon_L_Foot_X,Vicon_L_Foot_Y,Vicon_L_Foot_Z,Vicon_L_Toe_X,Vicon_L_Toe_Y,Vicon_L_Toe_Z,Vicon_R_Femur_X,Vicon_R_Femur_Y,Vicon_R_Femur_Z,Vicon_R_Tibia_X,Vicon_R_Tibia_Y,Vicon_R_Tibia_Z,Vicon_R_Foot_X,Vicon_R_Foot_Y,Vicon_R_Foot_Z,Vicon_R_Toe_X,Vicon_R_Toe_Y,Vicon_R_Toe_Z,Vicon_LASI_X,Vicon_LASI_Y,Vicon_LASI_Z,Vicon_RASI_X,Vicon_RASI_Y,Vicon_RASI_Z,Vicon_LPSI_X,Vicon_LPSI_Y,Vicon_LPSI_Z,Vicon_RPSI_X,Vicon_RPSI_Y,Vicon_RPSI_Z,Vicon_LTHI_X,Vicon_LTHI_Y,Vicon_LTHI_Z,Vicon_LKNE_X,Vicon_LKNE_Y,Vicon_LKNE_Z,Vicon_LTIB_X,Vicon_LTIB_Y,Vicon_LTIB_Z,Vicon_LANK_X,Vicon_LANK_Y,Vicon_LANK_Z,Vicon_LHEE_X,Vicon_LHEE_Y,Vicon_LHEE_Z,Vicon_LTOE_X,Vicon_LTOE_Y,Vicon_LTOE_Z,Vicon_RTHI_X,Vicon_RTHI_Y,Vicon_RTHI_Z,Vicon_RKNE_X,Vicon_RKNE_Y,Vicon_RKNE_Z,Vicon_RTIB_X,Vicon_RTIB_Y,Vicon_RTIB_Z,Vicon_RANK_X,Vicon_RANK_Y,Vicon_RANK_Z,Vicon_RHEE_X,Vicon_RHEE_Y,Vicon_RHEE_Z,Vicon_RTOE_X,Vicon_RTOE_Y,Vicon_RTOE_Z,IMU_Trunk_Acc_X,IMU_Trunk_Acc_Y,IMU_Trunk_Acc_Z,IMU_Trunk_Gyro_X,IMU_Trunk_Gyro_Y,IMU_Trunk_Gyro_Z,IMU_Trunk_Roll,IMU_Trunk_Pitch,IMU_Trunk_Yaw,IMU_Trunk_Quat_x,IMU_Trunk_Quat_y,IMU_Trunk_Quat_z,IMU_Trunk_Quat_w,IMU_L_Femur_Acc_X,IMU_L_Femur_Acc_Y,IMU_L_Femur_Acc_Z,IMU_L_Femur_Gyro_X,IMU_L_Femur_Gyro_Y,IMU_L_Femur_Gyro_Z,IMU_L_Femur_Roll,IMU_L_Femur_Pitch,IMU_L_Femur_Yaw,IMU_L_Femur_Quat_x,IMU_L_Femur_Quat_y,IMU_L_Femur_Quat_z,IMU_L_Femur_Quat_w,IMU_L_Tibia_Acc_X,IMU_L_Tibia_Acc_Y,IMU_L_Tibia_Acc_Z,IMU_L_Tibia_Gyro_X,IMU_L_Tibia_Gyro_Y,IMU_L_Tibia_Gyro_Z,IMU_L_Tibia_Roll,IMU_L_Tibia_Pitch,IMU_L_Tibia_Yaw,IMU_L_Tibia_Quat_x,IMU_L_Tibia_Quat_y,IMU_L_Tibia_Quat_z,IMU_L_Tibia_Quat_w,IMU_L_Foot_Acc_X,IMU_L_Foot_Acc_Y,IMU_L_Foot_Acc_Z,IMU_L_Foot_Gyro_X,IMU_L_Foot_Gyro_Y,IMU_L_Foot_Gyro_Z,IMU_L_Foot_Roll,IMU_L_Foot_Pitch,IMU_L_Foot_Yaw,IMU_L_Foot_Quat_x,IMU_L_Foot_Quat_y,IMU_L_Foot_Quat_z,IMU_L_Foot_Quat_w,IMU_R_Femur_Acc_X,IMU_R_Femur_Acc_Y,IMU_R_Femur_Acc_Z,IMU_R_Femur_Gyro_X,IMU_R_Femur_Gyro_Y,IMU_R_Femur_Gyro_Z,IMU_R_Femur_Roll,IMU_R_Femur_Pitch,IMU_R_Femur_Yaw,IMU_R_Femur_Quat_x,IMU_R_Femur_Quat_y,IMU_R_Femur_Quat_z,IMU_R_Femur_Quat_w,IMU_R_Tibia_Acc_X,IMU_R_Tibia_Acc_Y,IMU_R_Tibia_Acc_Z,IMU_R_Tibia_Gyro_X,IMU_R_Tibia_Gyro_Y,IMU_R_Tibia_Gyro_Z,IMU_R_Tibia_Roll,IMU_R_Tibia_Pitch,IMU_R_Tibia_Yaw,IMU_R_Tibia_Quat_x,IMU_R_Tibia_Quat_y,IMU_R_Tibia_Quat_z,IMU_R_Tibia_Quat_w,IMU_R_Foot_Acc_X,IMU_R_Foot_Acc_Y,IMU_R_Foot_Acc_Z,IMU_R_Foot_Gyro_X,IMU_R_Foot_Gyro_Y,IMU_R_Foot_Gyro_Z,IMU_R_Foot_Roll,IMU_R_Foot_Pitch,IMU_R_Foot_Yaw,IMU_R_Foot_Quat_x,IMU_R_Foot_Quat_y,IMU_R_Foot_Quat_z,IMU_R_Foot_Quat_w,Planter_Left_0,Planter_Left_1,Planter_Left_2,Planter_Left_3,Planter_Left_4,Planter_Left_5,Planter_Left_6,Planter_Left_7,Planter_Left_8,Planter_Left_9,Planter_Left_10,Planter_Left_11,Planter_Left_12,Planter_Left_13,Planter_Left_14,Planter_Left_15,Planter_Left_16,Planter_Left_17,Planter_Right_0,Planter_Right_1,Planter_Right_2,Planter_Right_3,Planter_Right_4,Planter_Right_5,Planter_Right_6,Planter_Right_7,Planter_Right_8,Planter_Right_9,Planter_Right_10,Planter_Right_11,Planter_Right_12,Planter_Right_13,Planter_Right_14,Planter_Right_15,Planter_Right_16,Planter_Right_17
1777288144.5535445,228640,1777288139.5362778,1777288142.922286,1777288140.7129178,0,0,-3386.0082626342773,-1176.6400337219238,1,1,0.0,0.0,0.0,0.0,0.0,0.0,0.0,0.0,0.0,0.0,0.0,0.0,0.0,0.0,0.0,0.0,0.0,0.0,0.0,0.0,0.0,0.0,0.0,0.0,0.0,0.0,0.0,0.0,0.0,0.0,0.0,0.0,0.0,0.0,0.0,0.0,0.0,0.0,0.0,0.0,0.0,0.0,0.0,0.0,0.0,0.0,0.0,0.0,0.0,0.0,0.0,0.0,0.0,0.0,0.0,0.0,0.0,0.0,0.0,0.0,0.0,0.0,0.0,0.0,0.0,0.0,0.0,0.0,0.0,0.0,0.0,0.0,0.0,0.0,0.0,-0.8853,8.709,1.9045,8.4229,15.5029,-0.1831,82.3425,0.2802,-22.1649,0.6457,0.1283,-0.1431,0.739,-1.0767,9.4985,-1.8375,45.0439,20.813,6.4697,102.9364,0.0714,-21.5881,0.7683,0.1469,-0.1162,0.612,-0.7704,9.7521,-1.8471,28.0151,7.9346,3.479,105.0897,-6.1853,-15.5621,0.7898,0.0748,-0.1246,0.5959,-0.8374,0.4929,9.8431,7.4463,4.2725,2.5635,4.7516,5.4163,-95.9052,-0.0073,0.0624,-0.7398,0.6699,0.3972,7.7759,-0.9522,-62.1948,15.9302,-2.3804,82.4908,-0.9338,-22.6868,0.6476,0.1237,-0.1532,0.7361,0.8278,7.0916,-6.8715,-206.4819,-36.2549,-51.1475,122.3657,-9.6844,-22.8241,0.8638,0.1329,-0.1675,0.4562,0.1675,1.9284,12.3983,-206.7871,-33.9966,-2.0752,24.0326,-4.3451,-96.3501,0.1664,0.1303,-0.7336,0.6459,0,0,0,0,0,0,0,0,0,0,0,0,0,0,0,0,0,0,0,0,0,0,0,0,0,0,0,0,0,0,0,0,0,0,0,0
1777288144.5535445,228641,1777288139.5432708,1777288142.922286,1777288140.7129178,0,0,-3379.0152072906494,-1169.646978378296,1,1,0.0,0.0,0.0,0.0,0.0,0.0,0.0,0.0,0.0,0.0,0.0,0.0,0.0,0.0,0.0,0.0,0.0,0.0,0.0,0.0,0.0,0.0,0.0,0.0,0.0,0.0,0.0,0.0,0.0,0.0,0.0,0.0,0.0,0.0,0.0,0.0,0.0,0.0,0.0,0.0,0.0,0.0,0.0,0.0,0.0,0.0,0.0,0.0,0.0,0.0,0.0,0.0,0.0,0.0,0.0,0.0,0.0,0.0,0.0,0.0,0.0,0.0,0.0,0.0,0.0,0.0,0.0,0.0,0.0,0.0,0.0,0.0,0.0,0.0,0.0,-0.8853,8.709,1.9045,8.4229,15.5029,-0.1831,82.3425,0.2802,-22.1649,0.6457,0.1283,-0.1431,0.739,-1.0767,9.4985,-1.8375,45.0439,20.813,6.4697,102.9364,0.0714,-21.5881,0.7683,0.1469,-0.1162,0.612,-0.7704,9.7521,-1.8471,28.0151,7.9346,3.479,105.0897,-6.1853,-15.5621,0.7898,0.0748,-0.1246,0.5959,-0.8374,0.4929,9.8431,7.4463,4.2725,2.5635,4.7516,5.4163,-95.9052,-0.0073,0.0624,-0.7398,0.6699,0.3972,7.7759,-0.9522,-62.1948,15.9302,-2.3804,82.4908,-0.9338,-22.6868,0.6476,0.1237,-0.1532,0.7361,0.8278,7.0916,-6.8715,-206.4819,-36.2549,-51.1475,122.3657,-9.6844,-22.8241,0.8638,0.1329,-0.1675,0.4562,0.1675,1.9284,12.3983,-206.7871,-33.9966,-2.0752,24.0326,-4.3451,-96.3501,0.1664,0.1303,-0.7336,0.6459,0,0,0,0,0,0,0,0,0,0,0,0,0,0,0,0,0,0,0,0,0,0,0,0,0,0,0,0,0,0,0,0,0,0,0,0
1777288144.5535445,228642,1777288139.5527182,1777288142.922286,1777288140.7129178,0,0,-3369.56787109375,-1160.1996421813965,1,1,0.0,0.0,0.0,0.0,0.0,0.0,0.0,0.0,0.0,0.0,0.0,0.0,0.0,0.0,0.0,0.0,0.0,0.0,0.0,0.0,0.0,0.0,0.0,0.0,0.0,0.0,0.0,0.0,0.0,0.0,0.0,0.0,0.0,0.0,0.0,0.0,0.0,0.0,0.0,0.0,0.0,0.0,0.0,0.0,0.0,0.0,0.0,0.0,0.0,0.0,0.0,0.0,0.0,0.0,0.0,0.0,0.0,0.0,0.0,0.0,0.0,0.0,0.0,0.0,0.0,0.0,0.0,0.0,0.0,0.0,0.0,0.0,0.0,0.0,0.0,-0.8853,8.709,1.9045,8.4229,15.5029,-0.1831,82.3425,0.2802,-22.1649,0.6457,0.1283,-0.1431,0.739,-1.0767,9.4985,-1.8375,45.0439,20.813,6.4697,102.9364,0.0714,-21.5881,0.7683,0.1469,-0.1162,0.612,-0.7704,9.7521,-1.8471,28.0151,7.9346,3.479,105.0897,-6.1853,-15.5621,0.7898,0.0748,-0.1246,0.5959,-0.8374,0.4929,9.8431,7.4463,4.2725,2.5635,4.7516,5.4163,-95.9052,-0.0073,0.0624,-0.7398,0.6699,0.3972,7.7759,-0.9522,-62.1948,15.9302,-2.3804,82.4908,-0.9338,-22.6868,0.6476,0.1237,-0.1532,0.7361,0.8278,7.0916,-6.8715,-206.4819,-36.2549,-51.1475,122.3657,-9.6844,-22.8241,0.8638,0.1329,-0.1675,0.4562,0.1675,1.9284,12.3983,-206.7871,-33.9966,-2.0752,24.0326,-4.3451,-96.3501,0.1664,0.1303,-0.7336,0.6459,0,0,0,0,0,0,0,0,0,0,0,0,0,0,0,0,0,0,0,0,0,0,0,0,0,0,0,0,0,0,0,0,0,0,0,0
1777288144.5541482,228643,1777288139.5627258,1777288142.922286,1777288140.7129178,0,0,-3359.560251235962,-1150.1920223236084,1,1,0.0,0.0,0.0,0.0,0.0,0.0,0.0,0.0,0.0,0.0,0.0,0.0,0.0,0.0,0.0,0.0,0.0,0.0,0.0,0.0,0.0,0.0,0.0,0.0,0.0,0.0,0.0,0.0,0.0,0.0,0.0,0.0,0.0,0.0,0.0,0.0,0.0,0.0,0.0,0.0,0.0,0.0,0.0,0.0,0.0,0.0,0.0,0.0,0.0,0.0,0.0,0.0,0.0,0.0,0.0,0.0,0.0,0.0,0.0,0.0,0.0,0.0,0.0,0.0,0.0,0.0,0.0,0.0,0.0,0.0,0.0,0.0,0.0,0.0,0.0,-0.8853,8.709,1.9045,8.4229,15.5029,-0.1831,82.3425,0.2802,-22.1649,0.6457,0.1283,-0.1431,0.739,-1.0767,9.4985,-1.8375,45.0439,20.813,6.4697,102.9364,0.0714,-21.5881,0.7683,0.1469,-0.1162,0.612,-0.7704,9.7521,-1.8471,28.0151,7.9346,3.479,105.0897,-6.1853,-15.5621,0.7898,0.0748,-0.1246,0.5959,-0.8374,0.4929,9.8431,7.4463,4.2725,2.5635,4.7516,5.4163,-95.9052,-0.0073,0.0624,-0.7398,0.6699,0.3972,7.7759,-0.9522,-62.1948,15.9302,-2.3804,82.4908,-0.9338,-22.6868,0.6476,0.1237,-0.1532,0.7361,0.8278,7.0916,-6.8715,-206.4819,-36.2549,-51.1475,122.3657,-9.6844,-22.8241,0.8638,0.1329,-0.1675,0.4562,0.1675,1.9284,12.3983,-206.7871,-33.9966,-2.0752,24.0326,-4.3451,-96.3501,0.1664,0.1303,-0.7336,0.6459,0,0,0,0,0,0,0,0,0,0,0,0,0,0,0,0,0,0,0,0,0,0,0,0,0,0,0,0,0,0,0,0,0,0,0,0
1777288144.5541482,228644,1777288139.572857,1777288142.922286,1777288140.7129178,0,0,-3349.429130554199,-1140.0609016418457,1,1,0.0,0.0,0.0,0.0,0.0,0.0,0.0,0.0,0.0,0.0,0.0,0.0,0.0,0.0,0.0,0.0,0.0,0.0,0.0,0.0,0.0,0.0,0.0,0.0,0.0,0.0,0.0,0.0,0.0,0.0,0.0,0.0,0.0,0.0,0.0,0.0,0.0,0.0,0.0,0.0,0.0,0.0,0.0,0.0,0.0,0.0,0.0,0.0,0.0,0.0,0.0,0.0,0.0,0.0,0.0,0.0,0.0,0.0,0.0,0.0,0.0,0.0,0.0,0.0,0.0,0.0,0.0,0.0,0.0,0.0,0.0,0.0,0.0,0.0,0.0,-0.8853,8.709,1.9045,8.4229,15.5029,-0.1831,82.3425,0.2802,-22.1649,0.6457,0.1283,-0.1431,0.739,-1.0767,9.4985,-1.8375,45.0439,20.813,6.4697,102.9364,0.0714,-21.5881,0.7683,0.1469,-0.1162,0.612,-0.7704,9.7521,-1.8471,28.0151,7.9346,3.479,105.0897,-6.1853,-15.5621,0.7898,0.0748,-0.1246,0.5959,-0.8374,0.4929,9.8431,7.4463,4.2725,2.5635,4.7516,5.4163,-95.9052,-0.0073,0.0624,-0.7398,0.6699,0.3972,7.7759,-0.9522,-62.1948,15.9302,-2.3804,82.4908,-0.9338,-22.6868,0.6476,0.1237,-0.1532,0.7361,0.8278,7.0916,-6.8715,-206.4819,-36.2549,-51.1475,122.3657,-9.6844,-22.8241,0.8638,0.1329,-0.1675,0.4562,0.1675,1.9284,12.3983,-206.7871,-33.9966,-2.0752,24.0326,-4.3451,-96.3501,0.1664,0.1303,-0.7336,0.6459,0,0,0,0,0,0,0,0,0,0,0,0,0,0,0,0,0,0,0,0,0,0,0,0,0,0,0,0,0,0,0,0,0,0,0,0
1777288144.5541482,228645,1777288139.58332,1777288142.922286,1777288140.7129178,0,0,-3338.966131210327,-1129.5979022979736,1,1,0.0,0.0,0.0,0.0,0.0,0.0,0.0,0.0,0.0,0.0,0.0,0.0,0.0,0.0,0.0,0.0,0.0,0.0,0.0,0.0,0.0,0.0,0.0,0.0,0.0,0.0,0.0,0.0,0.0,0.0,0.0,0.0,0.0,0.0,0.0,0.0,0.0,0.0,0.0,0.0,0.0,0.0,0.0,0.0,0.0,0.0,0.0,0.0,0.0,0.0,0.0,0.0,0.0,0.0,0.0,0.0,0.0,0.0,0.0,0.0,0.0,0.0,0.0,0.0,0.0,0.0,0.0,0.0,0.0,0.0,0.0,0.0,0.0,0.0,0.0,-0.8853,8.709,1.9045,8.4229,15.5029,-0.1831,82.3425,0.2802,-22.1649,0.6457,0.1283,-0.1431,0.739,-1.0767,9.4985,-1.8375,45.0439,20.813,6.4697,102.9364,0.0714,-21.5881,0.7683,0.1469,-0.1162,0.612,-0.7704,9.7521,-1.8471,28.0151,7.9346,3.479,105.0897,-6.1853,-15.5621,0.7898,0.0748,-0.1246,0.5959,-0.8374,0.4929,9.8431,7.4463,4.2725,2.5635,4.7516,5.4163,-95.9052,-0.0073,0.0624,-0.7398,0.6699,0.3972,7.7759,-0.9522,-62.1948,15.9302,-2.3804,82.4908,-0.9338,-22.6868,0.6476,0.1237,-0.1532,0.7361,0.8278,7.0916,-6.8715,-206.4819,-36.2549,-51.1475,122.3657,-9.6844,-22.8241,0.8638,0.1329,-0.1675,0.4562,0.1675,1.9284,12.3983,-206.7871,-33.9966,-2.0752,24.0326,-4.3451,-96.3501,0.1664,0.1303,-0.7336,0.6459,0,0,0,0,0,0,0,0,0,0,0,0,0,0,0,0,0,0,0,0,0,0,0,0,0,0,0,0,0,0,0,0,0,0,0,0
1777288144.5541482,228646,1777288139.5935128,1777288142.922286,1777288140.7129178,0,0,-3328.773260116577,-1119.4050312042236,1,1,0.0,0.0,0.0,0.0,0.0,0.0,0.0,0.0,0.0,0.0,0.0,0.0,0.0,0.0,0.0,0.0,0.0,0.0,0.0,0.0,0.0,0.0,0.0,0.0,0.0,0.0,0.0,0.0,0.0,0.0,0.0,0.0,0.0,0.0,0.0,0.0,0.0,0.0,0.0,0.0,0.0,0.0,0.0,0.0,0.0,0.0,0.0,0.0,0.0,0.0,0.0,0.0,0.0,0.0,0.0,0.0,0.0,0.0,0.0,0.0,0.0,0.0,0.0,0.0,0.0,0.0,0.0,0.0,0.0,0.0,0.0,0.0,0.0,0.0,0.0,-0.8853,8.709,1.9045,8.4229,15.5029,-0.1831,82.3425,0.2802,-22.1649,0.6457,0.1283,-0.1431,0.739,-1.0767,9.4985,-1.8375,45.0439,20.813,6.4697,102.9364,0.0714,-21.5881,0.7683,0.1469,-0.1162,0.612,-0.7704,9.7521,-1.8471,28.0151,7.9346,3.479,105.0897,-6.1853,-15.5621,0.7898,0.0748,-0.1246,0.5959,-0.8374,0.4929,9.8431,7.4463,4.2725,2.5635,4.7516,5.4163,-95.9052,-0.0073,0.0624,-0.7398,0.6699,0.3972,7.7759,-0.9522,-62.1948,15.9302,-2.3804,82.4908,-0.9338,-22.6868,0.6476,0.1237,-0.1532,0.7361,0.8278,7.0916,-6.8715,-206.4819,-36.2549,-51.1475,122.3657,-9.6844,-22.8241,0.8638,0.1329,-0.1675,0.4562,0.1675,1.9284,12.3983,-206.7871,-33.9966,-2.0752,24.0326,-4.3451,-96.3501,0.1664,0.1303,-0.7336,0.6459,0,0,0,0,0,0,0,0,0,0,0,0,0,0,0,0,0,0,0,0,0,0,0,0,0,0,0,0,0,0,0,0,0,0,0,0
1777288144.5541482,228647,1777288139.6030374,1777288142.922286,1777288140.7129178,0,0,-3319.248676300049,-1109.8804473876953,1,1,0.0,0.0,0.0,0.0,0.0,0.0,0.0,0.0,0.0,0.0,0.0,0.0,0.0,0.0,0.0,0.0,0.0,0.0,0.0,0.0,0.0,0.0,0.0,0.0,0.0,0.0,0.0,0.0,0.0,0.0,0.0,0.0,0.0,0.0,0.0,0.0,0.0,0.0,0.0,0.0,0.0,0.0,0.0,0.0,0.0,0.0,0.0,0.0,0.0,0.0,0.0,0.0,0.0,0.0,0.0,0.0,0.0,0.0,0.0,0.0,0.0,0.0,0.0,0.0,0.0,0.0,0.0,0.0,0.0,0.0,0.0,0.0,0.0,0.0,0.0,-0.8853,8.709,1.9045,8.4229,15.5029,-0.1831,82.3425,0.2802,-22.1649,0.6457,0.1283,-0.1431,0.739,-1.0767,9.4985,-1.8375,45.0439,20.813,6.4697,102.9364,0.0714,-21.5881,0.7683,0.1469,-0.1162,0.612,-0.7704,9.7521,-1.8471,28.0151,7.9346,3.479,105.0897,-6.1853,-15.5621,0.7898,0.0748,-0.1246,0.5959,-0.8374,0.4929,9.8431,7.4463,4.2725,2.5635,4.7516,5.4163,-95.9052,-0.0073,0.0624,-0.7398,0.6699,0.3972,7.7759,-0.9522,-62.1948,15.9302,-2.3804,82.4908,-0.9338,-22.6868,0.6476,0.1237,-0.1532,0.7361,0.8278,7.0916,-6.8715,-206.4819,-36.2549,-51.1475,122.3657,-9.6844,-22.8241,0.8638,0.1329,-0.1675,0.4562,0.1675,1.9284,12.3983,-206.7871,-33.9966,-2.0752,24.0326,-4.3451,-96.3501,0.1664,0.1303,-0.7336,0.6459,0,0,0,0,0,0,0,0,0,0,0,0,0,0,0,0,0,0,0,0,0,0,0,0,0,0,0,0,0,0,0,0,0,0,0,0
1777288144.5541482,228648,1777288139.6140347,1777288142.922286,1777288140.7129178,0,0,-3308.25138092041,-1098.8831520080566,1,1,0.0,0.0,0.0,0.0,0.0,0.0,0.0,0.0,0.0,0.0,0.0,0.0,0.0,0.0,0.0,0.0,0.0,0.0,0.0,0.0,0.0,0.0,0.0,0.0,0.0,0.0,0.0,0.0,0.0,0.0,0.0,0.0,0.0,0.0,0.0,0.0,0.0,0.0,0.0,0.0,0.0,0.0,0.0,0.0,0.0,0.0,0.0,0.0,0.0,0.0,0.0,0.0,0.0,0.0,0.0,0.0,0.0,0.0,0.0,0.0,0.0,0.0,0.0,0.0,0.0,0.0,0.0,0.0,0.0,0.0,0.0,0.0,0.0,0.0,0.0,-0.8853,8.709,1.9045,8.4229,15.5029,-0.1831,82.3425,0.2802,-22.1649,0.6457,0.1283,-0.1431,0.739,-1.0767,9.4985,-1.8375,45.0439,20.813,6.4697,102.9364,0.0714,-21.5881,0.7683,0.1469,-0.1162,0.612,-0.7704,9.7521,-1.8471,28.0151,7.9346,3.479,105.0897,-6.1853,-15.5621,0.7898,0.0748,-0.1246,0.5959,-0.8374,0.4929,9.8431,7.4463,4.2725,2.5635,4.7516,5.4163,-95.9052,-0.0073,0.0624,-0.7398,0.6699,0.3972,7.7759,-0.9522,-62.1948,15.9302,-2.3804,82.4908,-0.9338,-22.6868,0.6476,0.1237,-0.1532,0.7361,0.8278,7.0916,-6.8715,-206.4819,-36.2549,-51.1475,122.3657,-9.6844,-22.8241,0.8638,0.1329,-0.1675,0.4562,0.1675,1.9284,12.3983,-206.7871,-33.9966,-2.0752,24.0326,-4.3451,-96.3501,0.1664,0.1303,-0.7336,0.6459,0,0,0,0,0,0,0,0,0,0,0,0,0,0,0,0,0,0,0,0,0,0,0,0,0,0,0,0,0,0,0,0,0,0,0,0
1777288144.5541482,228649,1777288139.6392133,1777288142.922286,1777288140.7129178,0,0,-3283.0727100372314,-1073.704481124878,1,1,0.0,0.0,0.0,0.0,0.0,0.0,0.0,0.0,0.0,0.0,0.0,0.0,0.0,0.0,0.0,0.0,0.0,0.0,0.0,0.0,0.0,0.0,0.0,0.0,0.0,0.0,0.0,0.0,0.0,0.0,0.0,0.0,0.0,0.0,0.0,0.0,0.0,0.0,0.0,0.0,0.0,0.0,0.0,0.0,0.0,0.0,0.0,0.0,0.0,0.0,0.0,0.0,0.0,0.0,0.0,0.0,0.0,0.0,0.0,0.0,0.0,0.0,0.0,0.0,0.0,0.0,0.0,0.0,0.0,0.0,0.0,0.0,0.0,0.0,0.0,-0.8853,8.709,1.9045,8.4229,15.5029,-0.1831,82.3425,0.2802,-22.1649,0.6457,0.1283,-0.1431,0.739,-1.0767,9.4985,-1.8375,45.0439,20.813,6.4697,102.9364,0.0714,-21.5881,0.7683,0.1469,-0.1162,0.612,-0.7704,9.7521,-1.8471,28.0151,7.9346,3.479,105.0897,-6.1853,-15.5621,0.7898,0.0748,-0.1246,0.5959,-0.8374,0.4929,9.8431,7.4463,4.2725,2.5635,4.7516,5.4163,-95.9052,-0.0073,0.0624,-0.7398,0.6699,0.3972,7.7759,-0.9522,-62.1948,15.9302,-2.3804,82.4908,-0.9338,-22.6868,0.6476,0.1237,-0.1532,0.7361,0.8278,7.0916,-6.8715,-206.4819,-36.2549,-51.1475,122.3657,-9.6844,-22.8241,0.8638,0.1329,-0.1675,0.4562,0.1675,1.9284,12.3983,-206.7871,-33.9966,-2.0752,24.0326,-4.3451,-96.3501,0.1664,0.1303,-0.7336,0.6459,0,0,0,0,0,0,0,0,0,0,0,0,0,0,0,0,0,0,0,0,0,0,0,0,0,0,0,0,0,0,0,0,0,0,0,0
1777288144.5541482,228650,1777288139.6414838,1777288142.922286,1777288140.7129178,0,0,-3280.8022499084473,-1071.4340209960938,1,1,0.0,0.0,0.0,0.0,0.0,0.0,0.0,0.0,0.0,0.0,0.0,0.0,0.0,0.0,0.0,0.0,0.0,0.0,0.0,0.0,0.0,0.0,0.0,0.0,0.0,0.0,0.0,0.0,0.0,0.0,0.0,0.0,0.0,0.0,0.0,0.0,0.0,0.0,0.0,0.0,0.0,0.0,0.0,0.0,0.0,0.0,0.0,0.0,0.0,0.0,0.0,0.0,0.0,0.0,0.0,0.0,0.0,0.0,0.0,0.0,0.0,0.0,0.0,0.0,0.0,0.0,0.0,0.0,0.0,0.0,0.0,0.0,0.0,0.0,0.0,-0.8853,8.709,1.9045,8.4229,15.5029,-0.1831,82.3425,0.2802,-22.1649,0.6457,0.1283,-0.1431,0.739,-1.0767,9.4985,-1.8375,45.0439,20.813,6.4697,102.9364,0.0714,-21.5881,0.7683,0.1469,-0.1162,0.612,-0.7704,9.7521,-1.8471,28.0151,7.9346,3.479,105.0897,-6.1853,-15.5621,0.7898,0.0748,-0.1246,0.5959,-0.8374,0.4929,9.8431,7.4463,4.2725,2.5635,4.7516,5.4163,-95.9052,-0.0073,0.0624,-0.7398,0.6699,0.3972,7.7759,-0.9522,-62.1948,15.9302,-2.3804,82.4908,-0.9338,-22.6868,0.6476,0.1237,-0.1532,0.7361,0.8278,7.0916,-6.8715,-206.4819,-36.2549,-51.1475,122.3657,-9.6844,-22.8241,0.8638,0.1329,-0.1675,0.4562,0.1675,1.9284,12.3983,-206.7871,-33.9966,-2.0752,24.0326,-4.3451,-96.3501,0.1664,0.1303,-0.7336,0.6459,0,0,0,0,0,0,0,0,0,0,0,0,0,0,0,0,0,0,0,0,0,0,0,0,0,0,0,0,0,0,0,0,0,0,0,0
1777288144.5541482,228651,1777288139.6503596,1777288142.922286,1777288140.7129178,0,0,-3271.9264030456543,-1062.5581741333008,1,1,0.0,0.0,0.0,0.0,0.0,0.0,0.0,0.0,0.0,0.0,0.0,0.0,0.0,0.0,0.0,0.0,0.0,0.0,0.0,0.0,0.0,0.0,0.0,0.0,0.0,0.0,0.0,0.0,0.0,0.0,0.0,0.0,0.0,0.0,0.0,0.0,0.0,0.0,0.0,0.0,0.0,0.0,0.0,0.0,0.0,0.0,0.0,0.0,0.0,0.0,0.0,0.0,0.0,0.0,0.0,0.0,0.0,0.0,0.0,0.0,0.0,0.0,0.0,0.0,0.0,0.0,0.0,0.0,0.0,0.0,0.0,0.0,0.0,0.0,0.0,-0.8853,8.709,1.9045,8.4229,15.5029,-0.1831,82.3425,0.2802,-22.1649,0.6457,0.1283,-0.1431,0.739,-1.0767,9.4985,-1.8375,45.0439,20.813,6.4697,102.9364,0.0714,-21.5881,0.7683,0.1469,-0.1162,0.612,-0.7704,9.7521,-1.8471,28.0151,7.9346,3.479,105.0897,-6.1853,-15.5621,0.7898,0.0748,-0.1246,0.5959,-0.8374,0.4929,9.8431,7.4463,4.2725,2.5635,4.7516,5.4163,-95.9052,-0.0073,0.0624,-0.7398,0.6699,0.3972,7.7759,-0.9522,-62.1948,15.9302,-2.3804,82.4908,-0.9338,-22.6868,0.6476,0.1237,-0.1532,0.7361,0.8278,7.0916,-6.8715,-206.4819,-36.2549,-51.1475,122.3657,-9.6844,-22.8241,0.8638,0.1329,-0.1675,0.4562,0.1675,1.9284,12.3983,-206.7871,-33.9966,-2.0752,24.0326,-4.3451,-96.3501,0.1664,0.1303,-0.7336,0.6459,0,0,0,0,0,0,0,0,0,0,0,0,0,0,0,0,0,0,0,0,0,0,0,0,0,0,0,0,0,0,0,0,0,0,0,0
1777288144.5541482,228652,1777288139.6528735,1777288142.922286,1777288140.7129178,0,0,-3269.4125175476074,-1060.044288635254,1,1,0.0,0.0,0.0,0.0,0.0,0.0,0.0,0.0,0.0,0.0,0.0,0.0,0.0,0.0,0.0,0.0,0.0,0.0,0.0,0.0,0.0,0.0,0.0,0.0,0.0,0.0,0.0,0.0,0.0,0.0,0.0,0.0,0.0,0.0,0.0,0.0,0.0,0.0,0.0,0.0,0.0,0.0,0.0,0.0,0.0,0.0,0.0,0.0,0.0,0.0,0.0,0.0,0.0,0.0,0.0,0.0,0.0,0.0,0.0,0.0,0.0,0.0,0.0,0.0,0.0,0.0,0.0,0.0,0.0,0.0,0.0,0.0,0.0,0.0,0.0,-0.8853,8.709,1.9045,8.4229,15.5029,-0.1831,82.3425,0.2802,-22.1649,0.6457,0.1283,-0.1431,0.739,-1.0767,9.4985,-1.8375,45.0439,20.813,6.4697,102.9364,0.0714,-21.5881,0.7683,0.1469,-0.1162,0.612,-0.7704,9.7521,-1.8471,28.0151,7.9346,3.479,105.0897,-6.1853,-15.5621,0.7898,0.0748,-0.1246,0.5959,-0.8374,0.4929,9.8431,7.4463,4.2725,2.5635,4.7516,5.4163,-95.9052,-0.0073,0.0624,-0.7398,0.6699,0.3972,7.7759,-0.9522,-62.1948,15.9302,-2.3804,82.4908,-0.9338,-22.6868,0.6476,0.1237,-0.1532,0.7361,0.8278,7.0916,-6.8715,-206.4819,-36.2549,-51.1475,122.3657,-9.6844,-22.8241,0.8638,0.1329,-0.1675,0.4562,0.1675,1.9284,12.3983,-206.7871,-33.9966,-2.0752,24.0326,-4.3451,-96.3501,0.1664,0.1303,-0.7336,0.6459,0,0,0,0,0,0,0,0,0,0,0,0,0,0,0,0,0,0,0,0,0,0,0,0,0,0,0,0,0,0,0,0,0,0,0,0
1777288144.5541482,228653,1777288139.6628826,1777288142.922286,1777288140.7129178,0,0,-3259.4034671783447,-1050.0352382659912,1,1,0.0,0.0,0.0,0.0,0.0,0.0,0.0,0.0,0.0,0.0,0.0,0.0,0.0,0.0,0.0,0.0,0.0,0.0,0.0,0.0,0.0,0.0,0.0,0.0,0.0,0.0,0.0,0.0,0.0,0.0,0.0,0.0,0.0,0.0,0.0,0.0,0.0,0.0,0.0,0.0,0.0,0.0,0.0,0.0,0.0,0.0,0.0,0.0,0.0,0.0,0.0,0.0,0.0,0.0,0.0,0.0,0.0,0.0,0.0,0.0,0.0,0.0,0.0,0.0,0.0,0.0,0.0,0.0,0.0,0.0,0.0,0.0,0.0,0.0,0.0,-0.8853,8.709,1.9045,8.4229,15.5029,-0.1831,82.3425,0.2802,-22.1649,0.6457,0.1283,-0.1431,0.739,-1.0767,9.4985,-1.8375,45.0439,20.813,6.4697,102.9364,0.0714,-21.5881,0.7683,0.1469,-0.1162,0.612,-0.7704,9.7521,-1.8471,28.0151,7.9346,3.479,105.0897,-6.1853,-15.5621,0.7898,0.0748,-0.1246,0.5959,-0.8374,0.4929,9.8431,7.4463,4.2725,2.5635,4.7516,5.4163,-95.9052,-0.0073,0.0624,-0.7398,0.6699,0.3972,7.7759,-0.9522,-62.1948,15.9302,-2.3804,82.4908,-0.9338,-22.6868,0.6476,0.1237,-0.1532,0.7361,0.8278,7.0916,-6.8715,-206.4819,-36.2549,-51.1475,122.3657,-9.6844,-22.8241,0.8638,0.1329,-0.1675,0.4562,0.1675,1.9284,12.3983,-206.7871,-33.9966,-2.0752,24.0326,-4.3451,-96.3501,0.1664,0.1303,-0.7336,0.6459,0,0,0,0,0,0,0,0,0,0,0,0,0,0,0,0,0,0,0,0,0,0,0,0,0,0,0,0,0,0,0,0,0,0,0,0
1777288144.5541482,228654,1777288139.672618,1777288142.922286,1777288140.7129178,0,0,-3249.6681213378906,-1040.299892425537,1,1,0.0,0.0,0.0,0.0,0.0,0.0,0.0,0.0,0.0,0.0,0.0,0.0,0.0,0.0,0.0,0.0,0.0,0.0,0.0,0.0,0.0,0.0,0.0,0.0,0.0,0.0,0.0,0.0,0.0,0.0,0.0,0.0,0.0,0.0,0.0,0.0,0.0,0.0,0.0,0.0,0.0,0.0,0.0,0.0,0.0,0.0,0.0,0.0,0.0,0.0,0.0,0.0,0.0,0.0,0.0,0.0,0.0,0.0,0.0,0.0,0.0,0.0,0.0,0.0,0.0,0.0,0.0,0.0,0.0,0.0,0.0,0.0,0.0,0.0,0.0,-0.8853,8.709,1.9045,8.4229,15.5029,-0.1831,82.3425,0.2802,-22.1649,0.6457,0.1283,-0.1431,0.739,-1.0767,9.4985,-1.8375,45.0439,20.813,6.4697,102.9364,0.0714,-21.5881,0.7683,0.1469,-0.1162,0.612,-0.7704,9.7521,-1.8471,28.0151,7.9346,3.479,105.0897,-6.1853,-15.5621,0.7898,0.0748,-0.1246,0.5959,-0.8374,0.4929,9.8431,7.4463,4.2725,2.5635,4.7516,5.4163,-95.9052,-0.0073,0.0624,-0.7398,0.6699,0.3972,7.7759,-0.9522,-62.1948,15.9302,-2.3804,82.4908,-0.9338,-22.6868,0.6476,0.1237,-0.1532,0.7361,0.8278,7.0916,-6.8715,-206.4819,-36.2549,-51.1475,122.3657,-9.6844,-22.8241,0.8638,0.1329,-0.1675,0.4562,0.1675,1.9284,12.3983,-206.7871,-33.9966,-2.0752,24.0326,-4.3451,-96.3501,0.1664,0.1303,-0.7336,0.6459,0,0,0,0,0,0,0,0,0,0,0,0,0,0,0,0,0,0,0,0,0,0,0,0,0,0,0,0,0,0,0,0,0,0,0,0
1777288144.5541482,228655,1777288139.6881907,1777288142.922286,1777288140.7129178,0,0,-3234.095335006714,-1024.7271060943604,1,1,0.0,0.0,0.0,0.0,0.0,0.0,0.0,0.0,0.0,0.0,0.0,0.0,0.0,0.0,0.0,0.0,0.0,0.0,0.0,0.0,0.0,0.0,0.0,0.0,0.0,0.0,0.0,0.0,0.0,0.0,0.0,0.0,0.0,0.0,0.0,0.0,0.0,0.0,0.0,0.0,0.0,0.0,0.0,0.0,0.0,0.0,0.0,0.0,0.0,0.0,0.0,0.0,0.0,0.0,0.0,0.0,0.0,0.0,0.0,0.0,0.0,0.0,0.0,0.0,0.0,0.0,0.0,0.0,0.0,0.0,0.0,0.0,0.0,0.0,0.0,-0.8853,8.709,1.9045,8.4229,15.5029,-0.1831,82.3425,0.2802,-22.1649,0.6457,0.1283,-0.1431,0.739,-1.0767,9.4985,-1.8375,45.0439,20.813,6.4697,102.9364,0.0714,-21.5881,0.7683,0.1469,-0.1162,0.612,-0.7704,9.7521,-1.8471,28.0151,7.9346,3.479,105.0897,-6.1853,-15.5621,0.7898,0.0748,-0.1246,0.5959,-0.8374,0.4929,9.8431,7.4463,4.2725,2.5635,4.7516,5.4163,-95.9052,-0.0073,0.0624,-0.7398,0.6699,0.3972,7.7759,-0.9522,-62.1948,15.9302,-2.3804,82.4908,-0.9338,-22.6868,0.6476,0.1237,-0.1532,0.7361,0.8278,7.0916,-6.8715,-206.4819,-36.2549,-51.1475,122.3657,-9.6844,-22.8241,0.8638,0.1329,-0.1675,0.4562,0.1675,1.9284,12.3983,-206.7871,-33.9966,-2.0752,24.0326,-4.3451,-96.3501,0.1664,0.1303,-0.7336,0.6459,0,0,0,0,0,0,0,0,0,0,0,0,0,0,0,0,0,0,0,0,0,0,0,0,0,0,0,0,0,0,0,0,0,0,0,0
1777288144.5541482,228656,1777288139.693206,1777288142.922286,1777288140.7129178,0,0,-3229.0799617767334,-1019.7117328643799,1,1,0.0,0.0,0.0,0.0,0.0,0.0,0.0,0.0,0.0,0.0,0.0,0.0,0.0,0.0,0.0,0.0,0.0,0.0,0.0,0.0,0.0,0.0,0.0,0.0,0.0,0.0,0.0,0.0,0.0,0.0,0.0,0.0,0.0,0.0,0.0,0.0,0.0,0.0,0.0,0.0,0.0,0.0,0.0,0.0,0.0,0.0,0.0,0.0,0.0,0.0,0.0,0.0,0.0,0.0,0.0,0.0,0.0,0.0,0.0,0.0,0.0,0.0,0.0,0.0,0.0,0.0,0.0,0.0,0.0,0.0,0.0,0.0,0.0,0.0,0.0,-0.8853,8.709,1.9045,8.4229,15.5029,-0.1831,82.3425,0.2802,-22.1649,0.6457,0.1283,-0.1431,0.739,-1.0767,9.4985,-1.8375,45.0439,20.813,6.4697,102.9364,0.0714,-21.5881,0.7683,0.1469,-0.1162,0.612,-0.7704,9.7521,-1.8471,28.0151,7.9346,3.479,105.0897,-6.1853,-15.5621,0.7898,0.0748,-0.1246,0.5959,-0.8374,0.4929,9.8431,7.4463,4.2725,2.5635,4.7516,5.4163,-95.9052,-0.0073,0.0624,-0.7398,0.6699,0.3972,7.7759,-0.9522,-62.1948,15.9302,-2.3804,82.4908,-0.9338,-22.6868,0.6476,0.1237,-0.1532,0.7361,0.8278,7.0916,-6.8715,-206.4819,-36.2549,-51.1475,122.3657,-9.6844,-22.8241,0.8638,0.1329,-0.1675,0.4562,0.1675,1.9284,12.3983,-206.7871,-33.9966,-2.0752,24.0326,-4.3451,-96.3501,0.1664,0.1303,-0.7336,0.6459,0,0,0,0,0,0,0,0,0,0,0,0,0,0,0,0,0,0,0,0,0,0,0,0,0,0,0,0,0,0,0,0,0,0,0,0
1777288144.5541482,228657,1777288139.7035418,1777288142.922286,1777288140.7129178,0,0,-3218.7442779541016,-1009.376049041748,1,1,0.0,0.0,0.0,0.0,0.0,0.0,0.0,0.0,0.0,0.0,0.0,0.0,0.0,0.0,0.0,0.0,0.0,0.0,0.0,0.0,0.0,0.0,0.0,0.0,0.0,0.0,0.0,0.0,0.0,0.0,0.0,0.0,0.0,0.0,0.0,0.0,0.0,0.0,0.0,0.0,0.0,0.0,0.0,0.0,0.0,0.0,0.0,0.0,0.0,0.0,0.0,0.0,0.0,0.0,0.0,0.0,0.0,0.0,0.0,0.0,0.0,0.0,0.0,0.0,0.0,0.0,0.0,0.0,0.0,0.0,0.0,0.0,0.0,0.0,0.0,-0.8853,8.709,1.9045,8.4229,15.5029,-0.1831,82.3425,0.2802,-22.1649,0.6457,0.1283,-0.1431,0.739,-1.0767,9.4985,-1.8375,45.0439,20.813,6.4697,102.9364,0.0714,-21.5881,0.7683,0.1469,-0.1162,0.612,-0.7704,9.7521,-1.8471,28.0151,7.9346,3.479,105.0897,-6.1853,-15.5621,0.7898,0.0748,-0.1246,0.5959,-0.8374,0.4929,9.8431,7.4463,4.2725,2.5635,4.7516,5.4163,-95.9052,-0.0073,0.0624,-0.7398,0.6699,0.3972,7.7759,-0.9522,-62.1948,15.9302,-2.3804,82.4908,-0.9338,-22.6868,0.6476,0.1237,-0.1532,0.7361,0.8278,7.0916,-6.8715,-206.4819,-36.2549,-51.1475,122.3657,-9.6844,-22.8241,0.8638,0.1329,-0.1675,0.4562,0.1675,1.9284,12.3983,-206.7871,-33.9966,-2.0752,24.0326,-4.3451,-96.3501,0.1664,0.1303,-0.7336,0.6459,0,0,0,0,0,0,0,0,0,0,0,0,0,0,0,0,0,0,0,0,0,0,0,0,0,0,0,0,0,0,0,0,0,0,0,0
1777288144.5556526,228658,1777288139.720637,1777288142.922286,1777288140.7129178,0,0,-3201.648950576782,-992.2807216644287,1,1,0.0,0.0,0.0,0.0,0.0,0.0,0.0,0.0,0.0,0.0,0.0,0.0,0.0,0.0,0.0,0.0,0.0,0.0,0.0,0.0,0.0,0.0,0.0,0.0,0.0,0.0,0.0,0.0,0.0,0.0,0.0,0.0,0.0,0.0,0.0,0.0,0.0,0.0,0.0,0.0,0.0,0.0,0.0,0.0,0.0,0.0,0.0,0.0,0.0,0.0,0.0,0.0,0.0,0.0,0.0,0.0,0.0,0.0,0.0,0.0,0.0,0.0,0.0,0.0,0.0,0.0,0.0,0.0,0.0,0.0,0.0,0.0,0.0,0.0,0.0,-0.8853,8.709,1.9045,8.4229,15.5029,-0.1831,82.3425,0.2802,-22.1649,0.6457,0.1283,-0.1431,0.739,-1.0767,9.4985,-1.8375,45.0439,20.813,6.4697,102.9364,0.0714,-21.5881,0.7683,0.1469,-0.1162,0.612,-0.7704,9.7521,-1.8471,28.0151,7.9346,3.479,105.0897,-6.1853,-15.5621,0.7898,0.0748,-0.1246,0.5959,-0.8374,0.4929,9.8431,7.4463,4.2725,2.5635,4.7516,5.4163,-95.9052,-0.0073,0.0624,-0.7398,0.6699,0.3972,7.7759,-0.9522,-62.1948,15.9302,-2.3804,82.4908,-0.9338,-22.6868,0.6476,0.1237,-0.1532,0.7361,0.8278,7.0916,-6.8715,-206.4819,-36.2549,-51.1475,122.3657,-9.6844,-22.8241,0.8638,0.1329,-0.1675,0.4562,0.1675,1.9284,12.3983,-206.7871,-33.9966,-2.0752,24.0326,-4.3451,-96.3501,0.1664,0.1303,-0.7336,0.6459,0,0,0,0,0,0,0,0,0,0,0,0,0,0,0,0,0,0,0,0,0,0,0,0,0,0,0,0,0,0,0,0,0,0,0,0
1777288144.5556526,228659,1777288139.7301579,1777288142.922286,1777288140.7129178,0,0,-3192.1281814575195,-982.759952545166,1,1,0.0,0.0,0.0,0.0,0.0,0.0,0.0,0.0,0.0,0.0,0.0,0.0,0.0,0.0,0.0,0.0,0.0,0.0,0.0,0.0,0.0,0.0,0.0,0.0,0.0,0.0,0.0,0.0,0.0,0.0,0.0,0.0,0.0,0.0,0.0,0.0,0.0,0.0,0.0,0.0,0.0,0.0,0.0,0.0,0.0,0.0,0.0,0.0,0.0,0.0,0.0,0.0,0.0,0.0,0.0,0.0,0.0,0.0,0.0,0.0,0.0,0.0,0.0,0.0,0.0,0.0,0.0,0.0,0.0,0.0,0.0,0.0,0.0,0.0,0.0,-0.8853,8.709,1.9045,8.4229,15.5029,-0.1831,82.3425,0.2802,-22.1649,0.6457,0.1283,-0.1431,0.739,-1.0767,9.4985,-1.8375,45.0439,20.813,6.4697,102.9364,0.0714,-21.5881,0.7683,0.1469,-0.1162,0.612,-0.7704,9.7521,-1.8471,28.0151,7.9346,3.479,105.0897,-6.1853,-15.5621,0.7898,0.0748,-0.1246,0.5959,-0.8374,0.4929,9.8431,7.4463,4.2725,2.5635,4.7516,5.4163,-95.9052,-0.0073,0.0624,-0.7398,0.6699,0.3972,7.7759,-0.9522,-62.1948,15.9302,-2.3804,82.4908,-0.9338,-22.6868,0.6476,0.1237,-0.1532,0.7361,0.8278,7.0916,-6.8715,-206.4819,-36.2549,-51.1475,122.3657,-9.6844,-22.8241,0.8638,0.1329,-0.1675,0.4562,0.1675,1.9284,12.3983,-206.7871,-33.9966,-2.0752,24.0326,-4.3451,-96.3501,0.1664,0.1303,-0.7336,0.6459,0,0,0,0,0,0,0,0,0,0,0,0,0,0,0,0,0,0,0,0,0,0,0,0,0,0,0,0,0,0,0,0,0,0,0,0
1777288144.5556526,228660,1777288139.7321553,1777288142.922286,1777288140.7129178,0,0,-3190.1307106018066,-980.7624816894531,1,1,0.0,0.0,0.0,0.0,0.0,0.0,0.0,0.0,0.0,0.0,0.0,0.0,0.0,0.0,0.0,0.0,0.0,0.0,0.0,0.0,0.0,0.0,0.0,0.0,0.0,0.0,0.0,0.0,0.0,0.0,0.0,0.0,0.0,0.0,0.0,0.0,0.0,0.0,0.0,0.0,0.0,0.0,0.0,0.0,0.0,0.0,0.0,0.0,0.0,0.0,0.0,0.0,0.0,0.0,0.0,0.0,0.0,0.0,0.0,0.0,0.0,0.0,0.0,0.0,0.0,0.0,0.0,0.0,0.0,0.0,0.0,0.0,0.0,0.0,0.0,-0.8853,8.709,1.9045,8.4229,15.5029,-0.1831,82.3425,0.2802,-22.1649,0.6457,0.1283,-0.1431,0.739,-1.0767,9.4985,-1.8375,45.0439,20.813,6.4697,102.9364,0.0714,-21.5881,0.7683,0.1469,-0.1162,0.612,-0.7704,9.7521,-1.8471,28.0151,7.9346,3.479,105.0897,-6.1853,-15.5621,0.7898,0.0748,-0.1246,0.5959,-0.8374,0.4929,9.8431,7.4463,4.2725,2.5635,4.7516,5.4163,-95.9052,-0.0073,0.0624,-0.7398,0.6699,0.3972,7.7759,-0.9522,-62.1948,15.9302,-2.3804,82.4908,-0.9338,-22.6868,0.6476,0.1237,-0.1532,0.7361,0.8278,7.0916,-6.8715,-206.4819,-36.2549,-51.1475,122.3657,-9.6844,-22.8241,0.8638,0.1329,-0.1675,0.4562,0.1675,1.9284,12.3983,-206.7871,-33.9966,-2.0752,24.0326,-4.3451,-96.3501,0.1664,0.1303,-0.7336,0.6459,0,0,0,0,0,0,0,0,0,0,0,0,0,0,0,0,0,0,0,0,0,0,0,0,0,0,0,0,0,0,0,0,0,0,0,0
1777288144.5556526,228661,1777288139.7437572,1777288142.922286,1777288140.7129178,0,0,-3178.5287857055664,-969.1605567932129,1,1,0.0,0.0,0.0,0.0,0.0,0.0,0.0,0.0,0.0,0.0,0.0,0.0,0.0,0.0,0.0,0.0,0.0,0.0,0.0,0.0,0.0,0.0,0.0,0.0,0.0,0.0,0.0,0.0,0.0,0.0,0.0,0.0,0.0,0.0,0.0,0.0,0.0,0.0,0.0,0.0,0.0,0.0,0.0,0.0,0.0,0.0,0.0,0.0,0.0,0.0,0.0,0.0,0.0,0.0,0.0,0.0,0.0,0.0,0.0,0.0,0.0,0.0,0.0,0.0,0.0,0.0,0.0,0.0,0.0,0.0,0.0,0.0,0.0,0.0,0.0,-0.8853,8.709,1.9045,8.4229,15.5029,-0.1831,82.3425,0.2802,-22.1649,0.6457,0.1283,-0.1431,0.739,-1.0767,9.4985,-1.8375,45.0439,20.813,6.4697,102.9364,0.0714,-21.5881,0.7683,0.1469,-0.1162,0.612,-0.7704,9.7521,-1.8471,28.0151,7.9346,3.479,105.0897,-6.1853,-15.5621,0.7898,0.0748,-0.1246,0.5959,-0.8374,0.4929,9.8431,7.4463,4.2725,2.5635,4.7516,5.4163,-95.9052,-0.0073,0.0624,-0.7398,0.6699,0.3972,7.7759,-0.9522,-62.1948,15.9302,-2.3804,82.4908,-0.9338,-22.6868,0.6476,0.1237,-0.1532,0.7361,0.8278,7.0916,-6.8715,-206.4819,-36.2549,-51.1475,122.3657,-9.6844,-22.8241,0.8638,0.1329,-0.1675,0.4562,0.1675,1.9284,12.3983,-206.7871,-33.9966,-2.0752,24.0326,-4.3451,-96.3501,0.1664,0.1303,-0.7336,0.6459,0,0,0,0,0,0,0,0,0,0,0,0,0,0,0,0,0,0,0,0,0,0,0,0,0,0,0,0,0,0,0,0,0,0,0,0
1777288144.5556526,228662,1777288139.753538,1777288142.922286,1777288140.7129178,0,0,-3168.748140335083,-959.3799114227295,1,1,0.0,0.0,0.0,0.0,0.0,0.0,0.0,0.0,0.0,0.0,0.0,0.0,0.0,0.0,0.0,0.0,0.0,0.0,0.0,0.0,0.0,0.0,0.0,0.0,0.0,0.0,0.0,0.0,0.0,0.0,0.0,0.0,0.0,0.0,0.0,0.0,0.0,0.0,0.0,0.0,0.0,0.0,0.0,0.0,0.0,0.0,0.0,0.0,0.0,0.0,0.0,0.0,0.0,0.0,0.0,0.0,0.0,0.0,0.0,0.0,0.0,0.0,0.0,0.0,0.0,0.0,0.0,0.0,0.0,0.0,0.0,0.0,0.0,0.0,0.0,-0.8853,8.709,1.9045,8.4229,15.5029,-0.1831,82.3425,0.2802,-22.1649,0.6457,0.1283,-0.1431,0.739,-1.0767,9.4985,-1.8375,45.0439,20.813,6.4697,102.9364,0.0714,-21.5881,0.7683,0.1469,-0.1162,0.612,-0.7704,9.7521,-1.8471,28.0151,7.9346,3.479,105.0897,-6.1853,-15.5621,0.7898,0.0748,-0.1246,0.5959,-0.8374,0.4929,9.8431,7.4463,4.2725,2.5635,4.7516,5.4163,-95.9052,-0.0073,0.0624,-0.7398,0.6699,0.3972,7.7759,-0.9522,-62.1948,15.9302,-2.3804,82.4908,-0.9338,-22.6868,0.6476,0.1237,-0.1532,0.7361,0.8278,7.0916,-6.8715,-206.4819,-36.2549,-51.1475,122.3657,-9.6844,-22.8241,0.8638,0.1329,-0.1675,0.4562,0.1675,1.9284,12.3983,-206.7871,-33.9966,-2.0752,24.0326,-4.3451,-96.3501,0.1664,0.1303,-0.7336,0.6459,0,0,0,0,0,0,0,0,0,0,0,0,0,0,0,0,0,0,0,0,0,0,0,0,0,0,0,0,0,0,0,0,0,0,0,0
1777288144.5556526,228663,1777288139.7630467,1777288142.922286,1777288140.7129178,0,0,-3159.2392921447754,-949.8710632324219,1,1,0.0,0.0,0.0,0.0,0.0,0.0,0.0,0.0,0.0,0.0,0.0,0.0,0.0,0.0,0.0,0.0,0.0,0.0,0.0,0.0,0.0,0.0,0.0,0.0,0.0,0.0,0.0,0.0,0.0,0.0,0.0,0.0,0.0,0.0,0.0,0.0,0.0,0.0,0.0,0.0,0.0,0.0,0.0,0.0,0.0,0.0,0.0,0.0,0.0,0.0,0.0,0.0,0.0,0.0,0.0,0.0,0.0,0.0,0.0,0.0,0.0,0.0,0.0,0.0,0.0,0.0,0.0,0.0,0.0,0.0,0.0,0.0,0.0,0.0,0.0,-0.8853,8.709,1.9045,8.4229,15.5029,-0.1831,82.3425,0.2802,-22.1649,0.6457,0.1283,-0.1431,0.739,-1.0767,9.4985,-1.8375,45.0439,20.813,6.4697,102.9364,0.0714,-21.5881,0.7683,0.1469,-0.1162,0.612,-0.7704,9.7521,-1.8471,28.0151,7.9346,3.479,105.0897,-6.1853,-15.5621,0.7898,0.0748,-0.1246,0.5959,-0.8374,0.4929,9.8431,7.4463,4.2725,2.5635,4.7516,5.4163,-95.9052,-0.0073,0.0624,-0.7398,0.6699,0.3972,7.7759,-0.9522,-62.1948,15.9302,-2.3804,82.4908,-0.9338,-22.6868,0.6476,0.1237,-0.1532,0.7361,0.8278,7.0916,-6.8715,-206.4819,-36.2549,-51.1475,122.3657,-9.6844,-22.8241,0.8638,0.1329,-0.1675,0.4562,0.1675,1.9284,12.3983,-206.7871,-33.9966,-2.0752,24.0326,-4.3451,-96.3501,0.1664,0.1303,-0.7336,0.6459,0,0,0,0,0,0,0,0,0,0,0,0,0,0,0,0,0,0,0,0,0,0,0,0,0,0,0,0,0,0,0,0,0,0,0,0
1777288144.556167,228664,1777288139.77345,1777288142.922286,1777288140.7129178,0,0,-3148.836135864258,-939.4679069519043,1,1,0.0,0.0,0.0,0.0,0.0,0.0,0.0,0.0,0.0,0.0,0.0,0.0,0.0,0.0,0.0,0.0,0.0,0.0,0.0,0.0,0.0,0.0,0.0,0.0,0.0,0.0,0.0,0.0,0.0,0.0,0.0,0.0,0.0,0.0,0.0,0.0,0.0,0.0,0.0,0.0,0.0,0.0,0.0,0.0,0.0,0.0,0.0,0.0,0.0,0.0,0.0,0.0,0.0,0.0,0.0,0.0,0.0,0.0,0.0,0.0,0.0,0.0,0.0,0.0,0.0,0.0,0.0,0.0,0.0,0.0,0.0,0.0,0.0,0.0,0.0,-0.8853,8.709,1.9045,8.4229,15.5029,-0.1831,82.3425,0.2802,-22.1649,0.6457,0.1283,-0.1431,0.739,-1.0767,9.4985,-1.8375,45.0439,20.813,6.4697,102.9364,0.0714,-21.5881,0.7683,0.1469,-0.1162,0.612,-0.7704,9.7521,-1.8471,28.0151,7.9346,3.479,105.0897,-6.1853,-15.5621,0.7898,0.0748,-0.1246,0.5959,-0.8374,0.4929,9.8431,7.4463,4.2725,2.5635,4.7516,5.4163,-95.9052,-0.0073,0.0624,-0.7398,0.6699,0.3972,7.7759,-0.9522,-62.1948,15.9302,-2.3804,82.4908,-0.9338,-22.6868,0.6476,0.1237,-0.1532,0.7361,0.8278,7.0916,-6.8715,-206.4819,-36.2549,-51.1475,122.3657,-9.6844,-22.8241,0.8638,0.1329,-0.1675,0.4562,0.1675,1.9284,12.3983,-206.7871,-33.9966,-2.0752,24.0326,-4.3451,-96.3501,0.1664,0.1303,-0.7336,0.6459,0,0,0,0,0,0,0,0,0,0,0,0,0,0,0,0,0,0,0,0,0,0,0,0,0,0,0,0,0,0,0,0,0,0,0,0
1777288144.556167,228665,1777288139.7954028,1777288142.922286,1777288140.7129178,0,0,-3126.8832683563232,-917.5150394439697,1,1,0.0,0.0,0.0,0.0,0.0,0.0,0.0,0.0,0.0,0.0,0.0,0.0,0.0,0.0,0.0,0.0,0.0,0.0,0.0,0.0,0.0,0.0,0.0,0.0,0.0,0.0,0.0,0.0,0.0,0.0,0.0,0.0,0.0,0.0,0.0,0.0,0.0,0.0,0.0,0.0,0.0,0.0,0.0,0.0,0.0,0.0,0.0,0.0,0.0,0.0,0.0,0.0,0.0,0.0,0.0,0.0,0.0,0.0,0.0,0.0,0.0,0.0,0.0,0.0,0.0,0.0,0.0,0.0,0.0,0.0,0.0,0.0,0.0,0.0,0.0,-0.8853,8.709,1.9045,8.4229,15.5029,-0.1831,82.3425,0.2802,-22.1649,0.6457,0.1283,-0.1431,0.739,-1.0767,9.4985,-1.8375,45.0439,20.813,6.4697,102.9364,0.0714,-21.5881,0.7683,0.1469,-0.1162,0.612,-0.7704,9.7521,-1.8471,28.0151,7.9346,3.479,105.0897,-6.1853,-15.5621,0.7898,0.0748,-0.1246,0.5959,-0.8374,0.4929,9.8431,7.4463,4.2725,2.5635,4.7516,5.4163,-95.9052,-0.0073,0.0624,-0.7398,0.6699,0.3972,7.7759,-0.9522,-62.1948,15.9302,-2.3804,82.4908,-0.9338,-22.6868,0.6476,0.1237,-0.1532,0.7361,0.8278,7.0916,-6.8715,-206.4819,-36.2549,-51.1475,122.3657,-9.6844,-22.8241,0.8638,0.1329,-0.1675,0.4562,0.1675,1.9284,12.3983,-206.7871,-33.9966,-2.0752,24.0326,-4.3451,-96.3501,0.1664,0.1303,-0.7336,0.6459,0,0,0,0,0,0,0,0,0,0,0,0,0,0,0,0,0,0,0,0,0,0,0,0,0,0,0,0,0,0,0,0,0,0,0,0
1777288144.556167,228666,1777288139.7980814,1777288142.922286,1777288140.7129178,0,0,-3124.204635620117,-914.8364067077637,1,1,0.0,0.0,0.0,0.0,0.0,0.0,0.0,0.0,0.0,0.0,0.0,0.0,0.0,0.0,0.0,0.0,0.0,0.0,0.0,0.0,0.0,0.0,0.0,0.0,0.0,0.0,0.0,0.0,0.0,0.0,0.0,0.0,0.0,0.0,0.0,0.0,0.0,0.0,0.0,0.0,0.0,0.0,0.0,0.0,0.0,0.0,0.0,0.0,0.0,0.0,0.0,0.0,0.0,0.0,0.0,0.0,0.0,0.0,0.0,0.0,0.0,0.0,0.0,0.0,0.0,0.0,0.0,0.0,0.0,0.0,0.0,0.0,0.0,0.0,0.0,-0.8853,8.709,1.9045,8.4229,15.5029,-0.1831,82.3425,0.2802,-22.1649,0.6457,0.1283,-0.1431,0.739,-1.0767,9.4985,-1.8375,45.0439,20.813,6.4697,102.9364,0.0714,-21.5881,0.7683,0.1469,-0.1162,0.612,-0.7704,9.7521,-1.8471,28.0151,7.9346,3.479,105.0897,-6.1853,-15.5621,0.7898,0.0748,-0.1246,0.5959,-0.8374,0.4929,9.8431,7.4463,4.2725,2.5635,4.7516,5.4163,-95.9052,-0.0073,0.0624,-0.7398,0.6699,0.3972,7.7759,-0.9522,-62.1948,15.9302,-2.3804,82.4908,-0.9338,-22.6868,0.6476,0.1237,-0.1532,0.7361,0.8278,7.0916,-6.8715,-206.4819,-36.2549,-51.1475,122.3657,-9.6844,-22.8241,0.8638,0.1329,-0.1675,0.4562,0.1675,1.9284,12.3983,-206.7871,-33.9966,-2.0752,24.0326,-4.3451,-96.3501,0.1664,0.1303,-0.7336,0.6459,0,0,0,0,0,0,0,0,0,0,0,0,0,0,0,0,0,0,0,0,0,0,0,0,0,0,0,0,0,0,0,0,0,0,0,0
1777288144.556167,228667,1777288139.803307,1777288142.922286,1777288140.7129178,0,0,-3118.978977203369,-909.6107482910156,1,1,0.0,0.0,0.0,0.0,0.0,0.0,0.0,0.0,0.0,0.0,0.0,0.0,0.0,0.0,0.0,0.0,0.0,0.0,0.0,0.0,0.0,0.0,0.0,0.0,0.0,0.0,0.0,0.0,0.0,0.0,0.0,0.0,0.0,0.0,0.0,0.0,0.0,0.0,0.0,0.0,0.0,0.0,0.0,0.0,0.0,0.0,0.0,0.0,0.0,0.0,0.0,0.0,0.0,0.0,0.0,0.0,0.0,0.0,0.0,0.0,0.0,0.0,0.0,0.0,0.0,0.0,0.0,0.0,0.0,0.0,0.0,0.0,0.0,0.0,0.0,-0.8853,8.709,1.9045,8.4229,15.5029,-0.1831,82.3425,0.2802,-22.1649,0.6457,0.1283,-0.1431,0.739,-1.0767,9.4985,-1.8375,45.0439,20.813,6.4697,102.9364,0.0714,-21.5881,0.7683,0.1469,-0.1162,0.612,-0.7704,9.7521,-1.8471,28.0151,7.9346,3.479,105.0897,-6.1853,-15.5621,0.7898,0.0748,-0.1246,0.5959,-0.8374,0.4929,9.8431,7.4463,4.2725,2.5635,4.7516,5.4163,-95.9052,-0.0073,0.0624,-0.7398,0.6699,0.3972,7.7759,-0.9522,-62.1948,15.9302,-2.3804,82.4908,-0.9338,-22.6868,0.6476,0.1237,-0.1532,0.7361,0.8278,7.0916,-6.8715,-206.4819,-36.2549,-51.1475,122.3657,-9.6844,-22.8241,0.8638,0.1329,-0.1675,0.4562,0.1675,1.9284,12.3983,-206.7871,-33.9966,-2.0752,24.0326,-4.3451,-96.3501,0.1664,0.1303,-0.7336,0.6459,0,0,0,0,0,0,0,0,0,0,0,0,0,0,0,0,0,0,0,0,0,0,0,0,0,0,0,0,0,0,0,0,0,0,0,0
1777288144.556167,228668,1777288139.8138437,1777288142.922286,1777288140.7129178,0,0,-3108.4423065185547,-899.0740776062012,1,1,0.0,0.0,0.0,0.0,0.0,0.0,0.0,0.0,0.0,0.0,0.0,0.0,0.0,0.0,0.0,0.0,0.0,0.0,0.0,0.0,0.0,0.0,0.0,0.0,0.0,0.0,0.0,0.0,0.0,0.0,0.0,0.0,0.0,0.0,0.0,0.0,0.0,0.0,0.0,0.0,0.0,0.0,0.0,0.0,0.0,0.0,0.0,0.0,0.0,0.0,0.0,0.0,0.0,0.0,0.0,0.0,0.0,0.0,0.0,0.0,0.0,0.0,0.0,0.0,0.0,0.0,0.0,0.0,0.0,0.0,0.0,0.0,0.0,0.0,0.0,-0.8853,8.709,1.9045,8.4229,15.5029,-0.1831,82.3425,0.2802,-22.1649,0.6457,0.1283,-0.1431,0.739,-1.0767,9.4985,-1.8375,45.0439,20.813,6.4697,102.9364,0.0714,-21.5881,0.7683,0.1469,-0.1162,0.612,-0.7704,9.7521,-1.8471,28.0151,7.9346,3.479,105.0897,-6.1853,-15.5621,0.7898,0.0748,-0.1246,0.5959,-0.8374,0.4929,9.8431,7.4463,4.2725,2.5635,4.7516,5.4163,-95.9052,-0.0073,0.0624,-0.7398,0.6699,0.3972,7.7759,-0.9522,-62.1948,15.9302,-2.3804,82.4908,-0.9338,-22.6868,0.6476,0.1237,-0.1532,0.7361,0.8278,7.0916,-6.8715,-206.4819,-36.2549,-51.1475,122.3657,-9.6844,-22.8241,0.8638,0.1329,-0.1675,0.4562,0.1675,1.9284,12.3983,-206.7871,-33.9966,-2.0752,24.0326,-4.3451,-96.3501,0.1664,0.1303,-0.7336,0.6459,0,0,0,0,0,0,0,0,0,0,0,0,0,0,0,0,0,0,0,0,0,0,0,0,0,0,0,0,0,0,0,0,0,0,0,0
1777288144.556167,228669,1777288139.8236904,1777288142.922286,1777288140.7129178,0,0,-3098.59561920166,-889.2273902893066,1,1,0.0,0.0,0.0,0.0,0.0,0.0,0.0,0.0,0.0,0.0,0.0,0.0,0.0,0.0,0.0,0.0,0.0,0.0,0.0,0.0,0.0,0.0,0.0,0.0,0.0,0.0,0.0,0.0,0.0,0.0,0.0,0.0,0.0,0.0,0.0,0.0,0.0,0.0,0.0,0.0,0.0,0.0,0.0,0.0,0.0,0.0,0.0,0.0,0.0,0.0,0.0,0.0,0.0,0.0,0.0,0.0,0.0,0.0,0.0,0.0,0.0,0.0,0.0,0.0,0.0,0.0,0.0,0.0,0.0,0.0,0.0,0.0,0.0,0.0,0.0,-0.8853,8.709,1.9045,8.4229,15.5029,-0.1831,82.3425,0.2802,-22.1649,0.6457,0.1283,-0.1431,0.739,-1.0767,9.4985,-1.8375,45.0439,20.813,6.4697,102.9364,0.0714,-21.5881,0.7683,0.1469,-0.1162,0.612,-0.7704,9.7521,-1.8471,28.0151,7.9346,3.479,105.0897,-6.1853,-15.5621,0.7898,0.0748,-0.1246,0.5959,-0.8374,0.4929,9.8431,7.4463,4.2725,2.5635,4.7516,5.4163,-95.9052,-0.0073,0.0624,-0.7398,0.6699,0.3972,7.7759,-0.9522,-62.1948,15.9302,-2.3804,82.4908,-0.9338,-22.6868,0.6476,0.1237,-0.1532,0.7361,0.8278,7.0916,-6.8715,-206.4819,-36.2549,-51.1475,122.3657,-9.6844,-22.8241,0.8638,0.1329,-0.1675,0.4562,0.1675,1.9284,12.3983,-206.7871,-33.9966,-2.0752,24.0326,-4.3451,-96.3501,0.1664,0.1303,-0.7336,0.6459,0,0,0,0,0,0,0,0,0,0,0,0,0,0,0,0,0,0,0,0,0,0,0,0,0,0,0,0,0,0,0,0,0,0,0,0
1777288144.556167,228670,1777288139.8335621,1777288142.922286,1777288140.7129178,0,0,-3088.72389793396,-879.3556690216064,1,1,0.0,0.0,0.0,0.0,0.0,0.0,0.0,0.0,0.0,0.0,0.0,0.0,0.0,0.0,0.0,0.0,0.0,0.0,0.0,0.0,0.0,0.0,0.0,0.0,0.0,0.0,0.0,0.0,0.0,0.0,0.0,0.0,0.0,0.0,0.0,0.0,0.0,0.0,0.0,0.0,0.0,0.0,0.0,0.0,0.0,0.0,0.0,0.0,0.0,0.0,0.0,0.0,0.0,0.0,0.0,0.0,0.0,0.0,0.0,0.0,0.0,0.0,0.0,0.0,0.0,0.0,0.0,0.0,0.0,0.0,0.0,0.0,0.0,0.0,0.0,-0.8853,8.709,1.9045,8.4229,15.5029,-0.1831,82.3425,0.2802,-22.1649,0.6457,0.1283,-0.1431,0.739,-1.0767,9.4985,-1.8375,45.0439,20.813,6.4697,102.9364,0.0714,-21.5881,0.7683,0.1469,-0.1162,0.612,-0.7704,9.7521,-1.8471,28.0151,7.9346,3.479,105.0897,-6.1853,-15.5621,0.7898,0.0748,-0.1246,0.5959,-0.8374,0.4929,9.8431,7.4463,4.2725,2.5635,4.7516,5.4163,-95.9052,-0.0073,0.0624,-0.7398,0.6699,0.3972,7.7759,-0.9522,-62.1948,15.9302,-2.3804,82.4908,-0.9338,-22.6868,0.6476,0.1237,-0.1532,0.7361,0.8278,7.0916,-6.8715,-206.4819,-36.2549,-51.1475,122.3657,-9.6844,-22.8241,0.8638,0.1329,-0.1675,0.4562,0.1675,1.9284,12.3983,-206.7871,-33.9966,-2.0752,24.0326,-4.3451,-96.3501,0.1664,0.1303,-0.7336,0.6459,0,0,0,0,0,0,0,0,0,0,0,0,0,0,0,0,0,0,0,0,0,0,0,0,0,0,0,0,0,0,0,0,0,0,0,0
1777288144.556167,228671,1777288139.8438137,1777288142.922286,1777288140.7129178,0,0,-3078.472375869751,-869.1041469573975,1,1,0.0,0.0,0.0,0.0,0.0,0.0,0.0,0.0,0.0,0.0,0.0,0.0,0.0,0.0,0.0,0.0,0.0,0.0,0.0,0.0,0.0,0.0,0.0,0.0,0.0,0.0,0.0,0.0,0.0,0.0,0.0,0.0,0.0,0.0,0.0,0.0,0.0,0.0,0.0,0.0,0.0,0.0,0.0,0.0,0.0,0.0,0.0,0.0,0.0,0.0,0.0,0.0,0.0,0.0,0.0,0.0,0.0,0.0,0.0,0.0,0.0,0.0,0.0,0.0,0.0,0.0,0.0,0.0,0.0,0.0,0.0,0.0,0.0,0.0,0.0,-0.8853,8.709,1.9045,8.4229,15.5029,-0.1831,82.3425,0.2802,-22.1649,0.6457,0.1283,-0.1431,0.739,-1.0767,9.4985,-1.8375,45.0439,20.813,6.4697,102.9364,0.0714,-21.5881,0.7683,0.1469,-0.1162,0.612,-0.7704,9.7521,-1.8471,28.0151,7.9346,3.479,105.0897,-6.1853,-15.5621,0.7898,0.0748,-0.1246,0.5959,-0.8374,0.4929,9.8431,7.4463,4.2725,2.5635,4.7516,5.4163,-95.9052,-0.0073,0.0624,-0.7398,0.6699,0.3972,7.7759,-0.9522,-62.1948,15.9302,-2.3804,82.4908,-0.9338,-22.6868,0.6476,0.1237,-0.1532,0.7361,0.8278,7.0916,-6.8715,-206.4819,-36.2549,-51.1475,122.3657,-9.6844,-22.8241,0.8638,0.1329,-0.1675,0.4562,0.1675,1.9284,12.3983,-206.7871,-33.9966,-2.0752,24.0326,-4.3451,-96.3501,0.1664,0.1303,-0.7336,0.6459,0,0,0,0,0,0,0,0,0,0,0,0,0,0,0,0,0,0,0,0,0,0,0,0,0,0,0,0,0,0,0,0,0,0,0,0
1777288144.556167,228672,1777288139.8604622,1777288142.922286,1777288140.7129178,0,0,-3061.823844909668,-852.4556159973145,1,1,0.0,0.0,0.0,0.0,0.0,0.0,0.0,0.0,0.0,0.0,0.0,0.0,0.0,0.0,0.0,0.0,0.0,0.0,0.0,0.0,0.0,0.0,0.0,0.0,0.0,0.0,0.0,0.0,0.0,0.0,0.0,0.0,0.0,0.0,0.0,0.0,0.0,0.0,0.0,0.0,0.0,0.0,0.0,0.0,0.0,0.0,0.0,0.0,0.0,0.0,0.0,0.0,0.0,0.0,0.0,0.0,0.0,0.0,0.0,0.0,0.0,0.0,0.0,0.0,0.0,0.0,0.0,0.0,0.0,0.0,0.0,0.0,0.0,0.0,0.0,-0.8853,8.709,1.9045,8.4229,15.5029,-0.1831,82.3425,0.2802,-22.1649,0.6457,0.1283,-0.1431,0.739,-1.0767,9.4985,-1.8375,45.0439,20.813,6.4697,102.9364,0.0714,-21.5881,0.7683,0.1469,-0.1162,0.612,-0.7704,9.7521,-1.8471,28.0151,7.9346,3.479,105.0897,-6.1853,-15.5621,0.7898,0.0748,-0.1246,0.5959,-0.8374,0.4929,9.8431,7.4463,4.2725,2.5635,4.7516,5.4163,-95.9052,-0.0073,0.0624,-0.7398,0.6699,0.3972,7.7759,-0.9522,-62.1948,15.9302,-2.3804,82.4908,-0.9338,-22.6868,0.6476,0.1237,-0.1532,0.7361,0.8278,7.0916,-6.8715,-206.4819,-36.2549,-51.1475,122.3657,-9.6844,-22.8241,0.8638,0.1329,-0.1675,0.4562,0.1675,1.9284,12.3983,-206.7871,-33.9966,-2.0752,24.0326,-4.3451,-96.3501,0.1664,0.1303,-0.7336,0.6459,0,0,0,0,0,0,0,0,0,0,0,0,0,0,0,0,0,0,0,0,0,0,0,0,0,0,0,0,0,0,0,0,0,0,0,0
1777288144.556167,228673,1777288139.8698258,1777288142.922286,1777288140.7129178,0,0,-3052.460193634033,-843.0919647216797,1,1,0.0,0.0,0.0,0.0,0.0,0.0,0.0,0.0,0.0,0.0,0.0,0.0,0.0,0.0,0.0,0.0,0.0,0.0,0.0,0.0,0.0,0.0,0.0,0.0,0.0,0.0,0.0,0.0,0.0,0.0,0.0,0.0,0.0,0.0,0.0,0.0,0.0,0.0,0.0,0.0,0.0,0.0,0.0,0.0,0.0,0.0,0.0,0.0,0.0,0.0,0.0,0.0,0.0,0.0,0.0,0.0,0.0,0.0,0.0,0.0,0.0,0.0,0.0,0.0,0.0,0.0,0.0,0.0,0.0,0.0,0.0,0.0,0.0,0.0,0.0,-0.8853,8.709,1.9045,8.4229,15.5029,-0.1831,82.3425,0.2802,-22.1649,0.6457,0.1283,-0.1431,0.739,-1.0767,9.4985,-1.8375,45.0439,20.813,6.4697,102.9364,0.0714,-21.5881,0.7683,0.1469,-0.1162,0.612,-0.7704,9.7521,-1.8471,28.0151,7.9346,3.479,105.0897,-6.1853,-15.5621,0.7898,0.0748,-0.1246,0.5959,-0.8374,0.4929,9.8431,7.4463,4.2725,2.5635,4.7516,5.4163,-95.9052,-0.0073,0.0624,-0.7398,0.6699,0.3972,7.7759,-0.9522,-62.1948,15.9302,-2.3804,82.4908,-0.9338,-22.6868,0.6476,0.1237,-0.1532,0.7361,0.8278,7.0916,-6.8715,-206.4819,-36.2549,-51.1475,122.3657,-9.6844,-22.8241,0.8638,0.1329,-0.1675,0.4562,0.1675,1.9284,12.3983,-206.7871,-33.9966,-2.0752,24.0326,-4.3451,-96.3501,0.1664,0.1303,-0.7336,0.6459,0,0,0,0,0,0,0,0,0,0,0,0,0,0,0,0,0,0,0,0,0,0,0,0,0,0,0,0,0,0,0,0,0,0,0,0
1777288144.556167,228674,1777288139.8804216,1777288142.922286,1777288140.7129178,0,0,-3041.8643951416016,-832.496166229248,1,1,0.0,0.0,0.0,0.0,0.0,0.0,0.0,0.0,0.0,0.0,0.0,0.0,0.0,0.0,0.0,0.0,0.0,0.0,0.0,0.0,0.0,0.0,0.0,0.0,0.0,0.0,0.0,0.0,0.0,0.0,0.0,0.0,0.0,0.0,0.0,0.0,0.0,0.0,0.0,0.0,0.0,0.0,0.0,0.0,0.0,0.0,0.0,0.0,0.0,0.0,0.0,0.0,0.0,0.0,0.0,0.0,0.0,0.0,0.0,0.0,0.0,0.0,0.0,0.0,0.0,0.0,0.0,0.0,0.0,0.0,0.0,0.0,0.0,0.0,0.0,-0.8853,8.709,1.9045,8.4229,15.5029,-0.1831,82.3425,0.2802,-22.1649,0.6457,0.1283,-0.1431,0.739,-1.0767,9.4985,-1.8375,45.0439,20.813,6.4697,102.9364,0.0714,-21.5881,0.7683,0.1469,-0.1162,0.612,-0.7704,9.7521,-1.8471,28.0151,7.9346,3.479,105.0897,-6.1853,-15.5621,0.7898,0.0748,-0.1246,0.5959,-0.8374,0.4929,9.8431,7.4463,4.2725,2.5635,4.7516,5.4163,-95.9052,-0.0073,0.0624,-0.7398,0.6699,0.3972,7.7759,-0.9522,-62.1948,15.9302,-2.3804,82.4908,-0.9338,-22.6868,0.6476,0.1237,-0.1532,0.7361,0.8278,7.0916,-6.8715,-206.4819,-36.2549,-51.1475,122.3657,-9.6844,-22.8241,0.8638,0.1329,-0.1675,0.4562,0.1675,1.9284,12.3983,-206.7871,-33.9966,-2.0752,24.0326,-4.3451,-96.3501,0.1664,0.1303,-0.7336,0.6459,0,0,0,0,0,0,0,0,0,0,0,0,0,0,0,0,0,0,0,0,0,0,0,0,0,0,0,0,0,0,0,0,0,0,0,0
1777288144.556167,228675,1777288139.88414,1777288142.922286,1777288140.7129178,0,0,-3038.1460189819336,-828.7777900695801,1,1,0.0,0.0,0.0,0.0,0.0,0.0,0.0,0.0,0.0,0.0,0.0,0.0,0.0,0.0,0.0,0.0,0.0,0.0,0.0,0.0,0.0,0.0,0.0,0.0,0.0,0.0,0.0,0.0,0.0,0.0,0.0,0.0,0.0,0.0,0.0,0.0,0.0,0.0,0.0,0.0,0.0,0.0,0.0,0.0,0.0,0.0,0.0,0.0,0.0,0.0,0.0,0.0,0.0,0.0,0.0,0.0,0.0,0.0,0.0,0.0,0.0,0.0,0.0,0.0,0.0,0.0,0.0,0.0,0.0,0.0,0.0,0.0,0.0,0.0,0.0,-0.8853,8.709,1.9045,8.4229,15.5029,-0.1831,82.3425,0.2802,-22.1649,0.6457,0.1283,-0.1431,0.739,-1.0767,9.4985,-1.8375,45.0439,20.813,6.4697,102.9364,0.0714,-21.5881,0.7683,0.1469,-0.1162,0.612,-0.7704,9.7521,-1.8471,28.0151,7.9346,3.479,105.0897,-6.1853,-15.5621,0.7898,0.0748,-0.1246,0.5959,-0.8374,0.4929,9.8431,7.4463,4.2725,2.5635,4.7516,5.4163,-95.9052,-0.0073,0.0624,-0.7398,0.6699,0.3972,7.7759,-0.9522,-62.1948,15.9302,-2.3804,82.4908,-0.9338,-22.6868,0.6476,0.1237,-0.1532,0.7361,0.8278,7.0916,-6.8715,-206.4819,-36.2549,-51.1475,122.3657,-9.6844,-22.8241,0.8638,0.1329,-0.1675,0.4562,0.1675,1.9284,12.3983,-206.7871,-33.9966,-2.0752,24.0326,-4.3451,-96.3501,0.1664,0.1303,-0.7336,0.6459,0,0,0,0,0,0,0,0,0,0,0,0,0,0,0,0,0,0,0,0,0,0,0,0,0,0,0,0,0,0,0,0,0,0,0,0
1777288144.5571735,228676,1777288139.8949435,1777288142.922286,1777288140.7129178,0,0,-3027.3425579071045,-817.974328994751,1,1,0.0,0.0,0.0,0.0,0.0,0.0,0.0,0.0,0.0,0.0,0.0,0.0,0.0,0.0,0.0,0.0,0.0,0.0,0.0,0.0,0.0,0.0,0.0,0.0,0.0,0.0,0.0,0.0,0.0,0.0,0.0,0.0,0.0,0.0,0.0,0.0,0.0,0.0,0.0,0.0,0.0,0.0,0.0,0.0,0.0,0.0,0.0,0.0,0.0,0.0,0.0,0.0,0.0,0.0,0.0,0.0,0.0,0.0,0.0,0.0,0.0,0.0,0.0,0.0,0.0,0.0,0.0,0.0,0.0,0.0,0.0,0.0,0.0,0.0,0.0,-0.8853,8.709,1.9045,8.4229,15.5029,-0.1831,82.3425,0.2802,-22.1649,0.6457,0.1283,-0.1431,0.739,-1.0767,9.4985,-1.8375,45.0439,20.813,6.4697,102.9364,0.0714,-21.5881,0.7683,0.1469,-0.1162,0.612,-0.7704,9.7521,-1.8471,28.0151,7.9346,3.479,105.0897,-6.1853,-15.5621,0.7898,0.0748,-0.1246,0.5959,-0.8374,0.4929,9.8431,7.4463,4.2725,2.5635,4.7516,5.4163,-95.9052,-0.0073,0.0624,-0.7398,0.6699,0.3972,7.7759,-0.9522,-62.1948,15.9302,-2.3804,82.4908,-0.9338,-22.6868,0.6476,0.1237,-0.1532,0.7361,0.8278,7.0916,-6.8715,-206.4819,-36.2549,-51.1475,122.3657,-9.6844,-22.8241,0.8638,0.1329,-0.1675,0.4562,0.1675,1.9284,12.3983,-206.7871,-33.9966,-2.0752,24.0326,-4.3451,-96.3501,0.1664,0.1303,-0.7336,0.6459,0,0,0,0,0,0,0,0,0,0,0,0,0,0,0,0,0,0,0,0,0,0,0,0,0,0,0,0,0,0,0,0,0,0,0,0
1777288144.5571735,228677,1777288139.9024985,1777288142.922286,1777288140.7129178,0,0,-3019.787549972534,-810.4193210601807,1,1,0.0,0.0,0.0,0.0,0.0,0.0,0.0,0.0,0.0,0.0,0.0,0.0,0.0,0.0,0.0,0.0,0.0,0.0,0.0,0.0,0.0,0.0,0.0,0.0,0.0,0.0,0.0,0.0,0.0,0.0,0.0,0.0,0.0,0.0,0.0,0.0,0.0,0.0,0.0,0.0,0.0,0.0,0.0,0.0,0.0,0.0,0.0,0.0,0.0,0.0,0.0,0.0,0.0,0.0,0.0,0.0,0.0,0.0,0.0,0.0,0.0,0.0,0.0,0.0,0.0,0.0,0.0,0.0,0.0,0.0,0.0,0.0,0.0,0.0,0.0,-0.8853,8.709,1.9045,8.4229,15.5029,-0.1831,82.3425,0.2802,-22.1649,0.6457,0.1283,-0.1431,0.739,-1.0767,9.4985,-1.8375,45.0439,20.813,6.4697,102.9364,0.0714,-21.5881,0.7683,0.1469,-0.1162,0.612,-0.7704,9.7521,-1.8471,28.0151,7.9346,3.479,105.0897,-6.1853,-15.5621,0.7898,0.0748,-0.1246,0.5959,-0.8374,0.4929,9.8431,7.4463,4.2725,2.5635,4.7516,5.4163,-95.9052,-0.0073,0.0624,-0.7398,0.6699,0.3972,7.7759,-0.9522,-62.1948,15.9302,-2.3804,82.4908,-0.9338,-22.6868,0.6476,0.1237,-0.1532,0.7361,0.8278,7.0916,-6.8715,-206.4819,-36.2549,-51.1475,122.3657,-9.6844,-22.8241,0.8638,0.1329,-0.1675,0.4562,0.1675,1.9284,12.3983,-206.7871,-33.9966,-2.0752,24.0326,-4.3451,-96.3501,0.1664,0.1303,-0.7336,0.6459,0,0,0,0,0,0,0,0,0,0,0,0,0,0,0,0,0,0,0,0,0,0,0,0,0,0,0,0,0,0,0,0,0,0,0,0
1777288144.5571735,228678,1777288139.9219165,1777288142.922286,1777288140.7129178,0,0,-3000.3695487976074,-791.0013198852539,1,1,0.0,0.0,0.0,0.0,0.0,0.0,0.0,0.0,0.0,0.0,0.0,0.0,0.0,0.0,0.0,0.0,0.0,0.0,0.0,0.0,0.0,0.0,0.0,0.0,0.0,0.0,0.0,0.0,0.0,0.0,0.0,0.0,0.0,0.0,0.0,0.0,0.0,0.0,0.0,0.0,0.0,0.0,0.0,0.0,0.0,0.0,0.0,0.0,0.0,0.0,0.0,0.0,0.0,0.0,0.0,0.0,0.0,0.0,0.0,0.0,0.0,0.0,0.0,0.0,0.0,0.0,0.0,0.0,0.0,0.0,0.0,0.0,0.0,0.0,0.0,-0.8853,8.709,1.9045,8.4229,15.5029,-0.1831,82.3425,0.2802,-22.1649,0.6457,0.1283,-0.1431,0.739,-1.0767,9.4985,-1.8375,45.0439,20.813,6.4697,102.9364,0.0714,-21.5881,0.7683,0.1469,-0.1162,0.612,-0.7704,9.7521,-1.8471,28.0151,7.9346,3.479,105.0897,-6.1853,-15.5621,0.7898,0.0748,-0.1246,0.5959,-0.8374,0.4929,9.8431,7.4463,4.2725,2.5635,4.7516,5.4163,-95.9052,-0.0073,0.0624,-0.7398,0.6699,0.3972,7.7759,-0.9522,-62.1948,15.9302,-2.3804,82.4908,-0.9338,-22.6868,0.6476,0.1237,-0.1532,0.7361,0.8278,7.0916,-6.8715,-206.4819,-36.2549,-51.1475,122.3657,-9.6844,-22.8241,0.8638,0.1329,-0.1675,0.4562,0.1675,1.9284,12.3983,-206.7871,-33.9966,-2.0752,24.0326,-4.3451,-96.3501,0.1664,0.1303,-0.7336,0.6459,0,0,0,0,0,0,0,0,0,0,0,0,0,0,0,0,0,0,0,0,0,0,0,0,0,0,0,0,0,0,0,0,0,0,0,0
1777288144.5571735,228679,1777288139.9242573,1777288142.922286,1777288140.7129178,0,0,-2998.0287551879883,-788.6605262756348,1,1,0.0,0.0,0.0,0.0,0.0,0.0,0.0,0.0,0.0,0.0,0.0,0.0,0.0,0.0,0.0,0.0,0.0,0.0,0.0,0.0,0.0,0.0,0.0,0.0,0.0,0.0,0.0,0.0,0.0,0.0,0.0,0.0,0.0,0.0,0.0,0.0,0.0,0.0,0.0,0.0,0.0,0.0,0.0,0.0,0.0,0.0,0.0,0.0,0.0,0.0,0.0,0.0,0.0,0.0,0.0,0.0,0.0,0.0,0.0,0.0,0.0,0.0,0.0,0.0,0.0,0.0,0.0,0.0,0.0,0.0,0.0,0.0,0.0,0.0,0.0,-0.8853,8.709,1.9045,8.4229,15.5029,-0.1831,82.3425,0.2802,-22.1649,0.6457,0.1283,-0.1431,0.739,-1.0767,9.4985,-1.8375,45.0439,20.813,6.4697,102.9364,0.0714,-21.5881,0.7683,0.1469,-0.1162,0.612,-0.7704,9.7521,-1.8471,28.0151,7.9346,3.479,105.0897,-6.1853,-15.5621,0.7898,0.0748,-0.1246,0.5959,-0.8374,0.4929,9.8431,7.4463,4.2725,2.5635,4.7516,5.4163,-95.9052,-0.0073,0.0624,-0.7398,0.6699,0.3972,7.7759,-0.9522,-62.1948,15.9302,-2.3804,82.4908,-0.9338,-22.6868,0.6476,0.1237,-0.1532,0.7361,0.8278,7.0916,-6.8715,-206.4819,-36.2549,-51.1475,122.3657,-9.6844,-22.8241,0.8638,0.1329,-0.1675,0.4562,0.1675,1.9284,12.3983,-206.7871,-33.9966,-2.0752,24.0326,-4.3451,-96.3501,0.1664,0.1303,-0.7336,0.6459,0,0,0,0,0,0,0,0,0,0,0,0,0,0,0,0,0,0,0,0,0,0,0,0,0,0,0,0,0,0,0,0,0,0,0,0
1777288144.5571735,228680,1777288139.9328558,1777288142.922286,1777288140.7129178,0,0,-2989.4301891326904,-780.0619602203369,1,1,0.0,0.0,0.0,0.0,0.0,0.0,0.0,0.0,0.0,0.0,0.0,0.0,0.0,0.0,0.0,0.0,0.0,0.0,0.0,0.0,0.0,0.0,0.0,0.0,0.0,0.0,0.0,0.0,0.0,0.0,0.0,0.0,0.0,0.0,0.0,0.0,0.0,0.0,0.0,0.0,0.0,0.0,0.0,0.0,0.0,0.0,0.0,0.0,0.0,0.0,0.0,0.0,0.0,0.0,0.0,0.0,0.0,0.0,0.0,0.0,0.0,0.0,0.0,0.0,0.0,0.0,0.0,0.0,0.0,0.0,0.0,0.0,0.0,0.0,0.0,-0.8853,8.709,1.9045,8.4229,15.5029,-0.1831,82.3425,0.2802,-22.1649,0.6457,0.1283,-0.1431,0.739,-1.0767,9.4985,-1.8375,45.0439,20.813,6.4697,102.9364,0.0714,-21.5881,0.7683,0.1469,-0.1162,0.612,-0.7704,9.7521,-1.8471,28.0151,7.9346,3.479,105.0897,-6.1853,-15.5621,0.7898,0.0748,-0.1246,0.5959,-0.8374,0.4929,9.8431,7.4463,4.2725,2.5635,4.7516,5.4163,-95.9052,-0.0073,0.0624,-0.7398,0.6699,0.3972,7.7759,-0.9522,-62.1948,15.9302,-2.3804,82.4908,-0.9338,-22.6868,0.6476,0.1237,-0.1532,0.7361,0.8278,7.0916,-6.8715,-206.4819,-36.2549,-51.1475,122.3657,-9.6844,-22.8241,0.8638,0.1329,-0.1675,0.4562,0.1675,1.9284,12.3983,-206.7871,-33.9966,-2.0752,24.0326,-4.3451,-96.3501,0.1664,0.1303,-0.7336,0.6459,0,0,0,0,0,0,0,0,0,0,0,0,0,0,0,0,0,0,0,0,0,0,0,0,0,0,0,0,0,0,0,0,0,0,0,0
1777288144.5571735,228681,1777288139.948186,1777288142.922286,1777288140.7129178,0,0,-2974.100112915039,-764.7318840026855,1,1,0.0,0.0,0.0,0.0,0.0,0.0,0.0,0.0,0.0,0.0,0.0,0.0,0.0,0.0,0.0,0.0,0.0,0.0,0.0,0.0,0.0,0.0,0.0,0.0,0.0,0.0,0.0,0.0,0.0,0.0,0.0,0.0,0.0,0.0,0.0,0.0,0.0,0.0,0.0,0.0,0.0,0.0,0.0,0.0,0.0,0.0,0.0,0.0,0.0,0.0,0.0,0.0,0.0,0.0,0.0,0.0,0.0,0.0,0.0,0.0,0.0,0.0,0.0,0.0,0.0,0.0,0.0,0.0,0.0,0.0,0.0,0.0,0.0,0.0,0.0,-0.8853,8.709,1.9045,8.4229,15.5029,-0.1831,82.3425,0.2802,-22.1649,0.6457,0.1283,-0.1431,0.739,-1.0767,9.4985,-1.8375,45.0439,20.813,6.4697,102.9364,0.0714,-21.5881,0.7683,0.1469,-0.1162,0.612,-0.7704,9.7521,-1.8471,28.0151,7.9346,3.479,105.0897,-6.1853,-15.5621,0.7898,0.0748,-0.1246,0.5959,-0.8374,0.4929,9.8431,7.4463,4.2725,2.5635,4.7516,5.4163,-95.9052,-0.0073,0.0624,-0.7398,0.6699,0.3972,7.7759,-0.9522,-62.1948,15.9302,-2.3804,82.4908,-0.9338,-22.6868,0.6476,0.1237,-0.1532,0.7361,0.8278,7.0916,-6.8715,-206.4819,-36.2549,-51.1475,122.3657,-9.6844,-22.8241,0.8638,0.1329,-0.1675,0.4562,0.1675,1.9284,12.3983,-206.7871,-33.9966,-2.0752,24.0326,-4.3451,-96.3501,0.1664,0.1303,-0.7336,0.6459,0,0,0,0,0,0,0,0,0,0,0,0,0,0,0,0,0,0,0,0,0,0,0,0,0,0,0,0,0,0,0,0,0,0,0,0
1777288144.5571735,228682,1777288139.952818,1777288142.922286,1777288140.7129178,0,0,-2969.468116760254,-760.0998878479004,1,1,0.0,0.0,0.0,0.0,0.0,0.0,0.0,0.0,0.0,0.0,0.0,0.0,0.0,0.0,0.0,0.0,0.0,0.0,0.0,0.0,0.0,0.0,0.0,0.0,0.0,0.0,0.0,0.0,0.0,0.0,0.0,0.0,0.0,0.0,0.0,0.0,0.0,0.0,0.0,0.0,0.0,0.0,0.0,0.0,0.0,0.0,0.0,0.0,0.0,0.0,0.0,0.0,0.0,0.0,0.0,0.0,0.0,0.0,0.0,0.0,0.0,0.0,0.0,0.0,0.0,0.0,0.0,0.0,0.0,0.0,0.0,0.0,0.0,0.0,0.0,-0.8853,8.709,1.9045,8.4229,15.5029,-0.1831,82.3425,0.2802,-22.1649,0.6457,0.1283,-0.1431,0.739,-1.0767,9.4985,-1.8375,45.0439,20.813,6.4697,102.9364,0.0714,-21.5881,0.7683,0.1469,-0.1162,0.612,-0.7704,9.7521,-1.8471,28.0151,7.9346,3.479,105.0897,-6.1853,-15.5621,0.7898,0.0748,-0.1246,0.5959,-0.8374,0.4929,9.8431,7.4463,4.2725,2.5635,4.7516,5.4163,-95.9052,-0.0073,0.0624,-0.7398,0.6699,0.3972,7.7759,-0.9522,-62.1948,15.9302,-2.3804,82.4908,-0.9338,-22.6868,0.6476,0.1237,-0.1532,0.7361,0.8278,7.0916,-6.8715,-206.4819,-36.2549,-51.1475,122.3657,-9.6844,-22.8241,0.8638,0.1329,-0.1675,0.4562,0.1675,1.9284,12.3983,-206.7871,-33.9966,-2.0752,24.0326,-4.3451,-96.3501,0.1664,0.1303,-0.7336,0.6459,0,0,0,0,0,0,0,0,0,0,0,0,0,0,0,0,0,0,0,0,0,0,0,0,0,0,0,0,0,0,0,0,0,0,0,0
1777288144.5571735,228683,1777288139.9634643,1777288142.922286,1777288140.7129178,0,0,-2958.8217735290527,-749.4535446166992,1,1,0.0,0.0,0.0,0.0,0.0,0.0,0.0,0.0,0.0,0.0,0.0,0.0,0.0,0.0,0.0,0.0,0.0,0.0,0.0,0.0,0.0,0.0,0.0,0.0,0.0,0.0,0.0,0.0,0.0,0.0,0.0,0.0,0.0,0.0,0.0,0.0,0.0,0.0,0.0,0.0,0.0,0.0,0.0,0.0,0.0,0.0,0.0,0.0,0.0,0.0,0.0,0.0,0.0,0.0,0.0,0.0,0.0,0.0,0.0,0.0,0.0,0.0,0.0,0.0,0.0,0.0,0.0,0.0,0.0,0.0,0.0,0.0,0.0,0.0,0.0,-0.8853,8.709,1.9045,8.4229,15.5029,-0.1831,82.3425,0.2802,-22.1649,0.6457,0.1283,-0.1431,0.739,-1.0767,9.4985,-1.8375,45.0439,20.813,6.4697,102.9364,0.0714,-21.5881,0.7683,0.1469,-0.1162,0.612,-0.7704,9.7521,-1.8471,28.0151,7.9346,3.479,105.0897,-6.1853,-15.5621,0.7898,0.0748,-0.1246,0.5959,-0.8374,0.4929,9.8431,7.4463,4.2725,2.5635,4.7516,5.4163,-95.9052,-0.0073,0.0624,-0.7398,0.6699,0.3972,7.7759,-0.9522,-62.1948,15.9302,-2.3804,82.4908,-0.9338,-22.6868,0.6476,0.1237,-0.1532,0.7361,0.8278,7.0916,-6.8715,-206.4819,-36.2549,-51.1475,122.3657,-9.6844,-22.8241,0.8638,0.1329,-0.1675,0.4562,0.1675,1.9284,12.3983,-206.7871,-33.9966,-2.0752,24.0326,-4.3451,-96.3501,0.1664,0.1303,-0.7336,0.6459,0,0,0,0,0,0,0,0,0,0,0,0,0,0,0,0,0,0,0,0,0,0,0,0,0,0,0,0,0,0,0,0,0,0,0,0
1777288144.5571735,228684,1777288139.9721656,1777288142.922286,1777288140.7129178,0,0,-2950.120449066162,-740.7522201538086,1,1,0.0,0.0,0.0,0.0,0.0,0.0,0.0,0.0,0.0,0.0,0.0,0.0,0.0,0.0,0.0,0.0,0.0,0.0,0.0,0.0,0.0,0.0,0.0,0.0,0.0,0.0,0.0,0.0,0.0,0.0,0.0,0.0,0.0,0.0,0.0,0.0,0.0,0.0,0.0,0.0,0.0,0.0,0.0,0.0,0.0,0.0,0.0,0.0,0.0,0.0,0.0,0.0,0.0,0.0,0.0,0.0,0.0,0.0,0.0,0.0,0.0,0.0,0.0,0.0,0.0,0.0,0.0,0.0,0.0,0.0,0.0,0.0,0.0,0.0,0.0,-0.8853,8.709,1.9045,8.4229,15.5029,-0.1831,82.3425,0.2802,-22.1649,0.6457,0.1283,-0.1431,0.739,-1.0767,9.4985,-1.8375,45.0439,20.813,6.4697,102.9364,0.0714,-21.5881,0.7683,0.1469,-0.1162,0.612,-0.7704,9.7521,-1.8471,28.0151,7.9346,3.479,105.0897,-6.1853,-15.5621,0.7898,0.0748,-0.1246,0.5959,-0.8374,0.4929,9.8431,7.4463,4.2725,2.5635,4.7516,5.4163,-95.9052,-0.0073,0.0624,-0.7398,0.6699,0.3972,7.7759,-0.9522,-62.1948,15.9302,-2.3804,82.4908,-0.9338,-22.6868,0.6476,0.1237,-0.1532,0.7361,0.8278,7.0916,-6.8715,-206.4819,-36.2549,-51.1475,122.3657,-9.6844,-22.8241,0.8638,0.1329,-0.1675,0.4562,0.1675,1.9284,12.3983,-206.7871,-33.9966,-2.0752,24.0326,-4.3451,-96.3501,0.1664,0.1303,-0.7336,0.6459,0,0,0,0,0,0,0,0,0,0,0,0,0,0,0,0,0,0,0,0,0,0,0,0,0,0,0,0,0,0,0,0,0,0,0,0
1777288144.5571735,228685,1777288139.983284,1777288142.922286,1777288140.7129178,0,0,-2939.00203704834,-729.6338081359863,1,1,0.0,0.0,0.0,0.0,0.0,0.0,0.0,0.0,0.0,0.0,0.0,0.0,0.0,0.0,0.0,0.0,0.0,0.0,0.0,0.0,0.0,0.0,0.0,0.0,0.0,0.0,0.0,0.0,0.0,0.0,0.0,0.0,0.0,0.0,0.0,0.0,0.0,0.0,0.0,0.0,0.0,0.0,0.0,0.0,0.0,0.0,0.0,0.0,0.0,0.0,0.0,0.0,0.0,0.0,0.0,0.0,0.0,0.0,0.0,0.0,0.0,0.0,0.0,0.0,0.0,0.0,0.0,0.0,0.0,0.0,0.0,0.0,0.0,0.0,0.0,-0.8853,8.709,1.9045,8.4229,15.5029,-0.1831,82.3425,0.2802,-22.1649,0.6457,0.1283,-0.1431,0.739,-1.0767,9.4985,-1.8375,45.0439,20.813,6.4697,102.9364,0.0714,-21.5881,0.7683,0.1469,-0.1162,0.612,-0.7704,9.7521,-1.8471,28.0151,7.9346,3.479,105.0897,-6.1853,-15.5621,0.7898,0.0748,-0.1246,0.5959,-0.8374,0.4929,9.8431,7.4463,4.2725,2.5635,4.7516,5.4163,-95.9052,-0.0073,0.0624,-0.7398,0.6699,0.3972,7.7759,-0.9522,-62.1948,15.9302,-2.3804,82.4908,-0.9338,-22.6868,0.6476,0.1237,-0.1532,0.7361,0.8278,7.0916,-6.8715,-206.4819,-36.2549,-51.1475,122.3657,-9.6844,-22.8241,0.8638,0.1329,-0.1675,0.4562,0.1675,1.9284,12.3983,-206.7871,-33.9966,-2.0752,24.0326,-4.3451,-96.3501,0.1664,0.1303,-0.7336,0.6459,0,0,0,0,0,0,0,0,0,0,0,0,0,0,0,0,0,0,0,0,0,0,0,0,0,0,0,0,0,0,0,0,0,0,0,0
1777288144.5571735,228686,1777288139.9926908,1777288142.922286,1777288140.7129178,0,0,-2929.5952320098877,-720.2270030975342,1,1,0.0,0.0,0.0,0.0,0.0,0.0,0.0,0.0,0.0,0.0,0.0,0.0,0.0,0.0,0.0,0.0,0.0,0.0,0.0,0.0,0.0,0.0,0.0,0.0,0.0,0.0,0.0,0.0,0.0,0.0,0.0,0.0,0.0,0.0,0.0,0.0,0.0,0.0,0.0,0.0,0.0,0.0,0.0,0.0,0.0,0.0,0.0,0.0,0.0,0.0,0.0,0.0,0.0,0.0,0.0,0.0,0.0,0.0,0.0,0.0,0.0,0.0,0.0,0.0,0.0,0.0,0.0,0.0,0.0,0.0,0.0,0.0,0.0,0.0,0.0,-0.8853,8.709,1.9045,8.4229,15.5029,-0.1831,82.3425,0.2802,-22.1649,0.6457,0.1283,-0.1431,0.739,-1.0767,9.4985,-1.8375,45.0439,20.813,6.4697,102.9364,0.0714,-21.5881,0.7683,0.1469,-0.1162,0.612,-0.7704,9.7521,-1.8471,28.0151,7.9346,3.479,105.0897,-6.1853,-15.5621,0.7898,0.0748,-0.1246,0.5959,-0.8374,0.4929,9.8431,7.4463,4.2725,2.5635,4.7516,5.4163,-95.9052,-0.0073,0.0624,-0.7398,0.6699,0.3972,7.7759,-0.9522,-62.1948,15.9302,-2.3804,82.4908,-0.9338,-22.6868,0.6476,0.1237,-0.1532,0.7361,0.8278,7.0916,-6.8715,-206.4819,-36.2549,-51.1475,122.3657,-9.6844,-22.8241,0.8638,0.1329,-0.1675,0.4562,0.1675,1.9284,12.3983,-206.7871,-33.9966,-2.0752,24.0326,-4.3451,-96.3501,0.1664,0.1303,-0.7336,0.6459,0,0,0,0,0,0,0,0,0,0,0,0,0,0,0,0,0,0,0,0,0,0,0,0,0,0,0,0,0,0,0,0,0,0,0,0
1777288144.5581758,228687,1777288140.0035486,1777288142.922286,1777288140.7129178,0,0,-2918.7374114990234,-709.3691825866699,1,1,0.0,0.0,0.0,0.0,0.0,0.0,0.0,0.0,0.0,0.0,0.0,0.0,0.0,0.0,0.0,0.0,0.0,0.0,0.0,0.0,0.0,0.0,0.0,0.0,0.0,0.0,0.0,0.0,0.0,0.0,0.0,0.0,0.0,0.0,0.0,0.0,0.0,0.0,0.0,0.0,0.0,0.0,0.0,0.0,0.0,0.0,0.0,0.0,0.0,0.0,0.0,0.0,0.0,0.0,0.0,0.0,0.0,0.0,0.0,0.0,0.0,0.0,0.0,0.0,0.0,0.0,0.0,0.0,0.0,0.0,0.0,0.0,0.0,0.0,0.0,-0.8853,8.709,1.9045,8.4229,15.5029,-0.1831,82.3425,0.2802,-22.1649,0.6457,0.1283,-0.1431,0.739,-1.0767,9.4985,-1.8375,45.0439,20.813,6.4697,102.9364,0.0714,-21.5881,0.7683,0.1469,-0.1162,0.612,-0.7704,9.7521,-1.8471,28.0151,7.9346,3.479,105.0897,-6.1853,-15.5621,0.7898,0.0748,-0.1246,0.5959,-0.8374,0.4929,9.8431,7.4463,4.2725,2.5635,4.7516,5.4163,-95.9052,-0.0073,0.0624,-0.7398,0.6699,0.3972,7.7759,-0.9522,-62.1948,15.9302,-2.3804,82.4908,-0.9338,-22.6868,0.6476,0.1237,-0.1532,0.7361,0.8278,7.0916,-6.8715,-206.4819,-36.2549,-51.1475,122.3657,-9.6844,-22.8241,0.8638,0.1329,-0.1675,0.4562,0.1675,1.9284,12.3983,-206.7871,-33.9966,-2.0752,24.0326,-4.3451,-96.3501,0.1664,0.1303,-0.7336,0.6459,0,0,0,0,0,0,0,0,0,0,0,0,0,0,0,0,0,0,0,0,0,0,0,0,0,0,0,0,0,0,0,0,0,0,0,0
1777288144.5581758,228688,1777288140.0126312,1777288142.922286,1777288140.7129178,0,0,-2909.6548557281494,-700.2866268157959,1,1,0.0,0.0,0.0,0.0,0.0,0.0,0.0,0.0,0.0,0.0,0.0,0.0,0.0,0.0,0.0,0.0,0.0,0.0,0.0,0.0,0.0,0.0,0.0,0.0,0.0,0.0,0.0,0.0,0.0,0.0,0.0,0.0,0.0,0.0,0.0,0.0,0.0,0.0,0.0,0.0,0.0,0.0,0.0,0.0,0.0,0.0,0.0,0.0,0.0,0.0,0.0,0.0,0.0,0.0,0.0,0.0,0.0,0.0,0.0,0.0,0.0,0.0,0.0,0.0,0.0,0.0,0.0,0.0,0.0,0.0,0.0,0.0,0.0,0.0,0.0,-0.8853,8.709,1.9045,8.4229,15.5029,-0.1831,82.3425,0.2802,-22.1649,0.6457,0.1283,-0.1431,0.739,-1.0767,9.4985,-1.8375,45.0439,20.813,6.4697,102.9364,0.0714,-21.5881,0.7683,0.1469,-0.1162,0.612,-0.7704,9.7521,-1.8471,28.0151,7.9346,3.479,105.0897,-6.1853,-15.5621,0.7898,0.0748,-0.1246,0.5959,-0.8374,0.4929,9.8431,7.4463,4.2725,2.5635,4.7516,5.4163,-95.9052,-0.0073,0.0624,-0.7398,0.6699,0.3972,7.7759,-0.9522,-62.1948,15.9302,-2.3804,82.4908,-0.9338,-22.6868,0.6476,0.1237,-0.1532,0.7361,0.8278,7.0916,-6.8715,-206.4819,-36.2549,-51.1475,122.3657,-9.6844,-22.8241,0.8638,0.1329,-0.1675,0.4562,0.1675,1.9284,12.3983,-206.7871,-33.9966,-2.0752,24.0326,-4.3451,-96.3501,0.1664,0.1303,-0.7336,0.6459,0,0,0,0,0,0,0,0,0,0,0,0,0,0,0,0,0,0,0,0,0,0,0,0,0,0,0,0,0,0,0,0,0,0,0,0
1777288144.5581758,228689,1777288140.0266085,1777288142.922286,1777288140.7129178,0,0,-2895.6775665283203,-686.3093376159668,1,1,0.0,0.0,0.0,0.0,0.0,0.0,0.0,0.0,0.0,0.0,0.0,0.0,0.0,0.0,0.0,0.0,0.0,0.0,0.0,0.0,0.0,0.0,0.0,0.0,0.0,0.0,0.0,0.0,0.0,0.0,0.0,0.0,0.0,0.0,0.0,0.0,0.0,0.0,0.0,0.0,0.0,0.0,0.0,0.0,0.0,0.0,0.0,0.0,0.0,0.0,0.0,0.0,0.0,0.0,0.0,0.0,0.0,0.0,0.0,0.0,0.0,0.0,0.0,0.0,0.0,0.0,0.0,0.0,0.0,0.0,0.0,0.0,0.0,0.0,0.0,-0.8853,8.709,1.9045,8.4229,15.5029,-0.1831,82.3425,0.2802,-22.1649,0.6457,0.1283,-0.1431,0.739,-1.0767,9.4985,-1.8375,45.0439,20.813,6.4697,102.9364,0.0714,-21.5881,0.7683,0.1469,-0.1162,0.612,-0.7704,9.7521,-1.8471,28.0151,7.9346,3.479,105.0897,-6.1853,-15.5621,0.7898,0.0748,-0.1246,0.5959,-0.8374,0.4929,9.8431,7.4463,4.2725,2.5635,4.7516,5.4163,-95.9052,-0.0073,0.0624,-0.7398,0.6699,0.3972,7.7759,-0.9522,-62.1948,15.9302,-2.3804,82.4908,-0.9338,-22.6868,0.6476,0.1237,-0.1532,0.7361,0.8278,7.0916,-6.8715,-206.4819,-36.2549,-51.1475,122.3657,-9.6844,-22.8241,0.8638,0.1329,-0.1675,0.4562,0.1675,1.9284,12.3983,-206.7871,-33.9966,-2.0752,24.0326,-4.3451,-96.3501,0.1664,0.1303,-0.7336,0.6459,0,0,0,0,0,0,0,0,0,0,0,0,0,0,0,0,0,0,0,0,0,0,0,0,0,0,0,0,0,0,0,0,0,0,0,0
1777288144.5581758,228690,1777288140.0328999,1777288142.922286,1777288140.7129178,0,0,-2889.3861770629883,-680.0179481506348,1,1,0.0,0.0,0.0,0.0,0.0,0.0,0.0,0.0,0.0,0.0,0.0,0.0,0.0,0.0,0.0,0.0,0.0,0.0,0.0,0.0,0.0,0.0,0.0,0.0,0.0,0.0,0.0,0.0,0.0,0.0,0.0,0.0,0.0,0.0,0.0,0.0,0.0,0.0,0.0,0.0,0.0,0.0,0.0,0.0,0.0,0.0,0.0,0.0,0.0,0.0,0.0,0.0,0.0,0.0,0.0,0.0,0.0,0.0,0.0,0.0,0.0,0.0,0.0,0.0,0.0,0.0,0.0,0.0,0.0,0.0,0.0,0.0,0.0,0.0,0.0,-0.8853,8.709,1.9045,8.4229,15.5029,-0.1831,82.3425,0.2802,-22.1649,0.6457,0.1283,-0.1431,0.739,-1.0767,9.4985,-1.8375,45.0439,20.813,6.4697,102.9364,0.0714,-21.5881,0.7683,0.1469,-0.1162,0.612,-0.7704,9.7521,-1.8471,28.0151,7.9346,3.479,105.0897,-6.1853,-15.5621,0.7898,0.0748,-0.1246,0.5959,-0.8374,0.4929,9.8431,7.4463,4.2725,2.5635,4.7516,5.4163,-95.9052,-0.0073,0.0624,-0.7398,0.6699,0.3972,7.7759,-0.9522,-62.1948,15.9302,-2.3804,82.4908,-0.9338,-22.6868,0.6476,0.1237,-0.1532,0.7361,0.8278,7.0916,-6.8715,-206.4819,-36.2549,-51.1475,122.3657,-9.6844,-22.8241,0.8638,0.1329,-0.1675,0.4562,0.1675,1.9284,12.3983,-206.7871,-33.9966,-2.0752,24.0326,-4.3451,-96.3501,0.1664,0.1303,-0.7336,0.6459,0,0,0,0,0,0,0,0,0,0,0,0,0,0,0,0,0,0,0,0,0,0,0,0,0,0,0,0,0,0,0,0,0,0,0,0
1777288144.5581758,228691,1777288140.043244,1777288142.922286,1777288140.7129178,0,0,-2879.042148590088,-669.6739196777344,1,1,0.0,0.0,0.0,0.0,0.0,0.0,0.0,0.0,0.0,0.0,0.0,0.0,0.0,0.0,0.0,0.0,0.0,0.0,0.0,0.0,0.0,0.0,0.0,0.0,0.0,0.0,0.0,0.0,0.0,0.0,0.0,0.0,0.0,0.0,0.0,0.0,0.0,0.0,0.0,0.0,0.0,0.0,0.0,0.0,0.0,0.0,0.0,0.0,0.0,0.0,0.0,0.0,0.0,0.0,0.0,0.0,0.0,0.0,0.0,0.0,0.0,0.0,0.0,0.0,0.0,0.0,0.0,0.0,0.0,0.0,0.0,0.0,0.0,0.0,0.0,-0.8853,8.709,1.9045,8.4229,15.5029,-0.1831,82.3425,0.2802,-22.1649,0.6457,0.1283,-0.1431,0.739,-1.0767,9.4985,-1.8375,45.0439,20.813,6.4697,102.9364,0.0714,-21.5881,0.7683,0.1469,-0.1162,0.612,-0.7704,9.7521,-1.8471,28.0151,7.9346,3.479,105.0897,-6.1853,-15.5621,0.7898,0.0748,-0.1246,0.5959,-0.8374,0.4929,9.8431,7.4463,4.2725,2.5635,4.7516,5.4163,-95.9052,-0.0073,0.0624,-0.7398,0.6699,0.3972,7.7759,-0.9522,-62.1948,15.9302,-2.3804,82.4908,-0.9338,-22.6868,0.6476,0.1237,-0.1532,0.7361,0.8278,7.0916,-6.8715,-206.4819,-36.2549,-51.1475,122.3657,-9.6844,-22.8241,0.8638,0.1329,-0.1675,0.4562,0.1675,1.9284,12.3983,-206.7871,-33.9966,-2.0752,24.0326,-4.3451,-96.3501,0.1664,0.1303,-0.7336,0.6459,0,0,0,0,0,0,0,0,0,0,0,0,0,0,0,0,0,0,0,0,0,0,0,0,0,0,0,0,0,0,0,0,0,0,0,0
1777288144.5581758,228692,1777288140.0533652,1777288142.922286,1777288140.7129178,0,0,-2868.9208030700684,-659.5525741577148,1,1,0.0,0.0,0.0,0.0,0.0,0.0,0.0,0.0,0.0,0.0,0.0,0.0,0.0,0.0,0.0,0.0,0.0,0.0,0.0,0.0,0.0,0.0,0.0,0.0,0.0,0.0,0.0,0.0,0.0,0.0,0.0,0.0,0.0,0.0,0.0,0.0,0.0,0.0,0.0,0.0,0.0,0.0,0.0,0.0,0.0,0.0,0.0,0.0,0.0,0.0,0.0,0.0,0.0,0.0,0.0,0.0,0.0,0.0,0.0,0.0,0.0,0.0,0.0,0.0,0.0,0.0,0.0,0.0,0.0,0.0,0.0,0.0,0.0,0.0,0.0,-0.8853,8.709,1.9045,8.4229,15.5029,-0.1831,82.3425,0.2802,-22.1649,0.6457,0.1283,-0.1431,0.739,-1.0767,9.4985,-1.8375,45.0439,20.813,6.4697,102.9364,0.0714,-21.5881,0.7683,0.1469,-0.1162,0.612,-0.7704,9.7521,-1.8471,28.0151,7.9346,3.479,105.0897,-6.1853,-15.5621,0.7898,0.0748,-0.1246,0.5959,-0.8374,0.4929,9.8431,7.4463,4.2725,2.5635,4.7516,5.4163,-95.9052,-0.0073,0.0624,-0.7398,0.6699,0.3972,7.7759,-0.9522,-62.1948,15.9302,-2.3804,82.4908,-0.9338,-22.6868,0.6476,0.1237,-0.1532,0.7361,0.8278,7.0916,-6.8715,-206.4819,-36.2549,-51.1475,122.3657,-9.6844,-22.8241,0.8638,0.1329,-0.1675,0.4562,0.1675,1.9284,12.3983,-206.7871,-33.9966,-2.0752,24.0326,-4.3451,-96.3501,0.1664,0.1303,-0.7336,0.6459,0,0,0,0,0,0,0,0,0,0,0,0,0,0,0,0,0,0,0,0,0,0,0,0,0,0,0,0,0,0,0,0,0,0,0,0
1777288144.5581758,228693,1777288140.0635397,1777288142.922286,1777288140.7129178,0,0,-2858.746290206909,-649.3780612945557,1,1,0.0,0.0,0.0,0.0,0.0,0.0,0.0,0.0,0.0,0.0,0.0,0.0,0.0,0.0,0.0,0.0,0.0,0.0,0.0,0.0,0.0,0.0,0.0,0.0,0.0,0.0,0.0,0.0,0.0,0.0,0.0,0.0,0.0,0.0,0.0,0.0,0.0,0.0,0.0,0.0,0.0,0.0,0.0,0.0,0.0,0.0,0.0,0.0,0.0,0.0,0.0,0.0,0.0,0.0,0.0,0.0,0.0,0.0,0.0,0.0,0.0,0.0,0.0,0.0,0.0,0.0,0.0,0.0,0.0,0.0,0.0,0.0,0.0,0.0,0.0,-0.8853,8.709,1.9045,8.4229,15.5029,-0.1831,82.3425,0.2802,-22.1649,0.6457,0.1283,-0.1431,0.739,-1.0767,9.4985,-1.8375,45.0439,20.813,6.4697,102.9364,0.0714,-21.5881,0.7683,0.1469,-0.1162,0.612,-0.7704,9.7521,-1.8471,28.0151,7.9346,3.479,105.0897,-6.1853,-15.5621,0.7898,0.0748,-0.1246,0.5959,-0.8374,0.4929,9.8431,7.4463,4.2725,2.5635,4.7516,5.4163,-95.9052,-0.0073,0.0624,-0.7398,0.6699,0.3972,7.7759,-0.9522,-62.1948,15.9302,-2.3804,82.4908,-0.9338,-22.6868,0.6476,0.1237,-0.1532,0.7361,0.8278,7.0916,-6.8715,-206.4819,-36.2549,-51.1475,122.3657,-9.6844,-22.8241,0.8638,0.1329,-0.1675,0.4562,0.1675,1.9284,12.3983,-206.7871,-33.9966,-2.0752,24.0326,-4.3451,-96.3501,0.1664,0.1303,-0.7336,0.6459,0,0,0,0,0,0,0,0,0,0,0,0,0,0,0,0,0,0,0,0,0,0,0,0,0,0,0,0,0,0,0,0,0,0,0,0
1777288144.5581758,228694,1777288140.0782158,1777288142.922286,1777288140.7129178,0,0,-2844.0701961517334,-634.7019672393799,1,1,0.0,0.0,0.0,0.0,0.0,0.0,0.0,0.0,0.0,0.0,0.0,0.0,0.0,0.0,0.0,0.0,0.0,0.0,0.0,0.0,0.0,0.0,0.0,0.0,0.0,0.0,0.0,0.0,0.0,0.0,0.0,0.0,0.0,0.0,0.0,0.0,0.0,0.0,0.0,0.0,0.0,0.0,0.0,0.0,0.0,0.0,0.0,0.0,0.0,0.0,0.0,0.0,0.0,0.0,0.0,0.0,0.0,0.0,0.0,0.0,0.0,0.0,0.0,0.0,0.0,0.0,0.0,0.0,0.0,0.0,0.0,0.0,0.0,0.0,0.0,-0.8853,8.709,1.9045,8.4229,15.5029,-0.1831,82.3425,0.2802,-22.1649,0.6457,0.1283,-0.1431,0.739,-1.0767,9.4985,-1.8375,45.0439,20.813,6.4697,102.9364,0.0714,-21.5881,0.7683,0.1469,-0.1162,0.612,-0.7704,9.7521,-1.8471,28.0151,7.9346,3.479,105.0897,-6.1853,-15.5621,0.7898,0.0748,-0.1246,0.5959,-0.8374,0.4929,9.8431,7.4463,4.2725,2.5635,4.7516,5.4163,-95.9052,-0.0073,0.0624,-0.7398,0.6699,0.3972,7.7759,-0.9522,-62.1948,15.9302,-2.3804,82.4908,-0.9338,-22.6868,0.6476,0.1237,-0.1532,0.7361,0.8278,7.0916,-6.8715,-206.4819,-36.2549,-51.1475,122.3657,-9.6844,-22.8241,0.8638,0.1329,-0.1675,0.4562,0.1675,1.9284,12.3983,-206.7871,-33.9966,-2.0752,24.0326,-4.3451,-96.3501,0.1664,0.1303,-0.7336,0.6459,0,0,0,0,0,0,0,0,0,0,0,0,0,0,0,0,0,0,0,0,0,0,0,0,0,0,0,0,0,0,0,0,0,0,0,0
1777288144.5581758,228695,1777288140.0833223,1777288142.922286,1777288140.7129178,0,0,-2838.963747024536,-629.5955181121826,1,1,0.0,0.0,0.0,0.0,0.0,0.0,0.0,0.0,0.0,0.0,0.0,0.0,0.0,0.0,0.0,0.0,0.0,0.0,0.0,0.0,0.0,0.0,0.0,0.0,0.0,0.0,0.0,0.0,0.0,0.0,0.0,0.0,0.0,0.0,0.0,0.0,0.0,0.0,0.0,0.0,0.0,0.0,0.0,0.0,0.0,0.0,0.0,0.0,0.0,0.0,0.0,0.0,0.0,0.0,0.0,0.0,0.0,0.0,0.0,0.0,0.0,0.0,0.0,0.0,0.0,0.0,0.0,0.0,0.0,0.0,0.0,0.0,0.0,0.0,0.0,-0.8853,8.709,1.9045,8.4229,15.5029,-0.1831,82.3425,0.2802,-22.1649,0.6457,0.1283,-0.1431,0.739,-1.0767,9.4985,-1.8375,45.0439,20.813,6.4697,102.9364,0.0714,-21.5881,0.7683,0.1469,-0.1162,0.612,-0.7704,9.7521,-1.8471,28.0151,7.9346,3.479,105.0897,-6.1853,-15.5621,0.7898,0.0748,-0.1246,0.5959,-0.8374,0.4929,9.8431,7.4463,4.2725,2.5635,4.7516,5.4163,-95.9052,-0.0073,0.0624,-0.7398,0.6699,0.3972,7.7759,-0.9522,-62.1948,15.9302,-2.3804,82.4908,-0.9338,-22.6868,0.6476,0.1237,-0.1532,0.7361,0.8278,7.0916,-6.8715,-206.4819,-36.2549,-51.1475,122.3657,-9.6844,-22.8241,0.8638,0.1329,-0.1675,0.4562,0.1675,1.9284,12.3983,-206.7871,-33.9966,-2.0752,24.0326,-4.3451,-96.3501,0.1664,0.1303,-0.7336,0.6459,0,0,0,0,0,0,0,0,0,0,0,0,0,0,0,0,0,0,0,0,0,0,0,0,0,0,0,0,0,0,0,0,0,0,0,0
1777288144.5581758,228696,1777288140.0934744,1777288142.922286,1777288140.7129178,0,0,-2828.8116455078125,-619.443416595459,1,1,0.0,0.0,0.0,0.0,0.0,0.0,0.0,0.0,0.0,0.0,0.0,0.0,0.0,0.0,0.0,0.0,0.0,0.0,0.0,0.0,0.0,0.0,0.0,0.0,0.0,0.0,0.0,0.0,0.0,0.0,0.0,0.0,0.0,0.0,0.0,0.0,0.0,0.0,0.0,0.0,0.0,0.0,0.0,0.0,0.0,0.0,0.0,0.0,0.0,0.0,0.0,0.0,0.0,0.0,0.0,0.0,0.0,0.0,0.0,0.0,0.0,0.0,0.0,0.0,0.0,0.0,0.0,0.0,0.0,0.0,0.0,0.0,0.0,0.0,0.0,-0.8853,8.709,1.9045,8.4229,15.5029,-0.1831,82.3425,0.2802,-22.1649,0.6457,0.1283,-0.1431,0.739,-1.0767,9.4985,-1.8375,45.0439,20.813,6.4697,102.9364,0.0714,-21.5881,0.7683,0.1469,-0.1162,0.612,-0.7704,9.7521,-1.8471,28.0151,7.9346,3.479,105.0897,-6.1853,-15.5621,0.7898,0.0748,-0.1246,0.5959,-0.8374,0.4929,9.8431,7.4463,4.2725,2.5635,4.7516,5.4163,-95.9052,-0.0073,0.0624,-0.7398,0.6699,0.3972,7.7759,-0.9522,-62.1948,15.9302,-2.3804,82.4908,-0.9338,-22.6868,0.6476,0.1237,-0.1532,0.7361,0.8278,7.0916,-6.8715,-206.4819,-36.2549,-51.1475,122.3657,-9.6844,-22.8241,0.8638,0.1329,-0.1675,0.4562,0.1675,1.9284,12.3983,-206.7871,-33.9966,-2.0752,24.0326,-4.3451,-96.3501,0.1664,0.1303,-0.7336,0.6459,0,0,0,0,0,0,0,0,0,0,0,0,0,0,0,0,0,0,0,0,0,0,0,0,0,0,0,0,0,0,0,0,0,0,0,0
1777288144.5581758,228697,1777288140.1027703,1777288142.922286,1777288140.7129178,0,0,-2819.5157051086426,-610.1474761962891,1,1,0.0,0.0,0.0,0.0,0.0,0.0,0.0,0.0,0.0,0.0,0.0,0.0,0.0,0.0,0.0,0.0,0.0,0.0,0.0,0.0,0.0,0.0,0.0,0.0,0.0,0.0,0.0,0.0,0.0,0.0,0.0,0.0,0.0,0.0,0.0,0.0,0.0,0.0,0.0,0.0,0.0,0.0,0.0,0.0,0.0,0.0,0.0,0.0,0.0,0.0,0.0,0.0,0.0,0.0,0.0,0.0,0.0,0.0,0.0,0.0,0.0,0.0,0.0,0.0,0.0,0.0,0.0,0.0,0.0,0.0,0.0,0.0,0.0,0.0,0.0,-0.8853,8.709,1.9045,8.4229,15.5029,-0.1831,82.3425,0.2802,-22.1649,0.6457,0.1283,-0.1431,0.739,-1.0767,9.4985,-1.8375,45.0439,20.813,6.4697,102.9364,0.0714,-21.5881,0.7683,0.1469,-0.1162,0.612,-0.7704,9.7521,-1.8471,28.0151,7.9346,3.479,105.0897,-6.1853,-15.5621,0.7898,0.0748,-0.1246,0.5959,-0.8374,0.4929,9.8431,7.4463,4.2725,2.5635,4.7516,5.4163,-95.9052,-0.0073,0.0624,-0.7398,0.6699,0.3972,7.7759,-0.9522,-62.1948,15.9302,-2.3804,82.4908,-0.9338,-22.6868,0.6476,0.1237,-0.1532,0.7361,0.8278,7.0916,-6.8715,-206.4819,-36.2549,-51.1475,122.3657,-9.6844,-22.8241,0.8638,0.1329,-0.1675,0.4562,0.1675,1.9284,12.3983,-206.7871,-33.9966,-2.0752,24.0326,-4.3451,-96.3501,0.1664,0.1303,-0.7336,0.6459,0,0,0,0,0,0,0,0,0,0,0,0,0,0,0,0,0,0,0,0,0,0,0,0,0,0,0,0,0,0,0,0,0,0,0,0
1777288144.5581758,228698,1777288140.1126559,1777288142.922286,1777288140.7129178,0,0,-2809.6301555633545,-600.261926651001,1,1,0.0,0.0,0.0,0.0,0.0,0.0,0.0,0.0,0.0,0.0,0.0,0.0,0.0,0.0,0.0,0.0,0.0,0.0,0.0,0.0,0.0,0.0,0.0,0.0,0.0,0.0,0.0,0.0,0.0,0.0,0.0,0.0,0.0,0.0,0.0,0.0,0.0,0.0,0.0,0.0,0.0,0.0,0.0,0.0,0.0,0.0,0.0,0.0,0.0,0.0,0.0,0.0,0.0,0.0,0.0,0.0,0.0,0.0,0.0,0.0,0.0,0.0,0.0,0.0,0.0,0.0,0.0,0.0,0.0,0.0,0.0,0.0,0.0,0.0,0.0,-0.8853,8.709,1.9045,8.4229,15.5029,-0.1831,82.3425,0.2802,-22.1649,0.6457,0.1283,-0.1431,0.739,-1.0767,9.4985,-1.8375,45.0439,20.813,6.4697,102.9364,0.0714,-21.5881,0.7683,0.1469,-0.1162,0.612,-0.7704,9.7521,-1.8471,28.0151,7.9346,3.479,105.0897,-6.1853,-15.5621,0.7898,0.0748,-0.1246,0.5959,-0.8374,0.4929,9.8431,7.4463,4.2725,2.5635,4.7516,5.4163,-95.9052,-0.0073,0.0624,-0.7398,0.6699,0.3972,7.7759,-0.9522,-62.1948,15.9302,-2.3804,82.4908,-0.9338,-22.6868,0.6476,0.1237,-0.1532,0.7361,0.8278,7.0916,-6.8715,-206.4819,-36.2549,-51.1475,122.3657,-9.6844,-22.8241,0.8638,0.1329,-0.1675,0.4562,0.1675,1.9284,12.3983,-206.7871,-33.9966,-2.0752,24.0326,-4.3451,-96.3501,0.1664,0.1303,-0.7336,0.6459,0,0,0,0,0,0,0,0,0,0,0,0,0,0,0,0,0,0,0,0,0,0,0,0,0,0,0,0,0,0,0,0,0,0,0,0
1777288144.5591729,228699,1777288140.1226833,1777288142.922286,1777288140.7129178,0,0,-2799.602746963501,-590.2345180511475,1,1,0.0,0.0,0.0,0.0,0.0,0.0,0.0,0.0,0.0,0.0,0.0,0.0,0.0,0.0,0.0,0.0,0.0,0.0,0.0,0.0,0.0,0.0,0.0,0.0,0.0,0.0,0.0,0.0,0.0,0.0,0.0,0.0,0.0,0.0,0.0,0.0,0.0,0.0,0.0,0.0,0.0,0.0,0.0,0.0,0.0,0.0,0.0,0.0,0.0,0.0,0.0,0.0,0.0,0.0,0.0,0.0,0.0,0.0,0.0,0.0,0.0,0.0,0.0,0.0,0.0,0.0,0.0,0.0,0.0,0.0,0.0,0.0,0.0,0.0,0.0,-0.8853,8.709,1.9045,8.4229,15.5029,-0.1831,82.3425,0.2802,-22.1649,0.6457,0.1283,-0.1431,0.739,-1.0767,9.4985,-1.8375,45.0439,20.813,6.4697,102.9364,0.0714,-21.5881,0.7683,0.1469,-0.1162,0.612,-0.7704,9.7521,-1.8471,28.0151,7.9346,3.479,105.0897,-6.1853,-15.5621,0.7898,0.0748,-0.1246,0.5959,-0.8374,0.4929,9.8431,7.4463,4.2725,2.5635,4.7516,5.4163,-95.9052,-0.0073,0.0624,-0.7398,0.6699,0.3972,7.7759,-0.9522,-62.1948,15.9302,-2.3804,82.4908,-0.9338,-22.6868,0.6476,0.1237,-0.1532,0.7361,0.8278,7.0916,-6.8715,-206.4819,-36.2549,-51.1475,122.3657,-9.6844,-22.8241,0.8638,0.1329,-0.1675,0.4562,0.1675,1.9284,12.3983,-206.7871,-33.9966,-2.0752,24.0326,-4.3451,-96.3501,0.1664,0.1303,-0.7336,0.6459,0,0,0,0,0,0,0,0,0,0,0,0,0,0,0,0,0,0,0,0,0,0,0,0,0,0,0,0,0,0,0,0,0,0,0,0
1777288144.5591729,228700,1777288140.1335604,1777288142.922286,1777288140.7129178,0,0,-2788.7256145477295,-579.357385635376,1,1,0.0,0.0,0.0,0.0,0.0,0.0,0.0,0.0,0.0,0.0,0.0,0.0,0.0,0.0,0.0,0.0,0.0,0.0,0.0,0.0,0.0,0.0,0.0,0.0,0.0,0.0,0.0,0.0,0.0,0.0,0.0,0.0,0.0,0.0,0.0,0.0,0.0,0.0,0.0,0.0,0.0,0.0,0.0,0.0,0.0,0.0,0.0,0.0,0.0,0.0,0.0,0.0,0.0,0.0,0.0,0.0,0.0,0.0,0.0,0.0,0.0,0.0,0.0,0.0,0.0,0.0,0.0,0.0,0.0,0.0,0.0,0.0,0.0,0.0,0.0,-0.8853,8.709,1.9045,8.4229,15.5029,-0.1831,82.3425,0.2802,-22.1649,0.6457,0.1283,-0.1431,0.739,-1.0767,9.4985,-1.8375,45.0439,20.813,6.4697,102.9364,0.0714,-21.5881,0.7683,0.1469,-0.1162,0.612,-0.7704,9.7521,-1.8471,28.0151,7.9346,3.479,105.0897,-6.1853,-15.5621,0.7898,0.0748,-0.1246,0.5959,-0.8374,0.4929,9.8431,7.4463,4.2725,2.5635,4.7516,5.4163,-95.9052,-0.0073,0.0624,-0.7398,0.6699,0.3972,7.7759,-0.9522,-62.1948,15.9302,-2.3804,82.4908,-0.9338,-22.6868,0.6476,0.1237,-0.1532,0.7361,0.8278,7.0916,-6.8715,-206.4819,-36.2549,-51.1475,122.3657,-9.6844,-22.8241,0.8638,0.1329,-0.1675,0.4562,0.1675,1.9284,12.3983,-206.7871,-33.9966,-2.0752,24.0326,-4.3451,-96.3501,0.1664,0.1303,-0.7336,0.6459,0,0,0,0,0,0,0,0,0,0,0,0,0,0,0,0,0,0,0,0,0,0,0,0,0,0,0,0,0,0,0,0,0,0,0,0
1777288144.5591729,228701,1777288140.151282,1777288142.922286,1777288140.7129178,0,0,-2771.0039615631104,-561.6357326507568,1,1,0.0,0.0,0.0,0.0,0.0,0.0,0.0,0.0,0.0,0.0,0.0,0.0,0.0,0.0,0.0,0.0,0.0,0.0,0.0,0.0,0.0,0.0,0.0,0.0,0.0,0.0,0.0,0.0,0.0,0.0,0.0,0.0,0.0,0.0,0.0,0.0,0.0,0.0,0.0,0.0,0.0,0.0,0.0,0.0,0.0,0.0,0.0,0.0,0.0,0.0,0.0,0.0,0.0,0.0,0.0,0.0,0.0,0.0,0.0,0.0,0.0,0.0,0.0,0.0,0.0,0.0,0.0,0.0,0.0,0.0,0.0,0.0,0.0,0.0,0.0,-0.8853,8.709,1.9045,8.4229,15.5029,-0.1831,82.3425,0.2802,-22.1649,0.6457,0.1283,-0.1431,0.739,-1.0767,9.4985,-1.8375,45.0439,20.813,6.4697,102.9364,0.0714,-21.5881,0.7683,0.1469,-0.1162,0.612,-0.7704,9.7521,-1.8471,28.0151,7.9346,3.479,105.0897,-6.1853,-15.5621,0.7898,0.0748,-0.1246,0.5959,-0.8374,0.4929,9.8431,7.4463,4.2725,2.5635,4.7516,5.4163,-95.9052,-0.0073,0.0624,-0.7398,0.6699,0.3972,7.7759,-0.9522,-62.1948,15.9302,-2.3804,82.4908,-0.9338,-22.6868,0.6476,0.1237,-0.1532,0.7361,0.8278,7.0916,-6.8715,-206.4819,-36.2549,-51.1475,122.3657,-9.6844,-22.8241,0.8638,0.1329,-0.1675,0.4562,0.1675,1.9284,12.3983,-206.7871,-33.9966,-2.0752,24.0326,-4.3451,-96.3501,0.1664,0.1303,-0.7336,0.6459,0,0,0,0,0,0,0,0,0,0,0,0,0,0,0,0,0,0,0,0,0,0,0,0,0,0,0,0,0,0,0,0,0,0,0,0
1777288144.5591729,228702,1777288140.1601331,1777288142.922286,1777288140.7129178,0,0,-2762.152910232544,-552.7846813201904,1,1,0.0,0.0,0.0,0.0,0.0,0.0,0.0,0.0,0.0,0.0,0.0,0.0,0.0,0.0,0.0,0.0,0.0,0.0,0.0,0.0,0.0,0.0,0.0,0.0,0.0,0.0,0.0,0.0,0.0,0.0,0.0,0.0,0.0,0.0,0.0,0.0,0.0,0.0,0.0,0.0,0.0,0.0,0.0,0.0,0.0,0.0,0.0,0.0,0.0,0.0,0.0,0.0,0.0,0.0,0.0,0.0,0.0,0.0,0.0,0.0,0.0,0.0,0.0,0.0,0.0,0.0,0.0,0.0,0.0,0.0,0.0,0.0,0.0,0.0,0.0,-0.8853,8.709,1.9045,8.4229,15.5029,-0.1831,82.3425,0.2802,-22.1649,0.6457,0.1283,-0.1431,0.739,-1.0767,9.4985,-1.8375,45.0439,20.813,6.4697,102.9364,0.0714,-21.5881,0.7683,0.1469,-0.1162,0.612,-0.7704,9.7521,-1.8471,28.0151,7.9346,3.479,105.0897,-6.1853,-15.5621,0.7898,0.0748,-0.1246,0.5959,-0.8374,0.4929,9.8431,7.4463,4.2725,2.5635,4.7516,5.4163,-95.9052,-0.0073,0.0624,-0.7398,0.6699,0.3972,7.7759,-0.9522,-62.1948,15.9302,-2.3804,82.4908,-0.9338,-22.6868,0.6476,0.1237,-0.1532,0.7361,0.8278,7.0916,-6.8715,-206.4819,-36.2549,-51.1475,122.3657,-9.6844,-22.8241,0.8638,0.1329,-0.1675,0.4562,0.1675,1.9284,12.3983,-206.7871,-33.9966,-2.0752,24.0326,-4.3451,-96.3501,0.1664,0.1303,-0.7336,0.6459,0,0,0,0,0,0,0,0,0,0,0,0,0,0,0,0,0,0,0,0,0,0,0,0,0,0,0,0,0,0,0,0,0,0,0,0
1777288144.5591729,228703,1777288140.162248,1777288142.922286,1777288140.7129178,0,0,-2760.038137435913,-550.6699085235596,1,1,0.0,0.0,0.0,0.0,0.0,0.0,0.0,0.0,0.0,0.0,0.0,0.0,0.0,0.0,0.0,0.0,0.0,0.0,0.0,0.0,0.0,0.0,0.0,0.0,0.0,0.0,0.0,0.0,0.0,0.0,0.0,0.0,0.0,0.0,0.0,0.0,0.0,0.0,0.0,0.0,0.0,0.0,0.0,0.0,0.0,0.0,0.0,0.0,0.0,0.0,0.0,0.0,0.0,0.0,0.0,0.0,0.0,0.0,0.0,0.0,0.0,0.0,0.0,0.0,0.0,0.0,0.0,0.0,0.0,0.0,0.0,0.0,0.0,0.0,0.0,-0.8853,8.709,1.9045,8.4229,15.5029,-0.1831,82.3425,0.2802,-22.1649,0.6457,0.1283,-0.1431,0.739,-1.0767,9.4985,-1.8375,45.0439,20.813,6.4697,102.9364,0.0714,-21.5881,0.7683,0.1469,-0.1162,0.612,-0.7704,9.7521,-1.8471,28.0151,7.9346,3.479,105.0897,-6.1853,-15.5621,0.7898,0.0748,-0.1246,0.5959,-0.8374,0.4929,9.8431,7.4463,4.2725,2.5635,4.7516,5.4163,-95.9052,-0.0073,0.0624,-0.7398,0.6699,0.3972,7.7759,-0.9522,-62.1948,15.9302,-2.3804,82.4908,-0.9338,-22.6868,0.6476,0.1237,-0.1532,0.7361,0.8278,7.0916,-6.8715,-206.4819,-36.2549,-51.1475,122.3657,-9.6844,-22.8241,0.8638,0.1329,-0.1675,0.4562,0.1675,1.9284,12.3983,-206.7871,-33.9966,-2.0752,24.0326,-4.3451,-96.3501,0.1664,0.1303,-0.7336,0.6459,0,0,0,0,0,0,0,0,0,0,0,0,0,0,0,0,0,0,0,0,0,0,0,0,0,0,0,0,0,0,0,0,0,0,0,0
1777288144.5591729,228704,1777288140.178841,1777288142.922286,1777288140.7129178,0,0,-2743.4449195861816,-534.0766906738281,1,1,0.0,0.0,0.0,0.0,0.0,0.0,0.0,0.0,0.0,0.0,0.0,0.0,0.0,0.0,0.0,0.0,0.0,0.0,0.0,0.0,0.0,0.0,0.0,0.0,0.0,0.0,0.0,0.0,0.0,0.0,0.0,0.0,0.0,0.0,0.0,0.0,0.0,0.0,0.0,0.0,0.0,0.0,0.0,0.0,0.0,0.0,0.0,0.0,0.0,0.0,0.0,0.0,0.0,0.0,0.0,0.0,0.0,0.0,0.0,0.0,0.0,0.0,0.0,0.0,0.0,0.0,0.0,0.0,0.0,0.0,0.0,0.0,0.0,0.0,0.0,-0.8853,8.709,1.9045,8.4229,15.5029,-0.1831,82.3425,0.2802,-22.1649,0.6457,0.1283,-0.1431,0.739,-1.0767,9.4985,-1.8375,45.0439,20.813,6.4697,102.9364,0.0714,-21.5881,0.7683,0.1469,-0.1162,0.612,-0.7704,9.7521,-1.8471,28.0151,7.9346,3.479,105.0897,-6.1853,-15.5621,0.7898,0.0748,-0.1246,0.5959,-0.8374,0.4929,9.8431,7.4463,4.2725,2.5635,4.7516,5.4163,-95.9052,-0.0073,0.0624,-0.7398,0.6699,0.3972,7.7759,-0.9522,-62.1948,15.9302,-2.3804,82.4908,-0.9338,-22.6868,0.6476,0.1237,-0.1532,0.7361,0.8278,7.0916,-6.8715,-206.4819,-36.2549,-51.1475,122.3657,-9.6844,-22.8241,0.8638,0.1329,-0.1675,0.4562,0.1675,1.9284,12.3983,-206.7871,-33.9966,-2.0752,24.0326,-4.3451,-96.3501,0.1664,0.1303,-0.7336,0.6459,0,0,0,0,0,0,0,0,0,0,0,0,0,0,0,0,0,0,0,0,0,0,0,0,0,0,0,0,0,0,0,0,0,0,0,0
1777288144.5591729,228705,1777288140.1823626,1777288142.922286,1777288140.7129178,0,0,-2739.9234771728516,-530.555248260498,1,1,0.0,0.0,0.0,0.0,0.0,0.0,0.0,0.0,0.0,0.0,0.0,0.0,0.0,0.0,0.0,0.0,0.0,0.0,0.0,0.0,0.0,0.0,0.0,0.0,0.0,0.0,0.0,0.0,0.0,0.0,0.0,0.0,0.0,0.0,0.0,0.0,0.0,0.0,0.0,0.0,0.0,0.0,0.0,0.0,0.0,0.0,0.0,0.0,0.0,0.0,0.0,0.0,0.0,0.0,0.0,0.0,0.0,0.0,0.0,0.0,0.0,0.0,0.0,0.0,0.0,0.0,0.0,0.0,0.0,0.0,0.0,0.0,0.0,0.0,0.0,-0.8853,8.709,1.9045,8.4229,15.5029,-0.1831,82.3425,0.2802,-22.1649,0.6457,0.1283,-0.1431,0.739,-1.0767,9.4985,-1.8375,45.0439,20.813,6.4697,102.9364,0.0714,-21.5881,0.7683,0.1469,-0.1162,0.612,-0.7704,9.7521,-1.8471,28.0151,7.9346,3.479,105.0897,-6.1853,-15.5621,0.7898,0.0748,-0.1246,0.5959,-0.8374,0.4929,9.8431,7.4463,4.2725,2.5635,4.7516,5.4163,-95.9052,-0.0073,0.0624,-0.7398,0.6699,0.3972,7.7759,-0.9522,-62.1948,15.9302,-2.3804,82.4908,-0.9338,-22.6868,0.6476,0.1237,-0.1532,0.7361,0.8278,7.0916,-6.8715,-206.4819,-36.2549,-51.1475,122.3657,-9.6844,-22.8241,0.8638,0.1329,-0.1675,0.4562,0.1675,1.9284,12.3983,-206.7871,-33.9966,-2.0752,24.0326,-4.3451,-96.3501,0.1664,0.1303,-0.7336,0.6459,0,0,0,0,0,0,0,0,0,0,0,0,0,0,0,0,0,0,0,0,0,0,0,0,0,0,0,0,0,0,0,0,0,0,0,0
1777288144.5591729,228706,1777288140.1935387,1777288142.922286,1777288140.7129178,0,0,-2728.7473678588867,-519.3791389465332,1,1,0.0,0.0,0.0,0.0,0.0,0.0,0.0,0.0,0.0,0.0,0.0,0.0,0.0,0.0,0.0,0.0,0.0,0.0,0.0,0.0,0.0,0.0,0.0,0.0,0.0,0.0,0.0,0.0,0.0,0.0,0.0,0.0,0.0,0.0,0.0,0.0,0.0,0.0,0.0,0.0,0.0,0.0,0.0,0.0,0.0,0.0,0.0,0.0,0.0,0.0,0.0,0.0,0.0,0.0,0.0,0.0,0.0,0.0,0.0,0.0,0.0,0.0,0.0,0.0,0.0,0.0,0.0,0.0,0.0,0.0,0.0,0.0,0.0,0.0,0.0,-0.8853,8.709,1.9045,8.4229,15.5029,-0.1831,82.3425,0.2802,-22.1649,0.6457,0.1283,-0.1431,0.739,-1.0767,9.4985,-1.8375,45.0439,20.813,6.4697,102.9364,0.0714,-21.5881,0.7683,0.1469,-0.1162,0.612,-0.7704,9.7521,-1.8471,28.0151,7.9346,3.479,105.0897,-6.1853,-15.5621,0.7898,0.0748,-0.1246,0.5959,-0.8374,0.4929,9.8431,7.4463,4.2725,2.5635,4.7516,5.4163,-95.9052,-0.0073,0.0624,-0.7398,0.6699,0.3972,7.7759,-0.9522,-62.1948,15.9302,-2.3804,82.4908,-0.9338,-22.6868,0.6476,0.1237,-0.1532,0.7361,0.8278,7.0916,-6.8715,-206.4819,-36.2549,-51.1475,122.3657,-9.6844,-22.8241,0.8638,0.1329,-0.1675,0.4562,0.1675,1.9284,12.3983,-206.7871,-33.9966,-2.0752,24.0326,-4.3451,-96.3501,0.1664,0.1303,-0.7336,0.6459,0,0,0,0,0,0,0,0,0,0,0,0,0,0,0,0,0,0,0,0,0,0,0,0,0,0,0,0,0,0,0,0,0,0,0,0
1777288144.5591729,228707,1777288140.2035275,1777288142.922286,1777288140.7129178,0,0,-2718.7585830688477,-509.39035415649414,1,1,0.0,0.0,0.0,0.0,0.0,0.0,0.0,0.0,0.0,0.0,0.0,0.0,0.0,0.0,0.0,0.0,0.0,0.0,0.0,0.0,0.0,0.0,0.0,0.0,0.0,0.0,0.0,0.0,0.0,0.0,0.0,0.0,0.0,0.0,0.0,0.0,0.0,0.0,0.0,0.0,0.0,0.0,0.0,0.0,0.0,0.0,0.0,0.0,0.0,0.0,0.0,0.0,0.0,0.0,0.0,0.0,0.0,0.0,0.0,0.0,0.0,0.0,0.0,0.0,0.0,0.0,0.0,0.0,0.0,0.0,0.0,0.0,0.0,0.0,0.0,-0.8853,8.709,1.9045,8.4229,15.5029,-0.1831,82.3425,0.2802,-22.1649,0.6457,0.1283,-0.1431,0.739,-1.0767,9.4985,-1.8375,45.0439,20.813,6.4697,102.9364,0.0714,-21.5881,0.7683,0.1469,-0.1162,0.612,-0.7704,9.7521,-1.8471,28.0151,7.9346,3.479,105.0897,-6.1853,-15.5621,0.7898,0.0748,-0.1246,0.5959,-0.8374,0.4929,9.8431,7.4463,4.2725,2.5635,4.7516,5.4163,-95.9052,-0.0073,0.0624,-0.7398,0.6699,0.3972,7.7759,-0.9522,-62.1948,15.9302,-2.3804,82.4908,-0.9338,-22.6868,0.6476,0.1237,-0.1532,0.7361,0.8278,7.0916,-6.8715,-206.4819,-36.2549,-51.1475,122.3657,-9.6844,-22.8241,0.8638,0.1329,-0.1675,0.4562,0.1675,1.9284,12.3983,-206.7871,-33.9966,-2.0752,24.0326,-4.3451,-96.3501,0.1664,0.1303,-0.7336,0.6459,0,0,0,0,0,0,0,0,0,0,0,0,0,0,0,0,0,0,0,0,0,0,0,0,0,0,0,0,0,0,0,0,0,0,0,0
1777288144.5591729,228708,1777288140.213404,1777288142.922286,1777288140.7129178,0,0,-2708.8820934295654,-499.5138645172119,1,1,0.0,0.0,0.0,0.0,0.0,0.0,0.0,0.0,0.0,0.0,0.0,0.0,0.0,0.0,0.0,0.0,0.0,0.0,0.0,0.0,0.0,0.0,0.0,0.0,0.0,0.0,0.0,0.0,0.0,0.0,0.0,0.0,0.0,0.0,0.0,0.0,0.0,0.0,0.0,0.0,0.0,0.0,0.0,0.0,0.0,0.0,0.0,0.0,0.0,0.0,0.0,0.0,0.0,0.0,0.0,0.0,0.0,0.0,0.0,0.0,0.0,0.0,0.0,0.0,0.0,0.0,0.0,0.0,0.0,0.0,0.0,0.0,0.0,0.0,0.0,-0.8853,8.709,1.9045,8.4229,15.5029,-0.1831,82.3425,0.2802,-22.1649,0.6457,0.1283,-0.1431,0.739,-1.0767,9.4985,-1.8375,45.0439,20.813,6.4697,102.9364,0.0714,-21.5881,0.7683,0.1469,-0.1162,0.612,-0.7704,9.7521,-1.8471,28.0151,7.9346,3.479,105.0897,-6.1853,-15.5621,0.7898,0.0748,-0.1246,0.5959,-0.8374,0.4929,9.8431,7.4463,4.2725,2.5635,4.7516,5.4163,-95.9052,-0.0073,0.0624,-0.7398,0.6699,0.3972,7.7759,-0.9522,-62.1948,15.9302,-2.3804,82.4908,-0.9338,-22.6868,0.6476,0.1237,-0.1532,0.7361,0.8278,7.0916,-6.8715,-206.4819,-36.2549,-51.1475,122.3657,-9.6844,-22.8241,0.8638,0.1329,-0.1675,0.4562,0.1675,1.9284,12.3983,-206.7871,-33.9966,-2.0752,24.0326,-4.3451,-96.3501,0.1664,0.1303,-0.7336,0.6459,0,0,0,0,0,0,0,0,0,0,0,0,0,0,0,0,0,0,0,0,0,0,0,0,0,0,0,0,0,0,0,0,0,0,0,0
1777288144.5591729,228709,1777288140.2283611,1777288142.922286,1777288140.7129178,0,0,-2693.924903869629,-484.5566749572754,1,1,0.0,0.0,0.0,0.0,0.0,0.0,0.0,0.0,0.0,0.0,0.0,0.0,0.0,0.0,0.0,0.0,0.0,0.0,0.0,0.0,0.0,0.0,0.0,0.0,0.0,0.0,0.0,0.0,0.0,0.0,0.0,0.0,0.0,0.0,0.0,0.0,0.0,0.0,0.0,0.0,0.0,0.0,0.0,0.0,0.0,0.0,0.0,0.0,0.0,0.0,0.0,0.0,0.0,0.0,0.0,0.0,0.0,0.0,0.0,0.0,0.0,0.0,0.0,0.0,0.0,0.0,0.0,0.0,0.0,0.0,0.0,0.0,0.0,0.0,0.0,-0.8853,8.709,1.9045,8.4229,15.5029,-0.1831,82.3425,0.2802,-22.1649,0.6457,0.1283,-0.1431,0.739,-1.0767,9.4985,-1.8375,45.0439,20.813,6.4697,102.9364,0.0714,-21.5881,0.7683,0.1469,-0.1162,0.612,-0.7704,9.7521,-1.8471,28.0151,7.9346,3.479,105.0897,-6.1853,-15.5621,0.7898,0.0748,-0.1246,0.5959,-0.8374,0.4929,9.8431,7.4463,4.2725,2.5635,4.7516,5.4163,-95.9052,-0.0073,0.0624,-0.7398,0.6699,0.3972,7.7759,-0.9522,-62.1948,15.9302,-2.3804,82.4908,-0.9338,-22.6868,0.6476,0.1237,-0.1532,0.7361,0.8278,7.0916,-6.8715,-206.4819,-36.2549,-51.1475,122.3657,-9.6844,-22.8241,0.8638,0.1329,-0.1675,0.4562,0.1675,1.9284,12.3983,-206.7871,-33.9966,-2.0752,24.0326,-4.3451,-96.3501,0.1664,0.1303,-0.7336,0.6459,0,0,0,0,0,0,0,0,0,0,0,0,0,0,0,0,0,0,0,0,0,0,0,0,0,0,0,0,0,0,0,0,0,0,0,0
1777288144.5735176,228710,1777288140.2328699,1777288142.922286,1777288140.7129178,0,0,-2689.4161701202393,-480.04794120788574,1,1,0.0,0.0,0.0,0.0,0.0,0.0,0.0,0.0,0.0,0.0,0.0,0.0,0.0,0.0,0.0,0.0,0.0,0.0,0.0,0.0,0.0,0.0,0.0,0.0,0.0,0.0,0.0,0.0,0.0,0.0,0.0,0.0,0.0,0.0,0.0,0.0,0.0,0.0,0.0,0.0,0.0,0.0,0.0,0.0,0.0,0.0,0.0,0.0,0.0,0.0,0.0,0.0,0.0,0.0,0.0,0.0,0.0,0.0,0.0,0.0,0.0,0.0,0.0,0.0,0.0,0.0,0.0,0.0,0.0,0.0,0.0,0.0,0.0,0.0,0.0,-0.8853,8.709,1.9045,8.4229,15.5029,-0.1831,82.3425,0.2802,-22.1649,0.6457,0.1283,-0.1431,0.739,-1.0767,9.4985,-1.8375,45.0439,20.813,6.4697,102.9364,0.0714,-21.5881,0.7683,0.1469,-0.1162,0.612,-0.7704,9.7521,-1.8471,28.0151,7.9346,3.479,105.0897,-6.1853,-15.5621,0.7898,0.0748,-0.1246,0.5959,-0.8374,0.4929,9.8431,7.4463,4.2725,2.5635,4.7516,5.4163,-95.9052,-0.0073,0.0624,-0.7398,0.6699,0.3972,7.7759,-0.9522,-62.1948,15.9302,-2.3804,82.4908,-0.9338,-22.6868,0.6476,0.1237,-0.1532,0.7361,0.8278,7.0916,-6.8715,-206.4819,-36.2549,-51.1475,122.3657,-9.6844,-22.8241,0.8638,0.1329,-0.1675,0.4562,0.1675,1.9284,12.3983,-206.7871,-33.9966,-2.0752,24.0326,-4.3451,-96.3501,0.1664,0.1303,-0.7336,0.6459,0,0,0,0,0,0,0,0,0,0,0,0,0,0,0,0,0,0,0,0,0,0,0,0,0,0,0,0,0,0,0,0,0,0,0,0
1777288144.5735176,228711,1777288140.2430766,1777288142.922286,1777288140.7129178,0,0,-2679.2094707489014,-469.84124183654785,1,1,0.0,0.0,0.0,0.0,0.0,0.0,0.0,0.0,0.0,0.0,0.0,0.0,0.0,0.0,0.0,0.0,0.0,0.0,0.0,0.0,0.0,0.0,0.0,0.0,0.0,0.0,0.0,0.0,0.0,0.0,0.0,0.0,0.0,0.0,0.0,0.0,0.0,0.0,0.0,0.0,0.0,0.0,0.0,0.0,0.0,0.0,0.0,0.0,0.0,0.0,0.0,0.0,0.0,0.0,0.0,0.0,0.0,0.0,0.0,0.0,0.0,0.0,0.0,0.0,0.0,0.0,0.0,0.0,0.0,0.0,0.0,0.0,0.0,0.0,0.0,-0.8853,8.709,1.9045,8.4229,15.5029,-0.1831,82.3425,0.2802,-22.1649,0.6457,0.1283,-0.1431,0.739,-1.0767,9.4985,-1.8375,45.0439,20.813,6.4697,102.9364,0.0714,-21.5881,0.7683,0.1469,-0.1162,0.612,-0.7704,9.7521,-1.8471,28.0151,7.9346,3.479,105.0897,-6.1853,-15.5621,0.7898,0.0748,-0.1246,0.5959,-0.8374,0.4929,9.8431,7.4463,4.2725,2.5635,4.7516,5.4163,-95.9052,-0.0073,0.0624,-0.7398,0.6699,0.3972,7.7759,-0.9522,-62.1948,15.9302,-2.3804,82.4908,-0.9338,-22.6868,0.6476,0.1237,-0.1532,0.7361,0.8278,7.0916,-6.8715,-206.4819,-36.2549,-51.1475,122.3657,-9.6844,-22.8241,0.8638,0.1329,-0.1675,0.4562,0.1675,1.9284,12.3983,-206.7871,-33.9966,-2.0752,24.0326,-4.3451,-96.3501,0.1664,0.1303,-0.7336,0.6459,0,0,0,0,0,0,0,0,0,0,0,0,0,0,0,0,0,0,0,0,0,0,0,0,0,0,0,0,0,0,0,0,0,0,0,0
1777288144.5735176,228712,1777288140.2537534,1777288142.922286,1777288140.7129178,0,0,-2668.532609939575,-459.1643810272217,1,1,0.0,0.0,0.0,0.0,0.0,0.0,0.0,0.0,0.0,0.0,0.0,0.0,0.0,0.0,0.0,0.0,0.0,0.0,0.0,0.0,0.0,0.0,0.0,0.0,0.0,0.0,0.0,0.0,0.0,0.0,0.0,0.0,0.0,0.0,0.0,0.0,0.0,0.0,0.0,0.0,0.0,0.0,0.0,0.0,0.0,0.0,0.0,0.0,0.0,0.0,0.0,0.0,0.0,0.0,0.0,0.0,0.0,0.0,0.0,0.0,0.0,0.0,0.0,0.0,0.0,0.0,0.0,0.0,0.0,0.0,0.0,0.0,0.0,0.0,0.0,-0.8853,8.709,1.9045,8.4229,15.5029,-0.1831,82.3425,0.2802,-22.1649,0.6457,0.1283,-0.1431,0.739,-1.0767,9.4985,-1.8375,45.0439,20.813,6.4697,102.9364,0.0714,-21.5881,0.7683,0.1469,-0.1162,0.612,-0.7704,9.7521,-1.8471,28.0151,7.9346,3.479,105.0897,-6.1853,-15.5621,0.7898,0.0748,-0.1246,0.5959,-0.8374,0.4929,9.8431,7.4463,4.2725,2.5635,4.7516,5.4163,-95.9052,-0.0073,0.0624,-0.7398,0.6699,0.3972,7.7759,-0.9522,-62.1948,15.9302,-2.3804,82.4908,-0.9338,-22.6868,0.6476,0.1237,-0.1532,0.7361,0.8278,7.0916,-6.8715,-206.4819,-36.2549,-51.1475,122.3657,-9.6844,-22.8241,0.8638,0.1329,-0.1675,0.4562,0.1675,1.9284,12.3983,-206.7871,-33.9966,-2.0752,24.0326,-4.3451,-96.3501,0.1664,0.1303,-0.7336,0.6459,0,0,0,0,0,0,0,0,0,0,0,0,0,0,0,0,0,0,0,0,0,0,0,0,0,0,0,0,0,0,0,0,0,0,0,0
1777288144.5735176,228713,1777288140.2634997,1777288142.922286,1777288140.7129178,0,0,-2658.7862968444824,-449.4180679321289,1,1,0.0,0.0,0.0,0.0,0.0,0.0,0.0,0.0,0.0,0.0,0.0,0.0,0.0,0.0,0.0,0.0,0.0,0.0,0.0,0.0,0.0,0.0,0.0,0.0,0.0,0.0,0.0,0.0,0.0,0.0,0.0,0.0,0.0,0.0,0.0,0.0,0.0,0.0,0.0,0.0,0.0,0.0,0.0,0.0,0.0,0.0,0.0,0.0,0.0,0.0,0.0,0.0,0.0,0.0,0.0,0.0,0.0,0.0,0.0,0.0,0.0,0.0,0.0,0.0,0.0,0.0,0.0,0.0,0.0,0.0,0.0,0.0,0.0,0.0,0.0,-0.8853,8.709,1.9045,8.4229,15.5029,-0.1831,82.3425,0.2802,-22.1649,0.6457,0.1283,-0.1431,0.739,-1.0767,9.4985,-1.8375,45.0439,20.813,6.4697,102.9364,0.0714,-21.5881,0.7683,0.1469,-0.1162,0.612,-0.7704,9.7521,-1.8471,28.0151,7.9346,3.479,105.0897,-6.1853,-15.5621,0.7898,0.0748,-0.1246,0.5959,-0.8374,0.4929,9.8431,7.4463,4.2725,2.5635,4.7516,5.4163,-95.9052,-0.0073,0.0624,-0.7398,0.6699,0.3972,7.7759,-0.9522,-62.1948,15.9302,-2.3804,82.4908,-0.9338,-22.6868,0.6476,0.1237,-0.1532,0.7361,0.8278,7.0916,-6.8715,-206.4819,-36.2549,-51.1475,122.3657,-9.6844,-22.8241,0.8638,0.1329,-0.1675,0.4562,0.1675,1.9284,12.3983,-206.7871,-33.9966,-2.0752,24.0326,-4.3451,-96.3501,0.1664,0.1303,-0.7336,0.6459,0,0,0,0,0,0,0,0,0,0,0,0,0,0,0,0,0,0,0,0,0,0,0,0,0,0,0,0,0,0,0,0,0,0,0,0
1777288144.5735176,228714,1777288140.273112,1777288142.922286,1777288140.7129178,0,0,-2649.1739749908447,-439.8057460784912,1,1,0.0,0.0,0.0,0.0,0.0,0.0,0.0,0.0,0.0,0.0,0.0,0.0,0.0,0.0,0.0,0.0,0.0,0.0,0.0,0.0,0.0,0.0,0.0,0.0,0.0,0.0,0.0,0.0,0.0,0.0,0.0,0.0,0.0,0.0,0.0,0.0,0.0,0.0,0.0,0.0,0.0,0.0,0.0,0.0,0.0,0.0,0.0,0.0,0.0,0.0,0.0,0.0,0.0,0.0,0.0,0.0,0.0,0.0,0.0,0.0,0.0,0.0,0.0,0.0,0.0,0.0,0.0,0.0,0.0,0.0,0.0,0.0,0.0,0.0,0.0,-0.8853,8.709,1.9045,8.4229,15.5029,-0.1831,82.3425,0.2802,-22.1649,0.6457,0.1283,-0.1431,0.739,-1.0767,9.4985,-1.8375,45.0439,20.813,6.4697,102.9364,0.0714,-21.5881,0.7683,0.1469,-0.1162,0.612,-0.7704,9.7521,-1.8471,28.0151,7.9346,3.479,105.0897,-6.1853,-15.5621,0.7898,0.0748,-0.1246,0.5959,-0.8374,0.4929,9.8431,7.4463,4.2725,2.5635,4.7516,5.4163,-95.9052,-0.0073,0.0624,-0.7398,0.6699,0.3972,7.7759,-0.9522,-62.1948,15.9302,-2.3804,82.4908,-0.9338,-22.6868,0.6476,0.1237,-0.1532,0.7361,0.8278,7.0916,-6.8715,-206.4819,-36.2549,-51.1475,122.3657,-9.6844,-22.8241,0.8638,0.1329,-0.1675,0.4562,0.1675,1.9284,12.3983,-206.7871,-33.9966,-2.0752,24.0326,-4.3451,-96.3501,0.1664,0.1303,-0.7336,0.6459,0,0,0,0,0,0,0,0,0,0,0,0,0,0,0,0,0,0,0,0,0,0,0,0,0,0,0,0,0,0,0,0,0,0,0,0
1777288144.5735176,228715,1777288140.282676,1777288142.922286,1777288140.7129178,0,0,-2639.6100521087646,-430.24182319641113,1,1,0.0,0.0,0.0,0.0,0.0,0.0,0.0,0.0,0.0,0.0,0.0,0.0,0.0,0.0,0.0,0.0,0.0,0.0,0.0,0.0,0.0,0.0,0.0,0.0,0.0,0.0,0.0,0.0,0.0,0.0,0.0,0.0,0.0,0.0,0.0,0.0,0.0,0.0,0.0,0.0,0.0,0.0,0.0,0.0,0.0,0.0,0.0,0.0,0.0,0.0,0.0,0.0,0.0,0.0,0.0,0.0,0.0,0.0,0.0,0.0,0.0,0.0,0.0,0.0,0.0,0.0,0.0,0.0,0.0,0.0,0.0,0.0,0.0,0.0,0.0,-0.8853,8.709,1.9045,8.4229,15.5029,-0.1831,82.3425,0.2802,-22.1649,0.6457,0.1283,-0.1431,0.739,-1.0767,9.4985,-1.8375,45.0439,20.813,6.4697,102.9364,0.0714,-21.5881,0.7683,0.1469,-0.1162,0.612,-0.7704,9.7521,-1.8471,28.0151,7.9346,3.479,105.0897,-6.1853,-15.5621,0.7898,0.0748,-0.1246,0.5959,-0.8374,0.4929,9.8431,7.4463,4.2725,2.5635,4.7516,5.4163,-95.9052,-0.0073,0.0624,-0.7398,0.6699,0.3972,7.7759,-0.9522,-62.1948,15.9302,-2.3804,82.4908,-0.9338,-22.6868,0.6476,0.1237,-0.1532,0.7361,0.8278,7.0916,-6.8715,-206.4819,-36.2549,-51.1475,122.3657,-9.6844,-22.8241,0.8638,0.1329,-0.1675,0.4562,0.1675,1.9284,12.3983,-206.7871,-33.9966,-2.0752,24.0326,-4.3451,-96.3501,0.1664,0.1303,-0.7336,0.6459,0,0,0,0,0,0,0,0,0,0,0,0,0,0,0,0,0,0,0,0,0,0,0,0,0,0,0,0,0,0,0,0,0,0,0,0
1777288144.5735176,228716,1777288140.2934515,1777288142.922286,1777288140.7129178,0,0,-2628.8344860076904,-419.4662570953369,1,1,0.0,0.0,0.0,0.0,0.0,0.0,0.0,0.0,0.0,0.0,0.0,0.0,0.0,0.0,0.0,0.0,0.0,0.0,0.0,0.0,0.0,0.0,0.0,0.0,0.0,0.0,0.0,0.0,0.0,0.0,0.0,0.0,0.0,0.0,0.0,0.0,0.0,0.0,0.0,0.0,0.0,0.0,0.0,0.0,0.0,0.0,0.0,0.0,0.0,0.0,0.0,0.0,0.0,0.0,0.0,0.0,0.0,0.0,0.0,0.0,0.0,0.0,0.0,0.0,0.0,0.0,0.0,0.0,0.0,0.0,0.0,0.0,0.0,0.0,0.0,-0.8853,8.709,1.9045,8.4229,15.5029,-0.1831,82.3425,0.2802,-22.1649,0.6457,0.1283,-0.1431,0.739,-1.0767,9.4985,-1.8375,45.0439,20.813,6.4697,102.9364,0.0714,-21.5881,0.7683,0.1469,-0.1162,0.612,-0.7704,9.7521,-1.8471,28.0151,7.9346,3.479,105.0897,-6.1853,-15.5621,0.7898,0.0748,-0.1246,0.5959,-0.8374,0.4929,9.8431,7.4463,4.2725,2.5635,4.7516,5.4163,-95.9052,-0.0073,0.0624,-0.7398,0.6699,0.3972,7.7759,-0.9522,-62.1948,15.9302,-2.3804,82.4908,-0.9338,-22.6868,0.6476,0.1237,-0.1532,0.7361,0.8278,7.0916,-6.8715,-206.4819,-36.2549,-51.1475,122.3657,-9.6844,-22.8241,0.8638,0.1329,-0.1675,0.4562,0.1675,1.9284,12.3983,-206.7871,-33.9966,-2.0752,24.0326,-4.3451,-96.3501,0.1664,0.1303,-0.7336,0.6459,0,0,0,0,0,0,0,0,0,0,0,0,0,0,0,0,0,0,0,0,0,0,0,0,0,0,0,0,0,0,0,0,0,0,0,0
1777288144.5735176,228717,1777288140.3027287,1777288142.922286,1777288140.7129178,0,0,-2619.5573806762695,-410.189151763916,1,1,0.0,0.0,0.0,0.0,0.0,0.0,0.0,0.0,0.0,0.0,0.0,0.0,0.0,0.0,0.0,0.0,0.0,0.0,0.0,0.0,0.0,0.0,0.0,0.0,0.0,0.0,0.0,0.0,0.0,0.0,0.0,0.0,0.0,0.0,0.0,0.0,0.0,0.0,0.0,0.0,0.0,0.0,0.0,0.0,0.0,0.0,0.0,0.0,0.0,0.0,0.0,0.0,0.0,0.0,0.0,0.0,0.0,0.0,0.0,0.0,0.0,0.0,0.0,0.0,0.0,0.0,0.0,0.0,0.0,0.0,0.0,0.0,0.0,0.0,0.0,-0.8853,8.709,1.9045,8.4229,15.5029,-0.1831,82.3425,0.2802,-22.1649,0.6457,0.1283,-0.1431,0.739,-1.0767,9.4985,-1.8375,45.0439,20.813,6.4697,102.9364,0.0714,-21.5881,0.7683,0.1469,-0.1162,0.612,-0.7704,9.7521,-1.8471,28.0151,7.9346,3.479,105.0897,-6.1853,-15.5621,0.7898,0.0748,-0.1246,0.5959,-0.8374,0.4929,9.8431,7.4463,4.2725,2.5635,4.7516,5.4163,-95.9052,-0.0073,0.0624,-0.7398,0.6699,0.3972,7.7759,-0.9522,-62.1948,15.9302,-2.3804,82.4908,-0.9338,-22.6868,0.6476,0.1237,-0.1532,0.7361,0.8278,7.0916,-6.8715,-206.4819,-36.2549,-51.1475,122.3657,-9.6844,-22.8241,0.8638,0.1329,-0.1675,0.4562,0.1675,1.9284,12.3983,-206.7871,-33.9966,-2.0752,24.0326,-4.3451,-96.3501,0.1664,0.1303,-0.7336,0.6459,0,0,0,0,0,0,0,0,0,0,0,0,0,0,0,0,0,0,0,0,0,0,0,0,0,0,0,0,0,0,0,0,0,0,0,0
1777288144.5745227,228718,1777288140.3183732,1777288142.922286,1777288140.7129178,0,0,-2603.912830352783,-394.5446014404297,1,1,0.0,0.0,0.0,0.0,0.0,0.0,0.0,0.0,0.0,0.0,0.0,0.0,0.0,0.0,0.0,0.0,0.0,0.0,0.0,0.0,0.0,0.0,0.0,0.0,0.0,0.0,0.0,0.0,0.0,0.0,0.0,0.0,0.0,0.0,0.0,0.0,0.0,0.0,0.0,0.0,0.0,0.0,0.0,0.0,0.0,0.0,0.0,0.0,0.0,0.0,0.0,0.0,0.0,0.0,0.0,0.0,0.0,0.0,0.0,0.0,0.0,0.0,0.0,0.0,0.0,0.0,0.0,0.0,0.0,0.0,0.0,0.0,0.0,0.0,0.0,-0.8853,8.709,1.9045,8.4229,15.5029,-0.1831,82.3425,0.2802,-22.1649,0.6457,0.1283,-0.1431,0.739,-1.0767,9.4985,-1.8375,45.0439,20.813,6.4697,102.9364,0.0714,-21.5881,0.7683,0.1469,-0.1162,0.612,-0.7704,9.7521,-1.8471,28.0151,7.9346,3.479,105.0897,-6.1853,-15.5621,0.7898,0.0748,-0.1246,0.5959,-0.8374,0.4929,9.8431,7.4463,4.2725,2.5635,4.7516,5.4163,-95.9052,-0.0073,0.0624,-0.7398,0.6699,0.3972,7.7759,-0.9522,-62.1948,15.9302,-2.3804,82.4908,-0.9338,-22.6868,0.6476,0.1237,-0.1532,0.7361,0.8278,7.0916,-6.8715,-206.4819,-36.2549,-51.1475,122.3657,-9.6844,-22.8241,0.8638,0.1329,-0.1675,0.4562,0.1675,1.9284,12.3983,-206.7871,-33.9966,-2.0752,24.0326,-4.3451,-96.3501,0.1664,0.1303,-0.7336,0.6459,0,0,0,0,0,0,0,0,0,0,0,0,0,0,0,0,0,0,0,0,0,0,0,0,0,0,0,0,0,0,0,0,0,0,0,0
1777288144.5745227,228719,1777288140.3298244,1777288142.922286,1777288140.7129178,0,0,-2592.461585998535,-383.09335708618164,1,1,0.0,0.0,0.0,0.0,0.0,0.0,0.0,0.0,0.0,0.0,0.0,0.0,0.0,0.0,0.0,0.0,0.0,0.0,0.0,0.0,0.0,0.0,0.0,0.0,0.0,0.0,0.0,0.0,0.0,0.0,0.0,0.0,0.0,0.0,0.0,0.0,0.0,0.0,0.0,0.0,0.0,0.0,0.0,0.0,0.0,0.0,0.0,0.0,0.0,0.0,0.0,0.0,0.0,0.0,0.0,0.0,0.0,0.0,0.0,0.0,0.0,0.0,0.0,0.0,0.0,0.0,0.0,0.0,0.0,0.0,0.0,0.0,0.0,0.0,0.0,-0.8853,8.709,1.9045,8.4229,15.5029,-0.1831,82.3425,0.2802,-22.1649,0.6457,0.1283,-0.1431,0.739,-1.0767,9.4985,-1.8375,45.0439,20.813,6.4697,102.9364,0.0714,-21.5881,0.7683,0.1469,-0.1162,0.612,-0.7704,9.7521,-1.8471,28.0151,7.9346,3.479,105.0897,-6.1853,-15.5621,0.7898,0.0748,-0.1246,0.5959,-0.8374,0.4929,9.8431,7.4463,4.2725,2.5635,4.7516,5.4163,-95.9052,-0.0073,0.0624,-0.7398,0.6699,0.3972,7.7759,-0.9522,-62.1948,15.9302,-2.3804,82.4908,-0.9338,-22.6868,0.6476,0.1237,-0.1532,0.7361,0.8278,7.0916,-6.8715,-206.4819,-36.2549,-51.1475,122.3657,-9.6844,-22.8241,0.8638,0.1329,-0.1675,0.4562,0.1675,1.9284,12.3983,-206.7871,-33.9966,-2.0752,24.0326,-4.3451,-96.3501,0.1664,0.1303,-0.7336,0.6459,0,0,0,0,0,0,0,0,0,0,0,0,0,0,0,0,0,0,0,0,0,0,0,0,0,0,0,0,0,0,0,0,0,0,0,0
1777288144.5745227,228720,1777288140.3402534,1777288142.922286,1777288140.7129178,0,0,-2582.0326805114746,-372.6644515991211,1,1,0.0,0.0,0.0,0.0,0.0,0.0,0.0,0.0,0.0,0.0,0.0,0.0,0.0,0.0,0.0,0.0,0.0,0.0,0.0,0.0,0.0,0.0,0.0,0.0,0.0,0.0,0.0,0.0,0.0,0.0,0.0,0.0,0.0,0.0,0.0,0.0,0.0,0.0,0.0,0.0,0.0,0.0,0.0,0.0,0.0,0.0,0.0,0.0,0.0,0.0,0.0,0.0,0.0,0.0,0.0,0.0,0.0,0.0,0.0,0.0,0.0,0.0,0.0,0.0,0.0,0.0,0.0,0.0,0.0,0.0,0.0,0.0,0.0,0.0,0.0,-0.8853,8.709,1.9045,8.4229,15.5029,-0.1831,82.3425,0.2802,-22.1649,0.6457,0.1283,-0.1431,0.739,-1.0767,9.4985,-1.8375,45.0439,20.813,6.4697,102.9364,0.0714,-21.5881,0.7683,0.1469,-0.1162,0.612,-0.7704,9.7521,-1.8471,28.0151,7.9346,3.479,105.0897,-6.1853,-15.5621,0.7898,0.0748,-0.1246,0.5959,-0.8374,0.4929,9.8431,7.4463,4.2725,2.5635,4.7516,5.4163,-95.9052,-0.0073,0.0624,-0.7398,0.6699,0.3972,7.7759,-0.9522,-62.1948,15.9302,-2.3804,82.4908,-0.9338,-22.6868,0.6476,0.1237,-0.1532,0.7361,0.8278,7.0916,-6.8715,-206.4819,-36.2549,-51.1475,122.3657,-9.6844,-22.8241,0.8638,0.1329,-0.1675,0.4562,0.1675,1.9284,12.3983,-206.7871,-33.9966,-2.0752,24.0326,-4.3451,-96.3501,0.1664,0.1303,-0.7336,0.6459,0,0,0,0,0,0,0,0,0,0,0,0,0,0,0,0,0,0,0,0,0,0,0,0,0,0,0,0,0,0,0,0,0,0,0,0
1777288144.5745227,228721,1777288140.3506665,1777288142.922286,1777288140.7129178,0,0,-2571.6195106506348,-362.25128173828125,1,1,0.0,0.0,0.0,0.0,0.0,0.0,0.0,0.0,0.0,0.0,0.0,0.0,0.0,0.0,0.0,0.0,0.0,0.0,0.0,0.0,0.0,0.0,0.0,0.0,0.0,0.0,0.0,0.0,0.0,0.0,0.0,0.0,0.0,0.0,0.0,0.0,0.0,0.0,0.0,0.0,0.0,0.0,0.0,0.0,0.0,0.0,0.0,0.0,0.0,0.0,0.0,0.0,0.0,0.0,0.0,0.0,0.0,0.0,0.0,0.0,0.0,0.0,0.0,0.0,0.0,0.0,0.0,0.0,0.0,0.0,0.0,0.0,0.0,0.0,0.0,-0.8853,8.709,1.9045,8.4229,15.5029,-0.1831,82.3425,0.2802,-22.1649,0.6457,0.1283,-0.1431,0.739,-1.0767,9.4985,-1.8375,45.0439,20.813,6.4697,102.9364,0.0714,-21.5881,0.7683,0.1469,-0.1162,0.612,-0.7704,9.7521,-1.8471,28.0151,7.9346,3.479,105.0897,-6.1853,-15.5621,0.7898,0.0748,-0.1246,0.5959,-0.8374,0.4929,9.8431,7.4463,4.2725,2.5635,4.7516,5.4163,-95.9052,-0.0073,0.0624,-0.7398,0.6699,0.3972,7.7759,-0.9522,-62.1948,15.9302,-2.3804,82.4908,-0.9338,-22.6868,0.6476,0.1237,-0.1532,0.7361,0.8278,7.0916,-6.8715,-206.4819,-36.2549,-51.1475,122.3657,-9.6844,-22.8241,0.8638,0.1329,-0.1675,0.4562,0.1675,1.9284,12.3983,-206.7871,-33.9966,-2.0752,24.0326,-4.3451,-96.3501,0.1664,0.1303,-0.7336,0.6459,0,0,0,0,0,0,0,0,0,0,0,0,0,0,0,0,0,0,0,0,0,0,0,0,0,0,0,0,0,0,0,0,0,0,0,0
1777288144.5745227,228722,1777288140.353175,1777288142.922286,1777288140.7129178,0,0,-2569.111108779907,-359.7428798675537,1,1,0.0,0.0,0.0,0.0,0.0,0.0,0.0,0.0,0.0,0.0,0.0,0.0,0.0,0.0,0.0,0.0,0.0,0.0,0.0,0.0,0.0,0.0,0.0,0.0,0.0,0.0,0.0,0.0,0.0,0.0,0.0,0.0,0.0,0.0,0.0,0.0,0.0,0.0,0.0,0.0,0.0,0.0,0.0,0.0,0.0,0.0,0.0,0.0,0.0,0.0,0.0,0.0,0.0,0.0,0.0,0.0,0.0,0.0,0.0,0.0,0.0,0.0,0.0,0.0,0.0,0.0,0.0,0.0,0.0,0.0,0.0,0.0,0.0,0.0,0.0,-0.8853,8.709,1.9045,8.4229,15.5029,-0.1831,82.3425,0.2802,-22.1649,0.6457,0.1283,-0.1431,0.739,-1.0767,9.4985,-1.8375,45.0439,20.813,6.4697,102.9364,0.0714,-21.5881,0.7683,0.1469,-0.1162,0.612,-0.7704,9.7521,-1.8471,28.0151,7.9346,3.479,105.0897,-6.1853,-15.5621,0.7898,0.0748,-0.1246,0.5959,-0.8374,0.4929,9.8431,7.4463,4.2725,2.5635,4.7516,5.4163,-95.9052,-0.0073,0.0624,-0.7398,0.6699,0.3972,7.7759,-0.9522,-62.1948,15.9302,-2.3804,82.4908,-0.9338,-22.6868,0.6476,0.1237,-0.1532,0.7361,0.8278,7.0916,-6.8715,-206.4819,-36.2549,-51.1475,122.3657,-9.6844,-22.8241,0.8638,0.1329,-0.1675,0.4562,0.1675,1.9284,12.3983,-206.7871,-33.9966,-2.0752,24.0326,-4.3451,-96.3501,0.1664,0.1303,-0.7336,0.6459,0,0,0,0,0,0,0,0,0,0,0,0,0,0,0,0,0,0,0,0,0,0,0,0,0,0,0,0,0,0,0,0,0,0,0,0
1777288144.5745227,228723,1777288140.3766768,1777288142.922286,1777288140.7129178,0,0,-2545.60923576355,-336.2410068511963,1,1,0.0,0.0,0.0,0.0,0.0,0.0,0.0,0.0,0.0,0.0,0.0,0.0,0.0,0.0,0.0,0.0,0.0,0.0,0.0,0.0,0.0,0.0,0.0,0.0,0.0,0.0,0.0,0.0,0.0,0.0,0.0,0.0,0.0,0.0,0.0,0.0,0.0,0.0,0.0,0.0,0.0,0.0,0.0,0.0,0.0,0.0,0.0,0.0,0.0,0.0,0.0,0.0,0.0,0.0,0.0,0.0,0.0,0.0,0.0,0.0,0.0,0.0,0.0,0.0,0.0,0.0,0.0,0.0,0.0,0.0,0.0,0.0,0.0,0.0,0.0,-0.8853,8.709,1.9045,8.4229,15.5029,-0.1831,82.3425,0.2802,-22.1649,0.6457,0.1283,-0.1431,0.739,-1.0767,9.4985,-1.8375,45.0439,20.813,6.4697,102.9364,0.0714,-21.5881,0.7683,0.1469,-0.1162,0.612,-0.7704,9.7521,-1.8471,28.0151,7.9346,3.479,105.0897,-6.1853,-15.5621,0.7898,0.0748,-0.1246,0.5959,-0.8374,0.4929,9.8431,7.4463,4.2725,2.5635,4.7516,5.4163,-95.9052,-0.0073,0.0624,-0.7398,0.6699,0.3972,7.7759,-0.9522,-62.1948,15.9302,-2.3804,82.4908,-0.9338,-22.6868,0.6476,0.1237,-0.1532,0.7361,0.8278,7.0916,-6.8715,-206.4819,-36.2549,-51.1475,122.3657,-9.6844,-22.8241,0.8638,0.1329,-0.1675,0.4562,0.1675,1.9284,12.3983,-206.7871,-33.9966,-2.0752,24.0326,-4.3451,-96.3501,0.1664,0.1303,-0.7336,0.6459,0,0,0,0,0,0,0,0,0,0,0,0,0,0,0,0,0,0,0,0,0,0,0,0,0,0,0,0,0,0,0,0,0,0,0,0
1777288144.5745227,228724,1777288140.3790097,1777288142.922286,1777288140.7129178,0,0,-2543.276309967041,-333.9080810546875,1,1,0.0,0.0,0.0,0.0,0.0,0.0,0.0,0.0,0.0,0.0,0.0,0.0,0.0,0.0,0.0,0.0,0.0,0.0,0.0,0.0,0.0,0.0,0.0,0.0,0.0,0.0,0.0,0.0,0.0,0.0,0.0,0.0,0.0,0.0,0.0,0.0,0.0,0.0,0.0,0.0,0.0,0.0,0.0,0.0,0.0,0.0,0.0,0.0,0.0,0.0,0.0,0.0,0.0,0.0,0.0,0.0,0.0,0.0,0.0,0.0,0.0,0.0,0.0,0.0,0.0,0.0,0.0,0.0,0.0,0.0,0.0,0.0,0.0,0.0,0.0,-0.8853,8.709,1.9045,8.4229,15.5029,-0.1831,82.3425,0.2802,-22.1649,0.6457,0.1283,-0.1431,0.739,-1.0767,9.4985,-1.8375,45.0439,20.813,6.4697,102.9364,0.0714,-21.5881,0.7683,0.1469,-0.1162,0.612,-0.7704,9.7521,-1.8471,28.0151,7.9346,3.479,105.0897,-6.1853,-15.5621,0.7898,0.0748,-0.1246,0.5959,-0.8374,0.4929,9.8431,7.4463,4.2725,2.5635,4.7516,5.4163,-95.9052,-0.0073,0.0624,-0.7398,0.6699,0.3972,7.7759,-0.9522,-62.1948,15.9302,-2.3804,82.4908,-0.9338,-22.6868,0.6476,0.1237,-0.1532,0.7361,0.8278,7.0916,-6.8715,-206.4819,-36.2549,-51.1475,122.3657,-9.6844,-22.8241,0.8638,0.1329,-0.1675,0.4562,0.1675,1.9284,12.3983,-206.7871,-33.9966,-2.0752,24.0326,-4.3451,-96.3501,0.1664,0.1303,-0.7336,0.6459,0,0,0,0,0,0,0,0,0,0,0,0,0,0,0,0,0,0,0,0,0,0,0,0,0,0,0,0,0,0,0,0,0,0,0,0
1777288144.5745227,228725,1777288140.3900824,1777288142.922286,1777288140.7129178,0,0,-2532.2036743164062,-322.83544540405273,1,1,0.0,0.0,0.0,0.0,0.0,0.0,0.0,0.0,0.0,0.0,0.0,0.0,0.0,0.0,0.0,0.0,0.0,0.0,0.0,0.0,0.0,0.0,0.0,0.0,0.0,0.0,0.0,0.0,0.0,0.0,0.0,0.0,0.0,0.0,0.0,0.0,0.0,0.0,0.0,0.0,0.0,0.0,0.0,0.0,0.0,0.0,0.0,0.0,0.0,0.0,0.0,0.0,0.0,0.0,0.0,0.0,0.0,0.0,0.0,0.0,0.0,0.0,0.0,0.0,0.0,0.0,0.0,0.0,0.0,0.0,0.0,0.0,0.0,0.0,0.0,-0.8853,8.709,1.9045,8.4229,15.5029,-0.1831,82.3425,0.2802,-22.1649,0.6457,0.1283,-0.1431,0.739,-1.0767,9.4985,-1.8375,45.0439,20.813,6.4697,102.9364,0.0714,-21.5881,0.7683,0.1469,-0.1162,0.612,-0.7704,9.7521,-1.8471,28.0151,7.9346,3.479,105.0897,-6.1853,-15.5621,0.7898,0.0748,-0.1246,0.5959,-0.8374,0.4929,9.8431,7.4463,4.2725,2.5635,4.7516,5.4163,-95.9052,-0.0073,0.0624,-0.7398,0.6699,0.3972,7.7759,-0.9522,-62.1948,15.9302,-2.3804,82.4908,-0.9338,-22.6868,0.6476,0.1237,-0.1532,0.7361,0.8278,7.0916,-6.8715,-206.4819,-36.2549,-51.1475,122.3657,-9.6844,-22.8241,0.8638,0.1329,-0.1675,0.4562,0.1675,1.9284,12.3983,-206.7871,-33.9966,-2.0752,24.0326,-4.3451,-96.3501,0.1664,0.1303,-0.7336,0.6459,0,0,0,0,0,0,0,0,0,0,0,0,0,0,0,0,0,0,0,0,0,0,0,0,0,0,0,0,0,0,0,0,0,0,0,0
1777288144.5745227,228726,1777288140.3920803,1777288142.922286,1777288140.7129178,0,0,-2530.205726623535,-320.83749771118164,1,1,0.0,0.0,0.0,0.0,0.0,0.0,0.0,0.0,0.0,0.0,0.0,0.0,0.0,0.0,0.0,0.0,0.0,0.0,0.0,0.0,0.0,0.0,0.0,0.0,0.0,0.0,0.0,0.0,0.0,0.0,0.0,0.0,0.0,0.0,0.0,0.0,0.0,0.0,0.0,0.0,0.0,0.0,0.0,0.0,0.0,0.0,0.0,0.0,0.0,0.0,0.0,0.0,0.0,0.0,0.0,0.0,0.0,0.0,0.0,0.0,0.0,0.0,0.0,0.0,0.0,0.0,0.0,0.0,0.0,0.0,0.0,0.0,0.0,0.0,0.0,-0.8853,8.709,1.9045,8.4229,15.5029,-0.1831,82.3425,0.2802,-22.1649,0.6457,0.1283,-0.1431,0.739,-1.0767,9.4985,-1.8375,45.0439,20.813,6.4697,102.9364,0.0714,-21.5881,0.7683,0.1469,-0.1162,0.612,-0.7704,9.7521,-1.8471,28.0151,7.9346,3.479,105.0897,-6.1853,-15.5621,0.7898,0.0748,-0.1246,0.5959,-0.8374,0.4929,9.8431,7.4463,4.2725,2.5635,4.7516,5.4163,-95.9052,-0.0073,0.0624,-0.7398,0.6699,0.3972,7.7759,-0.9522,-62.1948,15.9302,-2.3804,82.4908,-0.9338,-22.6868,0.6476,0.1237,-0.1532,0.7361,0.8278,7.0916,-6.8715,-206.4819,-36.2549,-51.1475,122.3657,-9.6844,-22.8241,0.8638,0.1329,-0.1675,0.4562,0.1675,1.9284,12.3983,-206.7871,-33.9966,-2.0752,24.0326,-4.3451,-96.3501,0.1664,0.1303,-0.7336,0.6459,0,0,0,0,0,0,0,0,0,0,0,0,0,0,0,0,0,0,0,0,0,0,0,0,0,0,0,0,0,0,0,0,0,0,0,0
1777288144.5745227,228727,1777288140.7041833,1777288142.922286,1777288140.7129178,0,0,-2218.1026935577393,-8.734464645385742,1,1,0.0,0.0,0.0,0.0,0.0,0.0,0.0,0.0,0.0,0.0,0.0,0.0,0.0,0.0,0.0,0.0,0.0,0.0,0.0,0.0,0.0,0.0,0.0,0.0,0.0,0.0,0.0,0.0,0.0,0.0,0.0,0.0,0.0,0.0,0.0,0.0,0.0,0.0,0.0,0.0,0.0,0.0,0.0,0.0,0.0,0.0,0.0,0.0,0.0,0.0,0.0,0.0,0.0,0.0,0.0,0.0,0.0,0.0,0.0,0.0,0.0,0.0,0.0,0.0,0.0,0.0,0.0,0.0,0.0,0.0,0.0,0.0,0.0,0.0,0.0,-0.8853,8.709,1.9045,8.4229,15.5029,-0.1831,82.3425,0.2802,-22.1649,0.6457,0.1283,-0.1431,0.739,-1.0767,9.4985,-1.8375,45.0439,20.813,6.4697,102.9364,0.0714,-21.5881,0.7683,0.1469,-0.1162,0.612,-0.7704,9.7521,-1.8471,28.0151,7.9346,3.479,105.0897,-6.1853,-15.5621,0.7898,0.0748,-0.1246,0.5959,-0.8374,0.4929,9.8431,7.4463,4.2725,2.5635,4.7516,5.4163,-95.9052,-0.0073,0.0624,-0.7398,0.6699,0.3972,7.7759,-0.9522,-62.1948,15.9302,-2.3804,82.4908,-0.9338,-22.6868,0.6476,0.1237,-0.1532,0.7361,0.8278,7.0916,-6.8715,-206.4819,-36.2549,-51.1475,122.3657,-9.6844,-22.8241,0.8638,0.1329,-0.1675,0.4562,0.1675,1.9284,12.3983,-206.7871,-33.9966,-2.0752,24.0326,-4.3451,-96.3501,0.1664,0.1303,-0.7336,0.6459,0,0,0,0,0,0,0,0,0,0,0,0,0,0,0,0,0,0,0,0,0,0,0,0,0,0,0,0,0,0,0,0,0,0,0,0
1777288144.5745227,228757,1777288140.7067811,1777288142.922286,1777288140.7129178,1,29,-2215.5048847198486,-6.136655807495117,1,1,0.0,0.0,0.0,0.0,0.0,0.0,0.0,0.0,0.0,0.0,0.0,0.0,0.0,0.0,0.0,0.0,0.0,0.0,0.0,0.0,0.0,0.0,0.0,0.0,0.0,0.0,0.0,0.0,0.0,0.0,0.0,0.0,0.0,0.0,0.0,0.0,0.0,0.0,0.0,0.0,0.0,0.0,0.0,0.0,0.0,0.0,0.0,0.0,0.0,0.0,0.0,0.0,0.0,0.0,0.0,0.0,0.0,0.0,0.0,0.0,0.0,0.0,0.0,0.0,0.0,0.0,0.0,0.0,0.0,0.0,0.0,0.0,0.0,0.0,0.0,-0.8853,8.709,1.9045,8.4229,15.5029,-0.1831,82.3425,0.2802,-22.1649,0.6457,0.1283,-0.1431,0.739,-1.0767,9.4985,-1.8375,45.0439,20.813,6.4697,102.9364,0.0714,-21.5881,0.7683,0.1469,-0.1162,0.612,-0.7704,9.7521,-1.8471,28.0151,7.9346,3.479,105.0897,-6.1853,-15.5621,0.7898,0.0748,-0.1246,0.5959,-0.8374,0.4929,9.8431,7.4463,4.2725,2.5635,4.7516,5.4163,-95.9052,-0.0073,0.0624,-0.7398,0.6699,0.3972,7.7759,-0.9522,-62.1948,15.9302,-2.3804,82.4908,-0.9338,-22.6868,0.6476,0.1237,-0.1532,0.7361,0.8278,7.0916,-6.8715,-206.4819,-36.2549,-51.1475,122.3657,-9.6844,-22.8241,0.8638,0.1329,-0.1675,0.4562,0.1675,1.9284,12.3983,-206.7871,-33.9966,-2.0752,24.0326,-4.3451,-96.3501,0.1664,0.1303,-0.7336,0.6459,0,0,0,0,0,0,0,0,0,0,0,0,0,0,0,0,0,0,0,0,0,0,0,0,0,0,0,0,0,0,0,0,0,0,0,0
1777288144.5745227,228758,1777288140.7129178,1777288142.922286,1777288140.7129178,0,0,-2209.3682289123535,0.0,1,1,0.0,0.0,0.0,0.0,0.0,0.0,0.0,0.0,0.0,0.0,0.0,0.0,0.0,0.0,0.0,0.0,0.0,0.0,0.0,0.0,0.0,0.0,0.0,0.0,0.0,0.0,0.0,0.0,0.0,0.0,0.0,0.0,0.0,0.0,0.0,0.0,0.0,0.0,0.0,0.0,0.0,0.0,0.0,0.0,0.0,0.0,0.0,0.0,0.0,0.0,0.0,0.0,0.0,0.0,0.0,0.0,0.0,0.0,0.0,0.0,0.0,0.0,0.0,0.0,0.0,0.0,0.0,0.0,0.0,0.0,0.0,0.0,0.0,0.0,0.0,-0.8853,8.709,1.9045,8.4229,15.5029,-0.1831,82.3425,0.2802,-22.1649,0.6457,0.1283,-0.1431,0.739,-1.0767,9.4985,-1.8375,45.0439,20.813,6.4697,102.9364,0.0714,-21.5881,0.7683,0.1469,-0.1162,0.612,-0.7704,9.7521,-1.8471,28.0151,7.9346,3.479,105.0897,-6.1853,-15.5621,0.7898,0.0748,-0.1246,0.5959,-0.8374,0.4929,9.8431,7.4463,4.2725,2.5635,4.7516,5.4163,-95.9052,-0.0073,0.0624,-0.7398,0.6699,0.3972,7.7759,-0.9522,-62.1948,15.9302,-2.3804,82.4908,-0.9338,-22.6868,0.6476,0.1237,-0.1532,0.7361,0.8278,7.0916,-6.8715,-206.4819,-36.2549,-51.1475,122.3657,-9.6844,-22.8241,0.8638,0.1329,-0.1675,0.4562,0.1675,1.9284,12.3983,-206.7871,-33.9966,-2.0752,24.0326,-4.3451,-96.3501,0.1664,0.1303,-0.7336,0.6459,0,0,0,0,0,0,0,0,0,0,0,0,0,0,0,0,0,0,0,0,0,0,0,0,0,0,0,0,0,0,0,0,0,0,0,0
1777288144.5745227,228759,1777288140.7229574,1777288142.922286,1777288140.7129178,0,0,-2199.328660964966,10.039567947387695,1,1,0.0,0.0,0.0,0.0,0.0,0.0,0.0,0.0,0.0,0.0,0.0,0.0,0.0,0.0,0.0,0.0,0.0,0.0,0.0,0.0,0.0,0.0,0.0,0.0,0.0,0.0,0.0,0.0,0.0,0.0,0.0,0.0,0.0,0.0,0.0,0.0,0.0,0.0,0.0,0.0,0.0,0.0,0.0,0.0,0.0,0.0,0.0,0.0,0.0,0.0,0.0,0.0,0.0,0.0,0.0,0.0,0.0,0.0,0.0,0.0,0.0,0.0,0.0,0.0,0.0,0.0,0.0,0.0,0.0,0.0,0.0,0.0,0.0,0.0,0.0,-0.8853,8.709,1.9045,8.4229,15.5029,-0.1831,82.3425,0.2802,-22.1649,0.6457,0.1283,-0.1431,0.739,-1.0767,9.4985,-1.8375,45.0439,20.813,6.4697,102.9364,0.0714,-21.5881,0.7683,0.1469,-0.1162,0.612,-0.7704,9.7521,-1.8471,28.0151,7.9346,3.479,105.0897,-6.1853,-15.5621,0.7898,0.0748,-0.1246,0.5959,-0.8374,0.4929,9.8431,7.4463,4.2725,2.5635,4.7516,5.4163,-95.9052,-0.0073,0.0624,-0.7398,0.6699,0.3972,7.7759,-0.9522,-62.1948,15.9302,-2.3804,82.4908,-0.9338,-22.6868,0.6476,0.1237,-0.1532,0.7361,0.8278,7.0916,-6.8715,-206.4819,-36.2549,-51.1475,122.3657,-9.6844,-22.8241,0.8638,0.1329,-0.1675,0.4562,0.1675,1.9284,12.3983,-206.7871,-33.9966,-2.0752,24.0326,-4.3451,-96.3501,0.1664,0.1303,-0.7336,0.6459,0,0,0,0,0,0,0,0,0,0,0,0,0,0,0,0,0,0,0,0,0,0,0,0,0,0,0,0,0,0,0,0,0,0,0,0
1777288144.5745227,228760,1777288140.7337277,1777288142.922286,1777288140.7129178,0,0,-2188.558340072632,20.80988883972168,1,1,0.0,0.0,0.0,0.0,0.0,0.0,0.0,0.0,0.0,0.0,0.0,0.0,0.0,0.0,0.0,0.0,0.0,0.0,0.0,0.0,0.0,0.0,0.0,0.0,0.0,0.0,0.0,0.0,0.0,0.0,0.0,0.0,0.0,0.0,0.0,0.0,0.0,0.0,0.0,0.0,0.0,0.0,0.0,0.0,0.0,0.0,0.0,0.0,0.0,0.0,0.0,0.0,0.0,0.0,0.0,0.0,0.0,0.0,0.0,0.0,0.0,0.0,0.0,0.0,0.0,0.0,0.0,0.0,0.0,0.0,0.0,0.0,0.0,0.0,0.0,-0.8853,8.709,1.9045,8.4229,15.5029,-0.1831,82.3425,0.2802,-22.1649,0.6457,0.1283,-0.1431,0.739,-1.0767,9.4985,-1.8375,45.0439,20.813,6.4697,102.9364,0.0714,-21.5881,0.7683,0.1469,-0.1162,0.612,-0.7704,9.7521,-1.8471,28.0151,7.9346,3.479,105.0897,-6.1853,-15.5621,0.7898,0.0748,-0.1246,0.5959,-0.8374,0.4929,9.8431,7.4463,4.2725,2.5635,4.7516,5.4163,-95.9052,-0.0073,0.0624,-0.7398,0.6699,0.3972,7.7759,-0.9522,-62.1948,15.9302,-2.3804,82.4908,-0.9338,-22.6868,0.6476,0.1237,-0.1532,0.7361,0.8278,7.0916,-6.8715,-206.4819,-36.2549,-51.1475,122.3657,-9.6844,-22.8241,0.8638,0.1329,-0.1675,0.4562,0.1675,1.9284,12.3983,-206.7871,-33.9966,-2.0752,24.0326,-4.3451,-96.3501,0.1664,0.1303,-0.7336,0.6459,0,0,0,0,0,0,0,0,0,0,0,0,0,0,0,0,0,0,0,0,0,0,0,0,0,0,0,0,0,0,0,0,0,0,0,0
1777288144.5745227,228761,1777288140.7428787,1777288142.922286,1777288140.7129178,0,0,-2179.4073581695557,29.96087074279785,1,1,0.0,0.0,0.0,0.0,0.0,0.0,0.0,0.0,0.0,0.0,0.0,0.0,0.0,0.0,0.0,0.0,0.0,0.0,0.0,0.0,0.0,0.0,0.0,0.0,0.0,0.0,0.0,0.0,0.0,0.0,0.0,0.0,0.0,0.0,0.0,0.0,0.0,0.0,0.0,0.0,0.0,0.0,0.0,0.0,0.0,0.0,0.0,0.0,0.0,0.0,0.0,0.0,0.0,0.0,0.0,0.0,0.0,0.0,0.0,0.0,0.0,0.0,0.0,0.0,0.0,0.0,0.0,0.0,0.0,0.0,0.0,0.0,0.0,0.0,0.0,-0.8853,8.709,1.9045,8.4229,15.5029,-0.1831,82.3425,0.2802,-22.1649,0.6457,0.1283,-0.1431,0.739,-1.0767,9.4985,-1.8375,45.0439,20.813,6.4697,102.9364,0.0714,-21.5881,0.7683,0.1469,-0.1162,0.612,-0.7704,9.7521,-1.8471,28.0151,7.9346,3.479,105.0897,-6.1853,-15.5621,0.7898,0.0748,-0.1246,0.5959,-0.8374,0.4929,9.8431,7.4463,4.2725,2.5635,4.7516,5.4163,-95.9052,-0.0073,0.0624,-0.7398,0.6699,0.3972,7.7759,-0.9522,-62.1948,15.9302,-2.3804,82.4908,-0.9338,-22.6868,0.6476,0.1237,-0.1532,0.7361,0.8278,7.0916,-6.8715,-206.4819,-36.2549,-51.1475,122.3657,-9.6844,-22.8241,0.8638,0.1329,-0.1675,0.4562,0.1675,1.9284,12.3983,-206.7871,-33.9966,-2.0752,24.0326,-4.3451,-96.3501,0.1664,0.1303,-0.7336,0.6459,0,0,0,0,0,0,0,0,0,0,0,0,0,0,0,0,0,0,0,0,0,0,0,0,0,0,0,0,0,0,0,0,0,0,0,0
1777288144.5745227,228762,1777288140.753657,1777288142.922286,1777288140.7129178,0,0,-2168.628931045532,40.73929786682129,1,1,0.0,0.0,0.0,0.0,0.0,0.0,0.0,0.0,0.0,0.0,0.0,0.0,0.0,0.0,0.0,0.0,0.0,0.0,0.0,0.0,0.0,0.0,0.0,0.0,0.0,0.0,0.0,0.0,0.0,0.0,0.0,0.0,0.0,0.0,0.0,0.0,0.0,0.0,0.0,0.0,0.0,0.0,0.0,0.0,0.0,0.0,0.0,0.0,0.0,0.0,0.0,0.0,0.0,0.0,0.0,0.0,0.0,0.0,0.0,0.0,0.0,0.0,0.0,0.0,0.0,0.0,0.0,0.0,0.0,0.0,0.0,0.0,0.0,0.0,0.0,-0.8853,8.709,1.9045,8.4229,15.5029,-0.1831,82.3425,0.2802,-22.1649,0.6457,0.1283,-0.1431,0.739,-1.0767,9.4985,-1.8375,45.0439,20.813,6.4697,102.9364,0.0714,-21.5881,0.7683,0.1469,-0.1162,0.612,-0.7704,9.7521,-1.8471,28.0151,7.9346,3.479,105.0897,-6.1853,-15.5621,0.7898,0.0748,-0.1246,0.5959,-0.8374,0.4929,9.8431,7.4463,4.2725,2.5635,4.7516,5.4163,-95.9052,-0.0073,0.0624,-0.7398,0.6699,0.3972,7.7759,-0.9522,-62.1948,15.9302,-2.3804,82.4908,-0.9338,-22.6868,0.6476,0.1237,-0.1532,0.7361,0.8278,7.0916,-6.8715,-206.4819,-36.2549,-51.1475,122.3657,-9.6844,-22.8241,0.8638,0.1329,-0.1675,0.4562,0.1675,1.9284,12.3983,-206.7871,-33.9966,-2.0752,24.0326,-4.3451,-96.3501,0.1664,0.1303,-0.7336,0.6459,0,0,0,0,0,0,0,0,0,0,0,0,0,0,0,0,0,0,0,0,0,0,0,0,0,0,0,0,0,0,0,0,0,0,0,0
1777288144.5745227,228763,1777288140.7629864,1777288142.922286,1777288140.7129178,0,0,-2159.299612045288,50.06861686706543,1,1,0.0,0.0,0.0,0.0,0.0,0.0,0.0,0.0,0.0,0.0,0.0,0.0,0.0,0.0,0.0,0.0,0.0,0.0,0.0,0.0,0.0,0.0,0.0,0.0,0.0,0.0,0.0,0.0,0.0,0.0,0.0,0.0,0.0,0.0,0.0,0.0,0.0,0.0,0.0,0.0,0.0,0.0,0.0,0.0,0.0,0.0,0.0,0.0,0.0,0.0,0.0,0.0,0.0,0.0,0.0,0.0,0.0,0.0,0.0,0.0,0.0,0.0,0.0,0.0,0.0,0.0,0.0,0.0,0.0,0.0,0.0,0.0,0.0,0.0,0.0,-0.8853,8.709,1.9045,8.4229,15.5029,-0.1831,82.3425,0.2802,-22.1649,0.6457,0.1283,-0.1431,0.739,-1.0767,9.4985,-1.8375,45.0439,20.813,6.4697,102.9364,0.0714,-21.5881,0.7683,0.1469,-0.1162,0.612,-0.7704,9.7521,-1.8471,28.0151,7.9346,3.479,105.0897,-6.1853,-15.5621,0.7898,0.0748,-0.1246,0.5959,-0.8374,0.4929,9.8431,7.4463,4.2725,2.5635,4.7516,5.4163,-95.9052,-0.0073,0.0624,-0.7398,0.6699,0.3972,7.7759,-0.9522,-62.1948,15.9302,-2.3804,82.4908,-0.9338,-22.6868,0.6476,0.1237,-0.1532,0.7361,0.8278,7.0916,-6.8715,-206.4819,-36.2549,-51.1475,122.3657,-9.6844,-22.8241,0.8638,0.1329,-0.1675,0.4562,0.1675,1.9284,12.3983,-206.7871,-33.9966,-2.0752,24.0326,-4.3451,-96.3501,0.1664,0.1303,-0.7336,0.6459,0,0,0,0,0,0,0,0,0,0,0,0,0,0,0,0,0,0,0,0,0,0,0,0,0,0,0,0,0,0,0,0,0,0,0,0
1777288144.5745227,228764,1777288140.7734427,1777288142.922286,1777288140.7129178,0,0,-2148.843288421631,60.524940490722656,1,1,0.0,0.0,0.0,0.0,0.0,0.0,0.0,0.0,0.0,0.0,0.0,0.0,0.0,0.0,0.0,0.0,0.0,0.0,0.0,0.0,0.0,0.0,0.0,0.0,0.0,0.0,0.0,0.0,0.0,0.0,0.0,0.0,0.0,0.0,0.0,0.0,0.0,0.0,0.0,0.0,0.0,0.0,0.0,0.0,0.0,0.0,0.0,0.0,0.0,0.0,0.0,0.0,0.0,0.0,0.0,0.0,0.0,0.0,0.0,0.0,0.0,0.0,0.0,0.0,0.0,0.0,0.0,0.0,0.0,0.0,0.0,0.0,0.0,0.0,0.0,-0.8853,8.709,1.9045,8.4229,15.5029,-0.1831,82.3425,0.2802,-22.1649,0.6457,0.1283,-0.1431,0.739,-1.0767,9.4985,-1.8375,45.0439,20.813,6.4697,102.9364,0.0714,-21.5881,0.7683,0.1469,-0.1162,0.612,-0.7704,9.7521,-1.8471,28.0151,7.9346,3.479,105.0897,-6.1853,-15.5621,0.7898,0.0748,-0.1246,0.5959,-0.8374,0.4929,9.8431,7.4463,4.2725,2.5635,4.7516,5.4163,-95.9052,-0.0073,0.0624,-0.7398,0.6699,0.3972,7.7759,-0.9522,-62.1948,15.9302,-2.3804,82.4908,-0.9338,-22.6868,0.6476,0.1237,-0.1532,0.7361,0.8278,7.0916,-6.8715,-206.4819,-36.2549,-51.1475,122.3657,-9.6844,-22.8241,0.8638,0.1329,-0.1675,0.4562,0.1675,1.9284,12.3983,-206.7871,-33.9966,-2.0752,24.0326,-4.3451,-96.3501,0.1664,0.1303,-0.7336,0.6459,0,0,0,0,0,0,0,0,0,0,0,0,0,0,0,0,0,0,0,0,0,0,0,0,0,0,0,0,0,0,0,0,0,0,0,0
1777288144.5760314,228765,1777288140.7823992,1777288142.922286,1777288140.7129178,0,0,-2139.8868560791016,69.48137283325195,1,1,0.0,0.0,0.0,0.0,0.0,0.0,0.0,0.0,0.0,0.0,0.0,0.0,0.0,0.0,0.0,0.0,0.0,0.0,0.0,0.0,0.0,0.0,0.0,0.0,0.0,0.0,0.0,0.0,0.0,0.0,0.0,0.0,0.0,0.0,0.0,0.0,0.0,0.0,0.0,0.0,0.0,0.0,0.0,0.0,0.0,0.0,0.0,0.0,0.0,0.0,0.0,0.0,0.0,0.0,0.0,0.0,0.0,0.0,0.0,0.0,0.0,0.0,0.0,0.0,0.0,0.0,0.0,0.0,0.0,0.0,0.0,0.0,0.0,0.0,0.0,-0.8853,8.709,1.9045,8.4229,15.5029,-0.1831,82.3425,0.2802,-22.1649,0.6457,0.1283,-0.1431,0.739,-1.0767,9.4985,-1.8375,45.0439,20.813,6.4697,102.9364,0.0714,-21.5881,0.7683,0.1469,-0.1162,0.612,-0.7704,9.7521,-1.8471,28.0151,7.9346,3.479,105.0897,-6.1853,-15.5621,0.7898,0.0748,-0.1246,0.5959,-0.8374,0.4929,9.8431,7.4463,4.2725,2.5635,4.7516,5.4163,-95.9052,-0.0073,0.0624,-0.7398,0.6699,0.3972,7.7759,-0.9522,-62.1948,15.9302,-2.3804,82.4908,-0.9338,-22.6868,0.6476,0.1237,-0.1532,0.7361,0.8278,7.0916,-6.8715,-206.4819,-36.2549,-51.1475,122.3657,-9.6844,-22.8241,0.8638,0.1329,-0.1675,0.4562,0.1675,1.9284,12.3983,-206.7871,-33.9966,-2.0752,24.0326,-4.3451,-96.3501,0.1664,0.1303,-0.7336,0.6459,0,0,0,0,0,0,0,0,0,0,0,0,0,0,0,0,0,0,0,0,0,0,0,0,0,0,0,0,0,0,0,0,0,0,0,0
