Timestamp,Vicon_Frame_Num,Vicon_Recv_Timestamp,IMU_Recv_Timestamp,Planter_Recv_Timestamp,Vicon_Gap_Flag,Vicon_Gap_Size,IMU_Stale_ms,Planter_Stale_ms,IMU_Matched_Flag,Planter_Matched_Flag,Vicon_Root_X,Vicon_Root_Y,Vicon_Root_Z,Vicon_L_Femur_X,Vicon_L_Femur_Y,Vicon_L_Femur_Z,Vicon_L_Tibia_X,Vicon_L_Tibia_Y,Vicon_L_Tibia_Z,Vicon_L_Foot_X,Vicon_L_Foot_Y,Vicon_L_Foot_Z,Vicon_L_Toe_X,Vicon_L_Toe_Y,Vicon_L_Toe_Z,Vicon_R_Femur_X,Vicon_R_Femur_Y,Vicon_R_Femur_Z,Vicon_R_Tibia_X,Vicon_R_Tibia_Y,Vicon_R_Tibia_Z,Vicon_R_Foot_X,Vicon_R_Foot_Y,Vicon_R_Foot_Z,Vicon_R_Toe_X,Vicon_R_Toe_Y,Vicon_R_Toe_Z,Vicon_LASI_X,Vicon_LASI_Y,Vicon_LASI_Z,Vicon_RASI_X,Vicon_RASI_Y,Vicon_RASI_Z,Vicon_LPSI_X,Vicon_LPSI_Y,Vicon_LPSI_Z,Vicon_RPSI_X,Vicon_RPSI_Y,Vicon_RPSI_Z,Vicon_LTHI_X,Vicon_LTHI_Y,Vicon_LTHI_Z,Vicon_LKNE_X,Vicon_LKNE_Y,Vicon_LKNE_Z,Vicon_LTIB_X,Vicon_LTIB_Y,Vicon_LTIB_Z,Vicon_LANK_X,Vicon_LANK_Y,Vicon_LANK_Z,Vicon_LHEE_X,Vicon_LHEE_Y,Vicon_LHEE_Z,Vicon_LTOE_X,Vicon_LTOE_Y,Vicon_LTOE_Z,Vicon_RTHI_X,Vicon_RTHI_Y,Vicon_RTHI_Z,Vicon_RKNE_X,Vicon_RKNE_Y,Vicon_RKNE_Z,Vicon_RTIB_X,Vicon_RTIB_Y,Vicon_RTIB_Z,Vicon_RANK_X,Vicon_RANK_Y,Vicon_RANK_Z,Vicon_RHEE_X,Vicon_RHEE_Y,Vicon_RHEE_Z,Vicon_RTOE_X,Vicon_RTOE_Y,Vicon_RTOE_Z,IMU_Trunk_Acc_X,IMU_Trunk_Acc_Y,IMU_Trunk_Acc_Z,IMU_Trunk_Gyro_X,IMU_Trunk_Gyro_Y,IMU_Trunk_Gyro_Z,IMU_Trunk_Roll,IMU_Trunk_Pitch,IMU_Trunk_Yaw,IMU_Trunk_Quat_x,IMU_Trunk_Quat_y,IMU_Trunk_Quat_z,IMU_Trunk_Quat_w,IMU_L_Femur_Acc_X,IMU_L_Femur_Acc_Y,IMU_L_Femur_Acc_Z,IMU_L_Femur_Gyro_X,IMU_L_Femur_Gyro_Y,IMU_L_Femur_Gyro_Z,IMU_L_Femur_Roll,IMU_L_Femur_Pitch,IMU_L_Femur_Yaw,IMU_L_Femur_Quat_x,IMU_L_Femur_Quat_y,IMU_L_Femur_Quat_z,IMU_L_Femur_Quat_w,IMU_L_Tibia_Acc_X,IMU_L_Tibia_Acc_Y,IMU_L_Tibia_Acc_Z,IMU_L_Tibia_Gyro_X,IMU_L_Tibia_Gyro_Y,IMU_L_Tibia_Gyro_Z,IMU_L_Tibia_Roll,IMU_L_Tibia_Pitch,IMU_L_Tibia_Yaw,IMU_L_Tibia_Quat_x,IMU_L_Tibia_Quat_y,IMU_L_Tibia_Quat_z,IMU_L_Tibia_Quat_w,IMU_L_Foot_Acc_X,IMU_L_Foot_Acc_Y,IMU_L_Foot_Acc_Z,IMU_L_Foot_Gyro_X,IMU_L_Foot_Gyro_Y,IMU_L_Foot_Gyro_Z,IMU_L_Foot_Roll,IMU_L_Foot_Pitch,IMU_L_Foot_Yaw,IMU_L_Foot_Quat_x,IMU_L_Foot_Quat_y,IMU_L_Foot_Quat_z,IMU_L_Foot_Quat_w,IMU_R_Femur_Acc_X,IMU_R_Femur_Acc_Y,IMU_R_Femur_Acc_Z,IMU_R_Femur_Gyro_X,IMU_R_Femur_Gyro_Y,IMU_R_Femur_Gyro_Z,IMU_R_Femur_Roll,IMU_R_Femur_Pitch,IMU_R_Femur_Yaw,IMU_R_Femur_Quat_x,IMU_R_Femur_Quat_y,IMU_R_Femur_Quat_z,IMU_R_Femur_Quat_w,IMU_R_Tibia_Acc_X,IMU_R_Tibia_Acc_Y,IMU_R_Tibia_Acc_Z,IMU_R_Tibia_Gyro_X,IMU_R_Tibia_Gyro_Y,IMU_R_Tibia_Gyro_Z,IMU_R_Tibia_Roll,IMU_R_Tibia_Pitch,IMU_R_Tibia_Yaw,IMU_R_Tibia_Quat_x,IMU_R_Tibia_Quat_y,IMU_R_Tibia_Quat_z,IMU_R_Tibia_Quat_w,IMU_R_Foot_Acc_X,IMU_R_Foot_Acc_Y,IMU_R_Foot_Acc_Z,IMU_R_Foot_Gyro_X,IMU_R_Foot_Gyro_Y,IMU_R_Foot_Gyro_Z,IMU_R_Foot_Roll,IMU_R_Foot_Pitch,IMU_R_Foot_Yaw,IMU_R_Foot_Quat_x,IMU_R_Foot_Quat_y,IMU_R_Foot_Quat_z,IMU_R_Foot_Quat_w,Planter_Left_0,Planter_Left_1,Planter_Left_2,Planter_Left_3,Planter_Left_4,Planter_Left_5,Planter_Left_6,Planter_Left_7,Planter_Left_8,Planter_Left_9,Planter_Left_10,Planter_Left_11,Planter_Left_12,Planter_Left_13,Planter_Left_14,Planter_Left_15,Planter_Left_16,Planter_Left_17,Planter_Right_0,Planter_Right_1,Planter_Right_2,Planter_Right_3,Planter_Right_4,Planter_Right_5,Planter_Right_6,Planter_Right_7,Planter_Right_8,Planter_Right_9,Planter_Right_10,Planter_Right_11,Planter_Right_12,Planter_Right_13,Planter_Right_14,Planter_Right_15,Planter_Right_16,Planter_Right_17
1777287096.9661894,123057,1777287083.6860275,1777287095.3283322,1777287084.5654302,0,0,-11642.30465888977,-879.4026374816895,1,1,0.0,0.0,0.0,0.0,0.0,0.0,0.0,0.0,0.0,0.0,0.0,0.0,0.0,0.0,0.0,0.0,0.0,0.0,0.0,0.0,0.0,0.0,0.0,0.0,0.0,0.0,0.0,0.0,0.0,0.0,0.0,0.0,0.0,0.0,0.0,0.0,0.0,0.0,0.0,0.0,0.0,0.0,0.0,0.0,0.0,0.0,0.0,0.0,0.0,0.0,0.0,0.0,0.0,0.0,0.0,0.0,0.0,0.0,0.0,0.0,0.0,0.0,0.0,0.0,0.0,0.0,0.0,0.0,0.0,0.0,0.0,0.0,0.0,0.0,0.0,-1.1389,8.7808,2.9477,14.8926,22.9492,15.625,84.2706,3.9606,-15.3809,0.661,0.1151,-0.0762,0.7376,-0.1531,8.1635,-2.5074,62.9272,37.5977,3.3569,112.5275,3.9276,-22.4231,0.8116,0.1803,-0.08,0.55,0.3876,9.3789,-2.6605,36.2549,14.8315,2.0142,111.6705,2.1588,-20.495,0.8122,0.1576,-0.0845,0.5553,-0.8805,0.6604,10.0201,8.2397,4.2114,2.7466,2.9993,5.3229,-89.8627,-0.0143,0.0513,-0.7044,0.7078,-0.6221,8.0104,2.0002,3.418,24.4751,-20.1416,78.3325,5.3778,-34.541,0.5916,0.222,-0.2016,0.7483,0.1292,8.8621,-3.5793,-240.0513,63.3545,-91.4917,92.9718,-0.5109,-22.4835,0.7119,0.1384,-0.1374,0.6747,6.1059,8.5798,17.6572,-218.3838,-61.8286,134.7656,1.6864,-11.618,-140.9161,0.1003,-0.0201,-0.938,0.3313,0,0,0,0,0,0,0,0,0,0,0,0,0,0,0,0,0,0,57606,0,23554,0,0,0,57864,0,33542,0,0,25345,7182,0,60673,23559,57104,0
1777287096.9661894,123058,1777287083.694895,1777287095.3283322,1777287084.5654302,0,0,-11633.437156677246,-870.535135269165,1,1,0.0,0.0,0.0,0.0,0.0,0.0,0.0,0.0,0.0,0.0,0.0,0.0,0.0,0.0,0.0,0.0,0.0,0.0,0.0,0.0,0.0,0.0,0.0,0.0,0.0,0.0,0.0,0.0,0.0,0.0,0.0,0.0,0.0,0.0,0.0,0.0,0.0,0.0,0.0,0.0,0.0,0.0,0.0,0.0,0.0,0.0,0.0,0.0,0.0,0.0,0.0,0.0,0.0,0.0,0.0,0.0,0.0,0.0,0.0,0.0,0.0,0.0,0.0,0.0,0.0,0.0,0.0,0.0,0.0,0.0,0.0,0.0,0.0,0.0,0.0,-1.1389,8.7808,2.9477,14.8926,22.9492,15.625,84.2706,3.9606,-15.3809,0.661,0.1151,-0.0762,0.7376,-0.1531,8.1635,-2.5074,62.9272,37.5977,3.3569,112.5275,3.9276,-22.4231,0.8116,0.1803,-0.08,0.55,0.3876,9.3789,-2.6605,36.2549,14.8315,2.0142,111.6705,2.1588,-20.495,0.8122,0.1576,-0.0845,0.5553,-0.8805,0.6604,10.0201,8.2397,4.2114,2.7466,2.9993,5.3229,-89.8627,-0.0143,0.0513,-0.7044,0.7078,-0.6221,8.0104,2.0002,3.418,24.4751,-20.1416,78.3325,5.3778,-34.541,0.5916,0.222,-0.2016,0.7483,0.1292,8.8621,-3.5793,-240.0513,63.3545,-91.4917,92.9718,-0.5109,-22.4835,0.7119,0.1384,-0.1374,0.6747,6.1059,8.5798,17.6572,-218.3838,-61.8286,134.7656,1.6864,-11.618,-140.9161,0.1003,-0.0201,-0.938,0.3313,0,0,0,0,0,0,0,0,0,0,0,0,0,0,0,0,0,0,57606,0,23554,0,0,0,57864,0,33542,0,0,25345,7182,0,60673,23559,57104,0
1777287096.9661894,123059,1777287083.7050357,1777287095.3283322,1777287084.5654302,0,0,-11623.29649925232,-860.3944778442383,1,1,0.0,0.0,0.0,0.0,0.0,0.0,0.0,0.0,0.0,0.0,0.0,0.0,0.0,0.0,0.0,0.0,0.0,0.0,0.0,0.0,0.0,0.0,0.0,0.0,0.0,0.0,0.0,0.0,0.0,0.0,0.0,0.0,0.0,0.0,0.0,0.0,0.0,0.0,0.0,0.0,0.0,0.0,0.0,0.0,0.0,0.0,0.0,0.0,0.0,0.0,0.0,0.0,0.0,0.0,0.0,0.0,0.0,0.0,0.0,0.0,0.0,0.0,0.0,0.0,0.0,0.0,0.0,0.0,0.0,0.0,0.0,0.0,0.0,0.0,0.0,-1.1389,8.7808,2.9477,14.8926,22.9492,15.625,84.2706,3.9606,-15.3809,0.661,0.1151,-0.0762,0.7376,-0.1531,8.1635,-2.5074,62.9272,37.5977,3.3569,112.5275,3.9276,-22.4231,0.8116,0.1803,-0.08,0.55,0.3876,9.3789,-2.6605,36.2549,14.8315,2.0142,111.6705,2.1588,-20.495,0.8122,0.1576,-0.0845,0.5553,-0.8805,0.6604,10.0201,8.2397,4.2114,2.7466,2.9993,5.3229,-89.8627,-0.0143,0.0513,-0.7044,0.7078,-0.6221,8.0104,2.0002,3.418,24.4751,-20.1416,78.3325,5.3778,-34.541,0.5916,0.222,-0.2016,0.7483,0.1292,8.8621,-3.5793,-240.0513,63.3545,-91.4917,92.9718,-0.5109,-22.4835,0.7119,0.1384,-0.1374,0.6747,6.1059,8.5798,17.6572,-218.3838,-61.8286,134.7656,1.6864,-11.618,-140.9161,0.1003,-0.0201,-0.938,0.3313,0,0,0,0,0,0,0,0,0,0,0,0,0,0,0,0,0,0,57606,0,23554,0,0,0,57864,0,33542,0,0,25345,7182,0,60673,23559,57104,0
1777287096.9671922,123060,1777287083.714828,1777287095.3283322,1777287084.5654302,0,0,-11613.50417137146,-850.6021499633789,1,1,0.0,0.0,0.0,0.0,0.0,0.0,0.0,0.0,0.0,0.0,0.0,0.0,0.0,0.0,0.0,0.0,0.0,0.0,0.0,0.0,0.0,0.0,0.0,0.0,0.0,0.0,0.0,0.0,0.0,0.0,0.0,0.0,0.0,0.0,0.0,0.0,0.0,0.0,0.0,0.0,0.0,0.0,0.0,0.0,0.0,0.0,0.0,0.0,0.0,0.0,0.0,0.0,0.0,0.0,0.0,0.0,0.0,0.0,0.0,0.0,0.0,0.0,0.0,0.0,0.0,0.0,0.0,0.0,0.0,0.0,0.0,0.0,0.0,0.0,0.0,-1.1389,8.7808,2.9477,14.8926,22.9492,15.625,84.2706,3.9606,-15.3809,0.661,0.1151,-0.0762,0.7376,-0.1531,8.1635,-2.5074,62.9272,37.5977,3.3569,112.5275,3.9276,-22.4231,0.8116,0.1803,-0.08,0.55,0.3876,9.3789,-2.6605,36.2549,14.8315,2.0142,111.6705,2.1588,-20.495,0.8122,0.1576,-0.0845,0.5553,-0.8805,0.6604,10.0201,8.2397,4.2114,2.7466,2.9993,5.3229,-89.8627,-0.0143,0.0513,-0.7044,0.7078,-0.6221,8.0104,2.0002,3.418,24.4751,-20.1416,78.3325,5.3778,-34.541,0.5916,0.222,-0.2016,0.7483,0.1292,8.8621,-3.5793,-240.0513,63.3545,-91.4917,92.9718,-0.5109,-22.4835,0.7119,0.1384,-0.1374,0.6747,6.1059,8.5798,17.6572,-218.3838,-61.8286,134.7656,1.6864,-11.618,-140.9161,0.1003,-0.0201,-0.938,0.3313,0,0,0,0,0,0,0,0,0,0,0,0,0,0,0,0,0,0,57606,0,23554,0,0,0,57864,0,33542,0,0,25345,7182,0,60673,23559,57104,0
1777287096.9671922,123061,1777287083.725379,1777287095.3283322,1777287084.5654302,0,0,-11602.9531955719,-840.0511741638184,1,1,0.0,0.0,0.0,0.0,0.0,0.0,0.0,0.0,0.0,0.0,0.0,0.0,0.0,0.0,0.0,0.0,0.0,0.0,0.0,0.0,0.0,0.0,0.0,0.0,0.0,0.0,0.0,0.0,0.0,0.0,0.0,0.0,0.0,0.0,0.0,0.0,0.0,0.0,0.0,0.0,0.0,0.0,0.0,0.0,0.0,0.0,0.0,0.0,0.0,0.0,0.0,0.0,0.0,0.0,0.0,0.0,0.0,0.0,0.0,0.0,0.0,0.0,0.0,0.0,0.0,0.0,0.0,0.0,0.0,0.0,0.0,0.0,0.0,0.0,0.0,-1.1389,8.7808,2.9477,14.8926,22.9492,15.625,84.2706,3.9606,-15.3809,0.661,0.1151,-0.0762,0.7376,-0.1531,8.1635,-2.5074,62.9272,37.5977,3.3569,112.5275,3.9276,-22.4231,0.8116,0.1803,-0.08,0.55,0.3876,9.3789,-2.6605,36.2549,14.8315,2.0142,111.6705,2.1588,-20.495,0.8122,0.1576,-0.0845,0.5553,-0.8805,0.6604,10.0201,8.2397,4.2114,2.7466,2.9993,5.3229,-89.8627,-0.0143,0.0513,-0.7044,0.7078,-0.6221,8.0104,2.0002,3.418,24.4751,-20.1416,78.3325,5.3778,-34.541,0.5916,0.222,-0.2016,0.7483,0.1292,8.8621,-3.5793,-240.0513,63.3545,-91.4917,92.9718,-0.5109,-22.4835,0.7119,0.1384,-0.1374,0.6747,6.1059,8.5798,17.6572,-218.3838,-61.8286,134.7656,1.6864,-11.618,-140.9161,0.1003,-0.0201,-0.938,0.3313,0,0,0,0,0,0,0,0,0,0,0,0,0,0,0,0,0,0,57606,0,23554,0,0,0,57864,0,33542,0,0,25345,7182,0,60673,23559,57104,0
1777287096.9671922,123062,1777287083.7354438,1777287095.3283322,1777287084.5654302,0,0,-11592.888355255127,-829.9863338470459,1,1,0.0,0.0,0.0,0.0,0.0,0.0,0.0,0.0,0.0,0.0,0.0,0.0,0.0,0.0,0.0,0.0,0.0,0.0,0.0,0.0,0.0,0.0,0.0,0.0,0.0,0.0,0.0,0.0,0.0,0.0,0.0,0.0,0.0,0.0,0.0,0.0,0.0,0.0,0.0,0.0,0.0,0.0,0.0,0.0,0.0,0.0,0.0,0.0,0.0,0.0,0.0,0.0,0.0,0.0,0.0,0.0,0.0,0.0,0.0,0.0,0.0,0.0,0.0,0.0,0.0,0.0,0.0,0.0,0.0,0.0,0.0,0.0,0.0,0.0,0.0,-1.1389,8.7808,2.9477,14.8926,22.9492,15.625,84.2706,3.9606,-15.3809,0.661,0.1151,-0.0762,0.7376,-0.1531,8.1635,-2.5074,62.9272,37.5977,3.3569,112.5275,3.9276,-22.4231,0.8116,0.1803,-0.08,0.55,0.3876,9.3789,-2.6605,36.2549,14.8315,2.0142,111.6705,2.1588,-20.495,0.8122,0.1576,-0.0845,0.5553,-0.8805,0.6604,10.0201,8.2397,4.2114,2.7466,2.9993,5.3229,-89.8627,-0.0143,0.0513,-0.7044,0.7078,-0.6221,8.0104,2.0002,3.418,24.4751,-20.1416,78.3325,5.3778,-34.541,0.5916,0.222,-0.2016,0.7483,0.1292,8.8621,-3.5793,-240.0513,63.3545,-91.4917,92.9718,-0.5109,-22.4835,0.7119,0.1384,-0.1374,0.6747,6.1059,8.5798,17.6572,-218.3838,-61.8286,134.7656,1.6864,-11.618,-140.9161,0.1003,-0.0201,-0.938,0.3313,0,0,0,0,0,0,0,0,0,0,0,0,0,0,0,0,0,0,57606,0,23554,0,0,0,57864,0,33542,0,0,25345,7182,0,60673,23559,57104,0
1777287096.9671922,123063,1777287083.744478,1777287095.3283322,1777287084.5654302,0,0,-11583.85419845581,-820.9521770477295,1,1,0.0,0.0,0.0,0.0,0.0,0.0,0.0,0.0,0.0,0.0,0.0,0.0,0.0,0.0,0.0,0.0,0.0,0.0,0.0,0.0,0.0,0.0,0.0,0.0,0.0,0.0,0.0,0.0,0.0,0.0,0.0,0.0,0.0,0.0,0.0,0.0,0.0,0.0,0.0,0.0,0.0,0.0,0.0,0.0,0.0,0.0,0.0,0.0,0.0,0.0,0.0,0.0,0.0,0.0,0.0,0.0,0.0,0.0,0.0,0.0,0.0,0.0,0.0,0.0,0.0,0.0,0.0,0.0,0.0,0.0,0.0,0.0,0.0,0.0,0.0,-1.1389,8.7808,2.9477,14.8926,22.9492,15.625,84.2706,3.9606,-15.3809,0.661,0.1151,-0.0762,0.7376,-0.1531,8.1635,-2.5074,62.9272,37.5977,3.3569,112.5275,3.9276,-22.4231,0.8116,0.1803,-0.08,0.55,0.3876,9.3789,-2.6605,36.2549,14.8315,2.0142,111.6705,2.1588,-20.495,0.8122,0.1576,-0.0845,0.5553,-0.8805,0.6604,10.0201,8.2397,4.2114,2.7466,2.9993,5.3229,-89.8627,-0.0143,0.0513,-0.7044,0.7078,-0.6221,8.0104,2.0002,3.418,24.4751,-20.1416,78.3325,5.3778,-34.541,0.5916,0.222,-0.2016,0.7483,0.1292,8.8621,-3.5793,-240.0513,63.3545,-91.4917,92.9718,-0.5109,-22.4835,0.7119,0.1384,-0.1374,0.6747,6.1059,8.5798,17.6572,-218.3838,-61.8286,134.7656,1.6864,-11.618,-140.9161,0.1003,-0.0201,-0.938,0.3313,0,0,0,0,0,0,0,0,0,0,0,0,0,0,0,0,0,0,57606,0,23554,0,0,0,57864,0,33542,0,0,25345,7182,0,60673,23559,57104,0
1777287096.9671922,123064,1777287083.7551985,1777287095.3283322,1777287084.5654302,0,0,-11573.133707046509,-810.2316856384277,1,1,0.0,0.0,0.0,0.0,0.0,0.0,0.0,0.0,0.0,0.0,0.0,0.0,0.0,0.0,0.0,0.0,0.0,0.0,0.0,0.0,0.0,0.0,0.0,0.0,0.0,0.0,0.0,0.0,0.0,0.0,0.0,0.0,0.0,0.0,0.0,0.0,0.0,0.0,0.0,0.0,0.0,0.0,0.0,0.0,0.0,0.0,0.0,0.0,0.0,0.0,0.0,0.0,0.0,0.0,0.0,0.0,0.0,0.0,0.0,0.0,0.0,0.0,0.0,0.0,0.0,0.0,0.0,0.0,0.0,0.0,0.0,0.0,0.0,0.0,0.0,-1.1389,8.7808,2.9477,14.8926,22.9492,15.625,84.2706,3.9606,-15.3809,0.661,0.1151,-0.0762,0.7376,-0.1531,8.1635,-2.5074,62.9272,37.5977,3.3569,112.5275,3.9276,-22.4231,0.8116,0.1803,-0.08,0.55,0.3876,9.3789,-2.6605,36.2549,14.8315,2.0142,111.6705,2.1588,-20.495,0.8122,0.1576,-0.0845,0.5553,-0.8805,0.6604,10.0201,8.2397,4.2114,2.7466,2.9993,5.3229,-89.8627,-0.0143,0.0513,-0.7044,0.7078,-0.6221,8.0104,2.0002,3.418,24.4751,-20.1416,78.3325,5.3778,-34.541,0.5916,0.222,-0.2016,0.7483,0.1292,8.8621,-3.5793,-240.0513,63.3545,-91.4917,92.9718,-0.5109,-22.4835,0.7119,0.1384,-0.1374,0.6747,6.1059,8.5798,17.6572,-218.3838,-61.8286,134.7656,1.6864,-11.618,-140.9161,0.1003,-0.0201,-0.938,0.3313,0,0,0,0,0,0,0,0,0,0,0,0,0,0,0,0,0,0,57606,0,23554,0,0,0,57864,0,33542,0,0,25345,7182,0,60673,23559,57104,0
1777287096.9671922,123065,1777287083.7726388,1777287095.3283322,1777287084.5654302,0,0,-11555.69338798523,-792.7913665771484,1,1,0.0,0.0,0.0,0.0,0.0,0.0,0.0,0.0,0.0,0.0,0.0,0.0,0.0,0.0,0.0,0.0,0.0,0.0,0.0,0.0,0.0,0.0,0.0,0.0,0.0,0.0,0.0,0.0,0.0,0.0,0.0,0.0,0.0,0.0,0.0,0.0,0.0,0.0,0.0,0.0,0.0,0.0,0.0,0.0,0.0,0.0,0.0,0.0,0.0,0.0,0.0,0.0,0.0,0.0,0.0,0.0,0.0,0.0,0.0,0.0,0.0,0.0,0.0,0.0,0.0,0.0,0.0,0.0,0.0,0.0,0.0,0.0,0.0,0.0,0.0,-1.1389,8.7808,2.9477,14.8926,22.9492,15.625,84.2706,3.9606,-15.3809,0.661,0.1151,-0.0762,0.7376,-0.1531,8.1635,-2.5074,62.9272,37.5977,3.3569,112.5275,3.9276,-22.4231,0.8116,0.1803,-0.08,0.55,0.3876,9.3789,-2.6605,36.2549,14.8315,2.0142,111.6705,2.1588,-20.495,0.8122,0.1576,-0.0845,0.5553,-0.8805,0.6604,10.0201,8.2397,4.2114,2.7466,2.9993,5.3229,-89.8627,-0.0143,0.0513,-0.7044,0.7078,-0.6221,8.0104,2.0002,3.418,24.4751,-20.1416,78.3325,5.3778,-34.541,0.5916,0.222,-0.2016,0.7483,0.1292,8.8621,-3.5793,-240.0513,63.3545,-91.4917,92.9718,-0.5109,-22.4835,0.7119,0.1384,-0.1374,0.6747,6.1059,8.5798,17.6572,-218.3838,-61.8286,134.7656,1.6864,-11.618,-140.9161,0.1003,-0.0201,-0.938,0.3313,0,0,0,0,0,0,0,0,0,0,0,0,0,0,0,0,0,0,57606,0,23554,0,0,0,57864,0,33542,0,0,25345,7182,0,60673,23559,57104,0
1777287096.9671922,123066,1777287083.774634,1777287095.3283322,1777287084.5654302,0,0,-11553.698301315308,-790.7962799072266,1,1,0.0,0.0,0.0,0.0,0.0,0.0,0.0,0.0,0.0,0.0,0.0,0.0,0.0,0.0,0.0,0.0,0.0,0.0,0.0,0.0,0.0,0.0,0.0,0.0,0.0,0.0,0.0,0.0,0.0,0.0,0.0,0.0,0.0,0.0,0.0,0.0,0.0,0.0,0.0,0.0,0.0,0.0,0.0,0.0,0.0,0.0,0.0,0.0,0.0,0.0,0.0,0.0,0.0,0.0,0.0,0.0,0.0,0.0,0.0,0.0,0.0,0.0,0.0,0.0,0.0,0.0,0.0,0.0,0.0,0.0,0.0,0.0,0.0,0.0,0.0,-1.1389,8.7808,2.9477,14.8926,22.9492,15.625,84.2706,3.9606,-15.3809,0.661,0.1151,-0.0762,0.7376,-0.1531,8.1635,-2.5074,62.9272,37.5977,3.3569,112.5275,3.9276,-22.4231,0.8116,0.1803,-0.08,0.55,0.3876,9.3789,-2.6605,36.2549,14.8315,2.0142,111.6705,2.1588,-20.495,0.8122,0.1576,-0.0845,0.5553,-0.8805,0.6604,10.0201,8.2397,4.2114,2.7466,2.9993,5.3229,-89.8627,-0.0143,0.0513,-0.7044,0.7078,-0.6221,8.0104,2.0002,3.418,24.4751,-20.1416,78.3325,5.3778,-34.541,0.5916,0.222,-0.2016,0.7483,0.1292,8.8621,-3.5793,-240.0513,63.3545,-91.4917,92.9718,-0.5109,-22.4835,0.7119,0.1384,-0.1374,0.6747,6.1059,8.5798,17.6572,-218.3838,-61.8286,134.7656,1.6864,-11.618,-140.9161,0.1003,-0.0201,-0.938,0.3313,0,0,0,0,0,0,0,0,0,0,0,0,0,0,0,0,0,0,57606,0,23554,0,0,0,57864,0,33542,0,0,25345,7182,0,60673,23559,57104,0
1777287096.9671922,123067,1777287083.7854822,1777287095.3283322,1777287084.5654302,0,0,-11542.850017547607,-779.9479961395264,1,1,0.0,0.0,0.0,0.0,0.0,0.0,0.0,0.0,0.0,0.0,0.0,0.0,0.0,0.0,0.0,0.0,0.0,0.0,0.0,0.0,0.0,0.0,0.0,0.0,0.0,0.0,0.0,0.0,0.0,0.0,0.0,0.0,0.0,0.0,0.0,0.0,0.0,0.0,0.0,0.0,0.0,0.0,0.0,0.0,0.0,0.0,0.0,0.0,0.0,0.0,0.0,0.0,0.0,0.0,0.0,0.0,0.0,0.0,0.0,0.0,0.0,0.0,0.0,0.0,0.0,0.0,0.0,0.0,0.0,0.0,0.0,0.0,0.0,0.0,0.0,-1.1389,8.7808,2.9477,14.8926,22.9492,15.625,84.2706,3.9606,-15.3809,0.661,0.1151,-0.0762,0.7376,-0.1531,8.1635,-2.5074,62.9272,37.5977,3.3569,112.5275,3.9276,-22.4231,0.8116,0.1803,-0.08,0.55,0.3876,9.3789,-2.6605,36.2549,14.8315,2.0142,111.6705,2.1588,-20.495,0.8122,0.1576,-0.0845,0.5553,-0.8805,0.6604,10.0201,8.2397,4.2114,2.7466,2.9993,5.3229,-89.8627,-0.0143,0.0513,-0.7044,0.7078,-0.6221,8.0104,2.0002,3.418,24.4751,-20.1416,78.3325,5.3778,-34.541,0.5916,0.222,-0.2016,0.7483,0.1292,8.8621,-3.5793,-240.0513,63.3545,-91.4917,92.9718,-0.5109,-22.4835,0.7119,0.1384,-0.1374,0.6747,6.1059,8.5798,17.6572,-218.3838,-61.8286,134.7656,1.6864,-11.618,-140.9161,0.1003,-0.0201,-0.938,0.3313,0,0,0,0,0,0,0,0,0,0,0,0,0,0,0,0,0,0,57606,0,23554,0,0,0,57864,0,33542,0,0,25345,7182,0,60673,23559,57104,0
1777287096.9671922,123068,1777287083.7952175,1777287095.3283322,1777287084.5654302,0,0,-11533.114671707153,-770.2126502990723,1,1,0.0,0.0,0.0,0.0,0.0,0.0,0.0,0.0,0.0,0.0,0.0,0.0,0.0,0.0,0.0,0.0,0.0,0.0,0.0,0.0,0.0,0.0,0.0,0.0,0.0,0.0,0.0,0.0,0.0,0.0,0.0,0.0,0.0,0.0,0.0,0.0,0.0,0.0,0.0,0.0,0.0,0.0,0.0,0.0,0.0,0.0,0.0,0.0,0.0,0.0,0.0,0.0,0.0,0.0,0.0,0.0,0.0,0.0,0.0,0.0,0.0,0.0,0.0,0.0,0.0,0.0,0.0,0.0,0.0,0.0,0.0,0.0,0.0,0.0,0.0,-1.1389,8.7808,2.9477,14.8926,22.9492,15.625,84.2706,3.9606,-15.3809,0.661,0.1151,-0.0762,0.7376,-0.1531,8.1635,-2.5074,62.9272,37.5977,3.3569,112.5275,3.9276,-22.4231,0.8116,0.1803,-0.08,0.55,0.3876,9.3789,-2.6605,36.2549,14.8315,2.0142,111.6705,2.1588,-20.495,0.8122,0.1576,-0.0845,0.5553,-0.8805,0.6604,10.0201,8.2397,4.2114,2.7466,2.9993,5.3229,-89.8627,-0.0143,0.0513,-0.7044,0.7078,-0.6221,8.0104,2.0002,3.418,24.4751,-20.1416,78.3325,5.3778,-34.541,0.5916,0.222,-0.2016,0.7483,0.1292,8.8621,-3.5793,-240.0513,63.3545,-91.4917,92.9718,-0.5109,-22.4835,0.7119,0.1384,-0.1374,0.6747,6.1059,8.5798,17.6572,-218.3838,-61.8286,134.7656,1.6864,-11.618,-140.9161,0.1003,-0.0201,-0.938,0.3313,0,0,0,0,0,0,0,0,0,0,0,0,0,0,0,0,0,0,57606,0,23554,0,0,0,57864,0,33542,0,0,25345,7182,0,60673,23559,57104,0
1777287096.9671922,123069,1777287083.8097568,1777287095.3283322,1777287084.5654302,0,0,-11518.575429916382,-755.6734085083008,1,1,0.0,0.0,0.0,0.0,0.0,0.0,0.0,0.0,0.0,0.0,0.0,0.0,0.0,0.0,0.0,0.0,0.0,0.0,0.0,0.0,0.0,0.0,0.0,0.0,0.0,0.0,0.0,0.0,0.0,0.0,0.0,0.0,0.0,0.0,0.0,0.0,0.0,0.0,0.0,0.0,0.0,0.0,0.0,0.0,0.0,0.0,0.0,0.0,0.0,0.0,0.0,0.0,0.0,0.0,0.0,0.0,0.0,0.0,0.0,0.0,0.0,0.0,0.0,0.0,0.0,0.0,0.0,0.0,0.0,0.0,0.0,0.0,0.0,0.0,0.0,-1.1389,8.7808,2.9477,14.8926,22.9492,15.625,84.2706,3.9606,-15.3809,0.661,0.1151,-0.0762,0.7376,-0.1531,8.1635,-2.5074,62.9272,37.5977,3.3569,112.5275,3.9276,-22.4231,0.8116,0.1803,-0.08,0.55,0.3876,9.3789,-2.6605,36.2549,14.8315,2.0142,111.6705,2.1588,-20.495,0.8122,0.1576,-0.0845,0.5553,-0.8805,0.6604,10.0201,8.2397,4.2114,2.7466,2.9993,5.3229,-89.8627,-0.0143,0.0513,-0.7044,0.7078,-0.6221,8.0104,2.0002,3.418,24.4751,-20.1416,78.3325,5.3778,-34.541,0.5916,0.222,-0.2016,0.7483,0.1292,8.8621,-3.5793,-240.0513,63.3545,-91.4917,92.9718,-0.5109,-22.4835,0.7119,0.1384,-0.1374,0.6747,6.1059,8.5798,17.6572,-218.3838,-61.8286,134.7656,1.6864,-11.618,-140.9161,0.1003,-0.0201,-0.938,0.3313,0,0,0,0,0,0,0,0,0,0,0,0,0,0,0,0,0,0,57606,0,23554,0,0,0,57864,0,33542,0,0,25345,7182,0,60673,23559,57104,0
1777287096.9681914,123070,1777287083.8146055,1777287095.3283322,1777287084.5654302,0,0,-11513.726711273193,-750.8246898651123,1,1,0.0,0.0,0.0,0.0,0.0,0.0,0.0,0.0,0.0,0.0,0.0,0.0,0.0,0.0,0.0,0.0,0.0,0.0,0.0,0.0,0.0,0.0,0.0,0.0,0.0,0.0,0.0,0.0,0.0,0.0,0.0,0.0,0.0,0.0,0.0,0.0,0.0,0.0,0.0,0.0,0.0,0.0,0.0,0.0,0.0,0.0,0.0,0.0,0.0,0.0,0.0,0.0,0.0,0.0,0.0,0.0,0.0,0.0,0.0,0.0,0.0,0.0,0.0,0.0,0.0,0.0,0.0,0.0,0.0,0.0,0.0,0.0,0.0,0.0,0.0,-1.1389,8.7808,2.9477,14.8926,22.9492,15.625,84.2706,3.9606,-15.3809,0.661,0.1151,-0.0762,0.7376,-0.1531,8.1635,-2.5074,62.9272,37.5977,3.3569,112.5275,3.9276,-22.4231,0.8116,0.1803,-0.08,0.55,0.3876,9.3789,-2.6605,36.2549,14.8315,2.0142,111.6705,2.1588,-20.495,0.8122,0.1576,-0.0845,0.5553,-0.8805,0.6604,10.0201,8.2397,4.2114,2.7466,2.9993,5.3229,-89.8627,-0.0143,0.0513,-0.7044,0.7078,-0.6221,8.0104,2.0002,3.418,24.4751,-20.1416,78.3325,5.3778,-34.541,0.5916,0.222,-0.2016,0.7483,0.1292,8.8621,-3.5793,-240.0513,63.3545,-91.4917,92.9718,-0.5109,-22.4835,0.7119,0.1384,-0.1374,0.6747,6.1059,8.5798,17.6572,-218.3838,-61.8286,134.7656,1.6864,-11.618,-140.9161,0.1003,-0.0201,-0.938,0.3313,0,0,0,0,0,0,0,0,0,0,0,0,0,0,0,0,0,0,57606,0,23554,0,0,0,57864,0,33542,0,0,25345,7182,0,60673,23559,57104,0
1777287096.9681914,123071,1777287083.8255417,1777287095.3283322,1777287084.5654302,0,0,-11502.790451049805,-739.8884296417236,1,1,0.0,0.0,0.0,0.0,0.0,0.0,0.0,0.0,0.0,0.0,0.0,0.0,0.0,0.0,0.0,0.0,0.0,0.0,0.0,0.0,0.0,0.0,0.0,0.0,0.0,0.0,0.0,0.0,0.0,0.0,0.0,0.0,0.0,0.0,0.0,0.0,0.0,0.0,0.0,0.0,0.0,0.0,0.0,0.0,0.0,0.0,0.0,0.0,0.0,0.0,0.0,0.0,0.0,0.0,0.0,0.0,0.0,0.0,0.0,0.0,0.0,0.0,0.0,0.0,0.0,0.0,0.0,0.0,0.0,0.0,0.0,0.0,0.0,0.0,0.0,-1.1389,8.7808,2.9477,14.8926,22.9492,15.625,84.2706,3.9606,-15.3809,0.661,0.1151,-0.0762,0.7376,-0.1531,8.1635,-2.5074,62.9272,37.5977,3.3569,112.5275,3.9276,-22.4231,0.8116,0.1803,-0.08,0.55,0.3876,9.3789,-2.6605,36.2549,14.8315,2.0142,111.6705,2.1588,-20.495,0.8122,0.1576,-0.0845,0.5553,-0.8805,0.6604,10.0201,8.2397,4.2114,2.7466,2.9993,5.3229,-89.8627,-0.0143,0.0513,-0.7044,0.7078,-0.6221,8.0104,2.0002,3.418,24.4751,-20.1416,78.3325,5.3778,-34.541,0.5916,0.222,-0.2016,0.7483,0.1292,8.8621,-3.5793,-240.0513,63.3545,-91.4917,92.9718,-0.5109,-22.4835,0.7119,0.1384,-0.1374,0.6747,6.1059,8.5798,17.6572,-218.3838,-61.8286,134.7656,1.6864,-11.618,-140.9161,0.1003,-0.0201,-0.938,0.3313,0,0,0,0,0,0,0,0,0,0,0,0,0,0,0,0,0,0,57606,0,23554,0,0,0,57864,0,33542,0,0,25345,7182,0,60673,23559,57104,0
1777287096.9681914,123072,1777287083.8350346,1777287095.3283322,1777287084.5654302,0,0,-11493.297576904297,-730.3955554962158,1,1,0.0,0.0,0.0,0.0,0.0,0.0,0.0,0.0,0.0,0.0,0.0,0.0,0.0,0.0,0.0,0.0,0.0,0.0,0.0,0.0,0.0,0.0,0.0,0.0,0.0,0.0,0.0,0.0,0.0,0.0,0.0,0.0,0.0,0.0,0.0,0.0,0.0,0.0,0.0,0.0,0.0,0.0,0.0,0.0,0.0,0.0,0.0,0.0,0.0,0.0,0.0,0.0,0.0,0.0,0.0,0.0,0.0,0.0,0.0,0.0,0.0,0.0,0.0,0.0,0.0,0.0,0.0,0.0,0.0,0.0,0.0,0.0,0.0,0.0,0.0,-1.1389,8.7808,2.9477,14.8926,22.9492,15.625,84.2706,3.9606,-15.3809,0.661,0.1151,-0.0762,0.7376,-0.1531,8.1635,-2.5074,62.9272,37.5977,3.3569,112.5275,3.9276,-22.4231,0.8116,0.1803,-0.08,0.55,0.3876,9.3789,-2.6605,36.2549,14.8315,2.0142,111.6705,2.1588,-20.495,0.8122,0.1576,-0.0845,0.5553,-0.8805,0.6604,10.0201,8.2397,4.2114,2.7466,2.9993,5.3229,-89.8627,-0.0143,0.0513,-0.7044,0.7078,-0.6221,8.0104,2.0002,3.418,24.4751,-20.1416,78.3325,5.3778,-34.541,0.5916,0.222,-0.2016,0.7483,0.1292,8.8621,-3.5793,-240.0513,63.3545,-91.4917,92.9718,-0.5109,-22.4835,0.7119,0.1384,-0.1374,0.6747,6.1059,8.5798,17.6572,-218.3838,-61.8286,134.7656,1.6864,-11.618,-140.9161,0.1003,-0.0201,-0.938,0.3313,0,0,0,0,0,0,0,0,0,0,0,0,0,0,0,0,0,0,57606,0,23554,0,0,0,57864,0,33542,0,0,25345,7182,0,60673,23559,57104,0
1777287096.9681914,123073,1777287083.845432,1777287095.3283322,1777287084.5654302,0,0,-11482.900142669678,-719.9981212615967,1,1,0.0,0.0,0.0,0.0,0.0,0.0,0.0,0.0,0.0,0.0,0.0,0.0,0.0,0.0,0.0,0.0,0.0,0.0,0.0,0.0,0.0,0.0,0.0,0.0,0.0,0.0,0.0,0.0,0.0,0.0,0.0,0.0,0.0,0.0,0.0,0.0,0.0,0.0,0.0,0.0,0.0,0.0,0.0,0.0,0.0,0.0,0.0,0.0,0.0,0.0,0.0,0.0,0.0,0.0,0.0,0.0,0.0,0.0,0.0,0.0,0.0,0.0,0.0,0.0,0.0,0.0,0.0,0.0,0.0,0.0,0.0,0.0,0.0,0.0,0.0,-1.1389,8.7808,2.9477,14.8926,22.9492,15.625,84.2706,3.9606,-15.3809,0.661,0.1151,-0.0762,0.7376,-0.1531,8.1635,-2.5074,62.9272,37.5977,3.3569,112.5275,3.9276,-22.4231,0.8116,0.1803,-0.08,0.55,0.3876,9.3789,-2.6605,36.2549,14.8315,2.0142,111.6705,2.1588,-20.495,0.8122,0.1576,-0.0845,0.5553,-0.8805,0.6604,10.0201,8.2397,4.2114,2.7466,2.9993,5.3229,-89.8627,-0.0143,0.0513,-0.7044,0.7078,-0.6221,8.0104,2.0002,3.418,24.4751,-20.1416,78.3325,5.3778,-34.541,0.5916,0.222,-0.2016,0.7483,0.1292,8.8621,-3.5793,-240.0513,63.3545,-91.4917,92.9718,-0.5109,-22.4835,0.7119,0.1384,-0.1374,0.6747,6.1059,8.5798,17.6572,-218.3838,-61.8286,134.7656,1.6864,-11.618,-140.9161,0.1003,-0.0201,-0.938,0.3313,0,0,0,0,0,0,0,0,0,0,0,0,0,0,0,0,0,0,57606,0,23554,0,0,0,57864,0,33542,0,0,25345,7182,0,60673,23559,57104,0
1777287096.9681914,123074,1777287083.854542,1777287095.3283322,1777287084.5654302,0,0,-11473.790168762207,-710.888147354126,1,1,0.0,0.0,0.0,0.0,0.0,0.0,0.0,0.0,0.0,0.0,0.0,0.0,0.0,0.0,0.0,0.0,0.0,0.0,0.0,0.0,0.0,0.0,0.0,0.0,0.0,0.0,0.0,0.0,0.0,0.0,0.0,0.0,0.0,0.0,0.0,0.0,0.0,0.0,0.0,0.0,0.0,0.0,0.0,0.0,0.0,0.0,0.0,0.0,0.0,0.0,0.0,0.0,0.0,0.0,0.0,0.0,0.0,0.0,0.0,0.0,0.0,0.0,0.0,0.0,0.0,0.0,0.0,0.0,0.0,0.0,0.0,0.0,0.0,0.0,0.0,-1.1389,8.7808,2.9477,14.8926,22.9492,15.625,84.2706,3.9606,-15.3809,0.661,0.1151,-0.0762,0.7376,-0.1531,8.1635,-2.5074,62.9272,37.5977,3.3569,112.5275,3.9276,-22.4231,0.8116,0.1803,-0.08,0.55,0.3876,9.3789,-2.6605,36.2549,14.8315,2.0142,111.6705,2.1588,-20.495,0.8122,0.1576,-0.0845,0.5553,-0.8805,0.6604,10.0201,8.2397,4.2114,2.7466,2.9993,5.3229,-89.8627,-0.0143,0.0513,-0.7044,0.7078,-0.6221,8.0104,2.0002,3.418,24.4751,-20.1416,78.3325,5.3778,-34.541,0.5916,0.222,-0.2016,0.7483,0.1292,8.8621,-3.5793,-240.0513,63.3545,-91.4917,92.9718,-0.5109,-22.4835,0.7119,0.1384,-0.1374,0.6747,6.1059,8.5798,17.6572,-218.3838,-61.8286,134.7656,1.6864,-11.618,-140.9161,0.1003,-0.0201,-0.938,0.3313,0,0,0,0,0,0,0,0,0,0,0,0,0,0,0,0,0,0,57606,0,23554,0,0,0,57864,0,33542,0,0,25345,7182,0,60673,23559,57104,0
1777287096.9681914,123075,1777287083.864682,1777287095.3283322,1777287084.5654302,0,0,-11463.650226593018,-700.7482051849365,1,1,0.0,0.0,0.0,0.0,0.0,0.0,0.0,0.0,0.0,0.0,0.0,0.0,0.0,0.0,0.0,0.0,0.0,0.0,0.0,0.0,0.0,0.0,0.0,0.0,0.0,0.0,0.0,0.0,0.0,0.0,0.0,0.0,0.0,0.0,0.0,0.0,0.0,0.0,0.0,0.0,0.0,0.0,0.0,0.0,0.0,0.0,0.0,0.0,0.0,0.0,0.0,0.0,0.0,0.0,0.0,0.0,0.0,0.0,0.0,0.0,0.0,0.0,0.0,0.0,0.0,0.0,0.0,0.0,0.0,0.0,0.0,0.0,0.0,0.0,0.0,-1.1389,8.7808,2.9477,14.8926,22.9492,15.625,84.2706,3.9606,-15.3809,0.661,0.1151,-0.0762,0.7376,-0.1531,8.1635,-2.5074,62.9272,37.5977,3.3569,112.5275,3.9276,-22.4231,0.8116,0.1803,-0.08,0.55,0.3876,9.3789,-2.6605,36.2549,14.8315,2.0142,111.6705,2.1588,-20.495,0.8122,0.1576,-0.0845,0.5553,-0.8805,0.6604,10.0201,8.2397,4.2114,2.7466,2.9993,5.3229,-89.8627,-0.0143,0.0513,-0.7044,0.7078,-0.6221,8.0104,2.0002,3.418,24.4751,-20.1416,78.3325,5.3778,-34.541,0.5916,0.222,-0.2016,0.7483,0.1292,8.8621,-3.5793,-240.0513,63.3545,-91.4917,92.9718,-0.5109,-22.4835,0.7119,0.1384,-0.1374,0.6747,6.1059,8.5798,17.6572,-218.3838,-61.8286,134.7656,1.6864,-11.618,-140.9161,0.1003,-0.0201,-0.938,0.3313,0,0,0,0,0,0,0,0,0,0,0,0,0,0,0,0,0,0,57606,0,23554,0,0,0,57864,0,33542,0,0,25345,7182,0,60673,23559,57104,0
1777287096.9681914,123076,1777287083.875267,1777287095.3283322,1777287084.5654302,0,0,-11453.065156936646,-690.1631355285645,1,1,0.0,0.0,0.0,0.0,0.0,0.0,0.0,0.0,0.0,0.0,0.0,0.0,0.0,0.0,0.0,0.0,0.0,0.0,0.0,0.0,0.0,0.0,0.0,0.0,0.0,0.0,0.0,0.0,0.0,0.0,0.0,0.0,0.0,0.0,0.0,0.0,0.0,0.0,0.0,0.0,0.0,0.0,0.0,0.0,0.0,0.0,0.0,0.0,0.0,0.0,0.0,0.0,0.0,0.0,0.0,0.0,0.0,0.0,0.0,0.0,0.0,0.0,0.0,0.0,0.0,0.0,0.0,0.0,0.0,0.0,0.0,0.0,0.0,0.0,0.0,-1.1389,8.7808,2.9477,14.8926,22.9492,15.625,84.2706,3.9606,-15.3809,0.661,0.1151,-0.0762,0.7376,-0.1531,8.1635,-2.5074,62.9272,37.5977,3.3569,112.5275,3.9276,-22.4231,0.8116,0.1803,-0.08,0.55,0.3876,9.3789,-2.6605,36.2549,14.8315,2.0142,111.6705,2.1588,-20.495,0.8122,0.1576,-0.0845,0.5553,-0.8805,0.6604,10.0201,8.2397,4.2114,2.7466,2.9993,5.3229,-89.8627,-0.0143,0.0513,-0.7044,0.7078,-0.6221,8.0104,2.0002,3.418,24.4751,-20.1416,78.3325,5.3778,-34.541,0.5916,0.222,-0.2016,0.7483,0.1292,8.8621,-3.5793,-240.0513,63.3545,-91.4917,92.9718,-0.5109,-22.4835,0.7119,0.1384,-0.1374,0.6747,6.1059,8.5798,17.6572,-218.3838,-61.8286,134.7656,1.6864,-11.618,-140.9161,0.1003,-0.0201,-0.938,0.3313,0,0,0,0,0,0,0,0,0,0,0,0,0,0,0,0,0,0,57606,0,23554,0,0,0,57864,0,33542,0,0,25345,7182,0,60673,23559,57104,0
1777287096.9681914,123077,1777287083.885265,1777287095.3283322,1777287084.5654302,0,0,-11443.067073822021,-680.1650524139404,1,1,0.0,0.0,0.0,0.0,0.0,0.0,0.0,0.0,0.0,0.0,0.0,0.0,0.0,0.0,0.0,0.0,0.0,0.0,0.0,0.0,0.0,0.0,0.0,0.0,0.0,0.0,0.0,0.0,0.0,0.0,0.0,0.0,0.0,0.0,0.0,0.0,0.0,0.0,0.0,0.0,0.0,0.0,0.0,0.0,0.0,0.0,0.0,0.0,0.0,0.0,0.0,0.0,0.0,0.0,0.0,0.0,0.0,0.0,0.0,0.0,0.0,0.0,0.0,0.0,0.0,0.0,0.0,0.0,0.0,0.0,0.0,0.0,0.0,0.0,0.0,-1.1389,8.7808,2.9477,14.8926,22.9492,15.625,84.2706,3.9606,-15.3809,0.661,0.1151,-0.0762,0.7376,-0.1531,8.1635,-2.5074,62.9272,37.5977,3.3569,112.5275,3.9276,-22.4231,0.8116,0.1803,-0.08,0.55,0.3876,9.3789,-2.6605,36.2549,14.8315,2.0142,111.6705,2.1588,-20.495,0.8122,0.1576,-0.0845,0.5553,-0.8805,0.6604,10.0201,8.2397,4.2114,2.7466,2.9993,5.3229,-89.8627,-0.0143,0.0513,-0.7044,0.7078,-0.6221,8.0104,2.0002,3.418,24.4751,-20.1416,78.3325,5.3778,-34.541,0.5916,0.222,-0.2016,0.7483,0.1292,8.8621,-3.5793,-240.0513,63.3545,-91.4917,92.9718,-0.5109,-22.4835,0.7119,0.1384,-0.1374,0.6747,6.1059,8.5798,17.6572,-218.3838,-61.8286,134.7656,1.6864,-11.618,-140.9161,0.1003,-0.0201,-0.938,0.3313,0,0,0,0,0,0,0,0,0,0,0,0,0,0,0,0,0,0,57606,0,23554,0,0,0,57864,0,33542,0,0,25345,7182,0,60673,23559,57104,0
1777287096.9681914,123078,1777287083.8956254,1777287095.3283322,1777287084.5654302,0,0,-11432.706832885742,-669.8048114776611,1,1,0.0,0.0,0.0,0.0,0.0,0.0,0.0,0.0,0.0,0.0,0.0,0.0,0.0,0.0,0.0,0.0,0.0,0.0,0.0,0.0,0.0,0.0,0.0,0.0,0.0,0.0,0.0,0.0,0.0,0.0,0.0,0.0,0.0,0.0,0.0,0.0,0.0,0.0,0.0,0.0,0.0,0.0,0.0,0.0,0.0,0.0,0.0,0.0,0.0,0.0,0.0,0.0,0.0,0.0,0.0,0.0,0.0,0.0,0.0,0.0,0.0,0.0,0.0,0.0,0.0,0.0,0.0,0.0,0.0,0.0,0.0,0.0,0.0,0.0,0.0,-1.1389,8.7808,2.9477,14.8926,22.9492,15.625,84.2706,3.9606,-15.3809,0.661,0.1151,-0.0762,0.7376,-0.1531,8.1635,-2.5074,62.9272,37.5977,3.3569,112.5275,3.9276,-22.4231,0.8116,0.1803,-0.08,0.55,0.3876,9.3789,-2.6605,36.2549,14.8315,2.0142,111.6705,2.1588,-20.495,0.8122,0.1576,-0.0845,0.5553,-0.8805,0.6604,10.0201,8.2397,4.2114,2.7466,2.9993,5.3229,-89.8627,-0.0143,0.0513,-0.7044,0.7078,-0.6221,8.0104,2.0002,3.418,24.4751,-20.1416,78.3325,5.3778,-34.541,0.5916,0.222,-0.2016,0.7483,0.1292,8.8621,-3.5793,-240.0513,63.3545,-91.4917,92.9718,-0.5109,-22.4835,0.7119,0.1384,-0.1374,0.6747,6.1059,8.5798,17.6572,-218.3838,-61.8286,134.7656,1.6864,-11.618,-140.9161,0.1003,-0.0201,-0.938,0.3313,0,0,0,0,0,0,0,0,0,0,0,0,0,0,0,0,0,0,57606,0,23554,0,0,0,57864,0,33542,0,0,25345,7182,0,60673,23559,57104,0
1777287096.969191,123079,1777287083.9049966,1777287095.3283322,1777287084.5654302,0,0,-11423.335552215576,-660.4335308074951,1,1,0.0,0.0,0.0,0.0,0.0,0.0,0.0,0.0,0.0,0.0,0.0,0.0,0.0,0.0,0.0,0.0,0.0,0.0,0.0,0.0,0.0,0.0,0.0,0.0,0.0,0.0,0.0,0.0,0.0,0.0,0.0,0.0,0.0,0.0,0.0,0.0,0.0,0.0,0.0,0.0,0.0,0.0,0.0,0.0,0.0,0.0,0.0,0.0,0.0,0.0,0.0,0.0,0.0,0.0,0.0,0.0,0.0,0.0,0.0,0.0,0.0,0.0,0.0,0.0,0.0,0.0,0.0,0.0,0.0,0.0,0.0,0.0,0.0,0.0,0.0,-1.1389,8.7808,2.9477,14.8926,22.9492,15.625,84.2706,3.9606,-15.3809,0.661,0.1151,-0.0762,0.7376,-0.1531,8.1635,-2.5074,62.9272,37.5977,3.3569,112.5275,3.9276,-22.4231,0.8116,0.1803,-0.08,0.55,0.3876,9.3789,-2.6605,36.2549,14.8315,2.0142,111.6705,2.1588,-20.495,0.8122,0.1576,-0.0845,0.5553,-0.8805,0.6604,10.0201,8.2397,4.2114,2.7466,2.9993,5.3229,-89.8627,-0.0143,0.0513,-0.7044,0.7078,-0.6221,8.0104,2.0002,3.418,24.4751,-20.1416,78.3325,5.3778,-34.541,0.5916,0.222,-0.2016,0.7483,0.1292,8.8621,-3.5793,-240.0513,63.3545,-91.4917,92.9718,-0.5109,-22.4835,0.7119,0.1384,-0.1374,0.6747,6.1059,8.5798,17.6572,-218.3838,-61.8286,134.7656,1.6864,-11.618,-140.9161,0.1003,-0.0201,-0.938,0.3313,0,0,0,0,0,0,0,0,0,0,0,0,0,0,0,0,0,0,57606,0,23554,0,0,0,57864,0,33542,0,0,25345,7182,0,60673,23559,57104,0
1777287096.969191,123080,1777287083.920557,1777287095.3283322,1777287084.5654302,0,0,-11407.775163650513,-644.8731422424316,1,1,0.0,0.0,0.0,0.0,0.0,0.0,0.0,0.0,0.0,0.0,0.0,0.0,0.0,0.0,0.0,0.0,0.0,0.0,0.0,0.0,0.0,0.0,0.0,0.0,0.0,0.0,0.0,0.0,0.0,0.0,0.0,0.0,0.0,0.0,0.0,0.0,0.0,0.0,0.0,0.0,0.0,0.0,0.0,0.0,0.0,0.0,0.0,0.0,0.0,0.0,0.0,0.0,0.0,0.0,0.0,0.0,0.0,0.0,0.0,0.0,0.0,0.0,0.0,0.0,0.0,0.0,0.0,0.0,0.0,0.0,0.0,0.0,0.0,0.0,0.0,-1.1389,8.7808,2.9477,14.8926,22.9492,15.625,84.2706,3.9606,-15.3809,0.661,0.1151,-0.0762,0.7376,-0.1531,8.1635,-2.5074,62.9272,37.5977,3.3569,112.5275,3.9276,-22.4231,0.8116,0.1803,-0.08,0.55,0.3876,9.3789,-2.6605,36.2549,14.8315,2.0142,111.6705,2.1588,-20.495,0.8122,0.1576,-0.0845,0.5553,-0.8805,0.6604,10.0201,8.2397,4.2114,2.7466,2.9993,5.3229,-89.8627,-0.0143,0.0513,-0.7044,0.7078,-0.6221,8.0104,2.0002,3.418,24.4751,-20.1416,78.3325,5.3778,-34.541,0.5916,0.222,-0.2016,0.7483,0.1292,8.8621,-3.5793,-240.0513,63.3545,-91.4917,92.9718,-0.5109,-22.4835,0.7119,0.1384,-0.1374,0.6747,6.1059,8.5798,17.6572,-218.3838,-61.8286,134.7656,1.6864,-11.618,-140.9161,0.1003,-0.0201,-0.938,0.3313,0,0,0,0,0,0,0,0,0,0,0,0,0,0,0,0,0,0,57606,0,23554,0,0,0,57864,0,33542,0,0,25345,7182,0,60673,23559,57104,0
1777287096.969191,123081,1777287083.9248111,1777287095.3283322,1777287084.5654302,0,0,-11403.521060943604,-640.6190395355225,1,1,0.0,0.0,0.0,0.0,0.0,0.0,0.0,0.0,0.0,0.0,0.0,0.0,0.0,0.0,0.0,0.0,0.0,0.0,0.0,0.0,0.0,0.0,0.0,0.0,0.0,0.0,0.0,0.0,0.0,0.0,0.0,0.0,0.0,0.0,0.0,0.0,0.0,0.0,0.0,0.0,0.0,0.0,0.0,0.0,0.0,0.0,0.0,0.0,0.0,0.0,0.0,0.0,0.0,0.0,0.0,0.0,0.0,0.0,0.0,0.0,0.0,0.0,0.0,0.0,0.0,0.0,0.0,0.0,0.0,0.0,0.0,0.0,0.0,0.0,0.0,-1.1389,8.7808,2.9477,14.8926,22.9492,15.625,84.2706,3.9606,-15.3809,0.661,0.1151,-0.0762,0.7376,-0.1531,8.1635,-2.5074,62.9272,37.5977,3.3569,112.5275,3.9276,-22.4231,0.8116,0.1803,-0.08,0.55,0.3876,9.3789,-2.6605,36.2549,14.8315,2.0142,111.6705,2.1588,-20.495,0.8122,0.1576,-0.0845,0.5553,-0.8805,0.6604,10.0201,8.2397,4.2114,2.7466,2.9993,5.3229,-89.8627,-0.0143,0.0513,-0.7044,0.7078,-0.6221,8.0104,2.0002,3.418,24.4751,-20.1416,78.3325,5.3778,-34.541,0.5916,0.222,-0.2016,0.7483,0.1292,8.8621,-3.5793,-240.0513,63.3545,-91.4917,92.9718,-0.5109,-22.4835,0.7119,0.1384,-0.1374,0.6747,6.1059,8.5798,17.6572,-218.3838,-61.8286,134.7656,1.6864,-11.618,-140.9161,0.1003,-0.0201,-0.938,0.3313,0,0,0,0,0,0,0,0,0,0,0,0,0,0,0,0,0,0,57606,0,23554,0,0,0,57864,0,33542,0,0,25345,7182,0,60673,23559,57104,0
1777287096.969191,123082,1777287083.9353049,1777287095.3283322,1777287084.5654302,0,0,-11393.027305603027,-630.1252841949463,1,1,0.0,0.0,0.0,0.0,0.0,0.0,0.0,0.0,0.0,0.0,0.0,0.0,0.0,0.0,0.0,0.0,0.0,0.0,0.0,0.0,0.0,0.0,0.0,0.0,0.0,0.0,0.0,0.0,0.0,0.0,0.0,0.0,0.0,0.0,0.0,0.0,0.0,0.0,0.0,0.0,0.0,0.0,0.0,0.0,0.0,0.0,0.0,0.0,0.0,0.0,0.0,0.0,0.0,0.0,0.0,0.0,0.0,0.0,0.0,0.0,0.0,0.0,0.0,0.0,0.0,0.0,0.0,0.0,0.0,0.0,0.0,0.0,0.0,0.0,0.0,-1.1389,8.7808,2.9477,14.8926,22.9492,15.625,84.2706,3.9606,-15.3809,0.661,0.1151,-0.0762,0.7376,-0.1531,8.1635,-2.5074,62.9272,37.5977,3.3569,112.5275,3.9276,-22.4231,0.8116,0.1803,-0.08,0.55,0.3876,9.3789,-2.6605,36.2549,14.8315,2.0142,111.6705,2.1588,-20.495,0.8122,0.1576,-0.0845,0.5553,-0.8805,0.6604,10.0201,8.2397,4.2114,2.7466,2.9993,5.3229,-89.8627,-0.0143,0.0513,-0.7044,0.7078,-0.6221,8.0104,2.0002,3.418,24.4751,-20.1416,78.3325,5.3778,-34.541,0.5916,0.222,-0.2016,0.7483,0.1292,8.8621,-3.5793,-240.0513,63.3545,-91.4917,92.9718,-0.5109,-22.4835,0.7119,0.1384,-0.1374,0.6747,6.1059,8.5798,17.6572,-218.3838,-61.8286,134.7656,1.6864,-11.618,-140.9161,0.1003,-0.0201,-0.938,0.3313,0,0,0,0,0,0,0,0,0,0,0,0,0,0,0,0,0,0,57606,0,23554,0,0,0,57864,0,33542,0,0,25345,7182,0,60673,23559,57104,0
1777287096.969191,123083,1777287083.9453542,1777287095.3283322,1777287084.5654302,0,0,-11382.977962493896,-620.0759410858154,1,1,0.0,0.0,0.0,0.0,0.0,0.0,0.0,0.0,0.0,0.0,0.0,0.0,0.0,0.0,0.0,0.0,0.0,0.0,0.0,0.0,0.0,0.0,0.0,0.0,0.0,0.0,0.0,0.0,0.0,0.0,0.0,0.0,0.0,0.0,0.0,0.0,0.0,0.0,0.0,0.0,0.0,0.0,0.0,0.0,0.0,0.0,0.0,0.0,0.0,0.0,0.0,0.0,0.0,0.0,0.0,0.0,0.0,0.0,0.0,0.0,0.0,0.0,0.0,0.0,0.0,0.0,0.0,0.0,0.0,0.0,0.0,0.0,0.0,0.0,0.0,-1.1389,8.7808,2.9477,14.8926,22.9492,15.625,84.2706,3.9606,-15.3809,0.661,0.1151,-0.0762,0.7376,-0.1531,8.1635,-2.5074,62.9272,37.5977,3.3569,112.5275,3.9276,-22.4231,0.8116,0.1803,-0.08,0.55,0.3876,9.3789,-2.6605,36.2549,14.8315,2.0142,111.6705,2.1588,-20.495,0.8122,0.1576,-0.0845,0.5553,-0.8805,0.6604,10.0201,8.2397,4.2114,2.7466,2.9993,5.3229,-89.8627,-0.0143,0.0513,-0.7044,0.7078,-0.6221,8.0104,2.0002,3.418,24.4751,-20.1416,78.3325,5.3778,-34.541,0.5916,0.222,-0.2016,0.7483,0.1292,8.8621,-3.5793,-240.0513,63.3545,-91.4917,92.9718,-0.5109,-22.4835,0.7119,0.1384,-0.1374,0.6747,6.1059,8.5798,17.6572,-218.3838,-61.8286,134.7656,1.6864,-11.618,-140.9161,0.1003,-0.0201,-0.938,0.3313,0,0,0,0,0,0,0,0,0,0,0,0,0,0,0,0,0,0,57606,0,23554,0,0,0,57864,0,33542,0,0,25345,7182,0,60673,23559,57104,0
1777287096.969191,123084,1777287083.9546368,1777287095.3283322,1777287084.5654302,0,0,-11373.695373535156,-610.7933521270752,1,1,0.0,0.0,0.0,0.0,0.0,0.0,0.0,0.0,0.0,0.0,0.0,0.0,0.0,0.0,0.0,0.0,0.0,0.0,0.0,0.0,0.0,0.0,0.0,0.0,0.0,0.0,0.0,0.0,0.0,0.0,0.0,0.0,0.0,0.0,0.0,0.0,0.0,0.0,0.0,0.0,0.0,0.0,0.0,0.0,0.0,0.0,0.0,0.0,0.0,0.0,0.0,0.0,0.0,0.0,0.0,0.0,0.0,0.0,0.0,0.0,0.0,0.0,0.0,0.0,0.0,0.0,0.0,0.0,0.0,0.0,0.0,0.0,0.0,0.0,0.0,-1.1389,8.7808,2.9477,14.8926,22.9492,15.625,84.2706,3.9606,-15.3809,0.661,0.1151,-0.0762,0.7376,-0.1531,8.1635,-2.5074,62.9272,37.5977,3.3569,112.5275,3.9276,-22.4231,0.8116,0.1803,-0.08,0.55,0.3876,9.3789,-2.6605,36.2549,14.8315,2.0142,111.6705,2.1588,-20.495,0.8122,0.1576,-0.0845,0.5553,-0.8805,0.6604,10.0201,8.2397,4.2114,2.7466,2.9993,5.3229,-89.8627,-0.0143,0.0513,-0.7044,0.7078,-0.6221,8.0104,2.0002,3.418,24.4751,-20.1416,78.3325,5.3778,-34.541,0.5916,0.222,-0.2016,0.7483,0.1292,8.8621,-3.5793,-240.0513,63.3545,-91.4917,92.9718,-0.5109,-22.4835,0.7119,0.1384,-0.1374,0.6747,6.1059,8.5798,17.6572,-218.3838,-61.8286,134.7656,1.6864,-11.618,-140.9161,0.1003,-0.0201,-0.938,0.3313,0,0,0,0,0,0,0,0,0,0,0,0,0,0,0,0,0,0,57606,0,23554,0,0,0,57864,0,33542,0,0,25345,7182,0,60673,23559,57104,0
1777287096.969191,123085,1777287083.972315,1777287095.3283322,1777287084.5654302,0,0,-11356.017112731934,-593.1150913238525,1,1,0.0,0.0,0.0,0.0,0.0,0.0,0.0,0.0,0.0,0.0,0.0,0.0,0.0,0.0,0.0,0.0,0.0,0.0,0.0,0.0,0.0,0.0,0.0,0.0,0.0,0.0,0.0,0.0,0.0,0.0,0.0,0.0,0.0,0.0,0.0,0.0,0.0,0.0,0.0,0.0,0.0,0.0,0.0,0.0,0.0,0.0,0.0,0.0,0.0,0.0,0.0,0.0,0.0,0.0,0.0,0.0,0.0,0.0,0.0,0.0,0.0,0.0,0.0,0.0,0.0,0.0,0.0,0.0,0.0,0.0,0.0,0.0,0.0,0.0,0.0,-1.1389,8.7808,2.9477,14.8926,22.9492,15.625,84.2706,3.9606,-15.3809,0.661,0.1151,-0.0762,0.7376,-0.1531,8.1635,-2.5074,62.9272,37.5977,3.3569,112.5275,3.9276,-22.4231,0.8116,0.1803,-0.08,0.55,0.3876,9.3789,-2.6605,36.2549,14.8315,2.0142,111.6705,2.1588,-20.495,0.8122,0.1576,-0.0845,0.5553,-0.8805,0.6604,10.0201,8.2397,4.2114,2.7466,2.9993,5.3229,-89.8627,-0.0143,0.0513,-0.7044,0.7078,-0.6221,8.0104,2.0002,3.418,24.4751,-20.1416,78.3325,5.3778,-34.541,0.5916,0.222,-0.2016,0.7483,0.1292,8.8621,-3.5793,-240.0513,63.3545,-91.4917,92.9718,-0.5109,-22.4835,0.7119,0.1384,-0.1374,0.6747,6.1059,8.5798,17.6572,-218.3838,-61.8286,134.7656,1.6864,-11.618,-140.9161,0.1003,-0.0201,-0.938,0.3313,0,0,0,0,0,0,0,0,0,0,0,0,0,0,0,0,0,0,57606,0,23554,0,0,0,57864,0,33542,0,0,25345,7182,0,60673,23559,57104,0
1777287096.969191,123086,1777287083.974174,1777287095.3283322,1777287084.5654302,0,0,-11354.158163070679,-591.2561416625977,1,1,0.0,0.0,0.0,0.0,0.0,0.0,0.0,0.0,0.0,0.0,0.0,0.0,0.0,0.0,0.0,0.0,0.0,0.0,0.0,0.0,0.0,0.0,0.0,0.0,0.0,0.0,0.0,0.0,0.0,0.0,0.0,0.0,0.0,0.0,0.0,0.0,0.0,0.0,0.0,0.0,0.0,0.0,0.0,0.0,0.0,0.0,0.0,0.0,0.0,0.0,0.0,0.0,0.0,0.0,0.0,0.0,0.0,0.0,0.0,0.0,0.0,0.0,0.0,0.0,0.0,0.0,0.0,0.0,0.0,0.0,0.0,0.0,0.0,0.0,0.0,-1.1389,8.7808,2.9477,14.8926,22.9492,15.625,84.2706,3.9606,-15.3809,0.661,0.1151,-0.0762,0.7376,-0.1531,8.1635,-2.5074,62.9272,37.5977,3.3569,112.5275,3.9276,-22.4231,0.8116,0.1803,-0.08,0.55,0.3876,9.3789,-2.6605,36.2549,14.8315,2.0142,111.6705,2.1588,-20.495,0.8122,0.1576,-0.0845,0.5553,-0.8805,0.6604,10.0201,8.2397,4.2114,2.7466,2.9993,5.3229,-89.8627,-0.0143,0.0513,-0.7044,0.7078,-0.6221,8.0104,2.0002,3.418,24.4751,-20.1416,78.3325,5.3778,-34.541,0.5916,0.222,-0.2016,0.7483,0.1292,8.8621,-3.5793,-240.0513,63.3545,-91.4917,92.9718,-0.5109,-22.4835,0.7119,0.1384,-0.1374,0.6747,6.1059,8.5798,17.6572,-218.3838,-61.8286,134.7656,1.6864,-11.618,-140.9161,0.1003,-0.0201,-0.938,0.3313,0,0,0,0,0,0,0,0,0,0,0,0,0,0,0,0,0,0,57606,0,23554,0,0,0,57864,0,33542,0,0,25345,7182,0,60673,23559,57104,0
1777287096.969191,123087,1777287083.9850967,1777287095.3283322,1777287084.5654302,0,0,-11343.235492706299,-580.3334712982178,1,1,0.0,0.0,0.0,0.0,0.0,0.0,0.0,0.0,0.0,0.0,0.0,0.0,0.0,0.0,0.0,0.0,0.0,0.0,0.0,0.0,0.0,0.0,0.0,0.0,0.0,0.0,0.0,0.0,0.0,0.0,0.0,0.0,0.0,0.0,0.0,0.0,0.0,0.0,0.0,0.0,0.0,0.0,0.0,0.0,0.0,0.0,0.0,0.0,0.0,0.0,0.0,0.0,0.0,0.0,0.0,0.0,0.0,0.0,0.0,0.0,0.0,0.0,0.0,0.0,0.0,0.0,0.0,0.0,0.0,0.0,0.0,0.0,0.0,0.0,0.0,-1.1389,8.7808,2.9477,14.8926,22.9492,15.625,84.2706,3.9606,-15.3809,0.661,0.1151,-0.0762,0.7376,-0.1531,8.1635,-2.5074,62.9272,37.5977,3.3569,112.5275,3.9276,-22.4231,0.8116,0.1803,-0.08,0.55,0.3876,9.3789,-2.6605,36.2549,14.8315,2.0142,111.6705,2.1588,-20.495,0.8122,0.1576,-0.0845,0.5553,-0.8805,0.6604,10.0201,8.2397,4.2114,2.7466,2.9993,5.3229,-89.8627,-0.0143,0.0513,-0.7044,0.7078,-0.6221,8.0104,2.0002,3.418,24.4751,-20.1416,78.3325,5.3778,-34.541,0.5916,0.222,-0.2016,0.7483,0.1292,8.8621,-3.5793,-240.0513,63.3545,-91.4917,92.9718,-0.5109,-22.4835,0.7119,0.1384,-0.1374,0.6747,6.1059,8.5798,17.6572,-218.3838,-61.8286,134.7656,1.6864,-11.618,-140.9161,0.1003,-0.0201,-0.938,0.3313,0,0,0,0,0,0,0,0,0,0,0,0,0,0,0,0,0,0,57606,0,23554,0,0,0,57864,0,33542,0,0,25345,7182,0,60673,23559,57104,0
1777287096.969191,123088,1777287083.994762,1777287095.3283322,1777287084.5654302,0,0,-11333.5702419281,-570.6682205200195,1,1,0.0,0.0,0.0,0.0,0.0,0.0,0.0,0.0,0.0,0.0,0.0,0.0,0.0,0.0,0.0,0.0,0.0,0.0,0.0,0.0,0.0,0.0,0.0,0.0,0.0,0.0,0.0,0.0,0.0,0.0,0.0,0.0,0.0,0.0,0.0,0.0,0.0,0.0,0.0,0.0,0.0,0.0,0.0,0.0,0.0,0.0,0.0,0.0,0.0,0.0,0.0,0.0,0.0,0.0,0.0,0.0,0.0,0.0,0.0,0.0,0.0,0.0,0.0,0.0,0.0,0.0,0.0,0.0,0.0,0.0,0.0,0.0,0.0,0.0,0.0,-1.1389,8.7808,2.9477,14.8926,22.9492,15.625,84.2706,3.9606,-15.3809,0.661,0.1151,-0.0762,0.7376,-0.1531,8.1635,-2.5074,62.9272,37.5977,3.3569,112.5275,3.9276,-22.4231,0.8116,0.1803,-0.08,0.55,0.3876,9.3789,-2.6605,36.2549,14.8315,2.0142,111.6705,2.1588,-20.495,0.8122,0.1576,-0.0845,0.5553,-0.8805,0.6604,10.0201,8.2397,4.2114,2.7466,2.9993,5.3229,-89.8627,-0.0143,0.0513,-0.7044,0.7078,-0.6221,8.0104,2.0002,3.418,24.4751,-20.1416,78.3325,5.3778,-34.541,0.5916,0.222,-0.2016,0.7483,0.1292,8.8621,-3.5793,-240.0513,63.3545,-91.4917,92.9718,-0.5109,-22.4835,0.7119,0.1384,-0.1374,0.6747,6.1059,8.5798,17.6572,-218.3838,-61.8286,134.7656,1.6864,-11.618,-140.9161,0.1003,-0.0201,-0.938,0.3313,0,0,0,0,0,0,0,0,0,0,0,0,0,0,0,0,0,0,57606,0,23554,0,0,0,57864,0,33542,0,0,25345,7182,0,60673,23559,57104,0
1777287096.969191,123089,1777287084.0049875,1777287095.3283322,1777287084.5654302,0,0,-11323.344707489014,-560.4426860809326,1,1,0.0,0.0,0.0,0.0,0.0,0.0,0.0,0.0,0.0,0.0,0.0,0.0,0.0,0.0,0.0,0.0,0.0,0.0,0.0,0.0,0.0,0.0,0.0,0.0,0.0,0.0,0.0,0.0,0.0,0.0,0.0,0.0,0.0,0.0,0.0,0.0,0.0,0.0,0.0,0.0,0.0,0.0,0.0,0.0,0.0,0.0,0.0,0.0,0.0,0.0,0.0,0.0,0.0,0.0,0.0,0.0,0.0,0.0,0.0,0.0,0.0,0.0,0.0,0.0,0.0,0.0,0.0,0.0,0.0,0.0,0.0,0.0,0.0,0.0,0.0,-1.1389,8.7808,2.9477,14.8926,22.9492,15.625,84.2706,3.9606,-15.3809,0.661,0.1151,-0.0762,0.7376,-0.1531,8.1635,-2.5074,62.9272,37.5977,3.3569,112.5275,3.9276,-22.4231,0.8116,0.1803,-0.08,0.55,0.3876,9.3789,-2.6605,36.2549,14.8315,2.0142,111.6705,2.1588,-20.495,0.8122,0.1576,-0.0845,0.5553,-0.8805,0.6604,10.0201,8.2397,4.2114,2.7466,2.9993,5.3229,-89.8627,-0.0143,0.0513,-0.7044,0.7078,-0.6221,8.0104,2.0002,3.418,24.4751,-20.1416,78.3325,5.3778,-34.541,0.5916,0.222,-0.2016,0.7483,0.1292,8.8621,-3.5793,-240.0513,63.3545,-91.4917,92.9718,-0.5109,-22.4835,0.7119,0.1384,-0.1374,0.6747,6.1059,8.5798,17.6572,-218.3838,-61.8286,134.7656,1.6864,-11.618,-140.9161,0.1003,-0.0201,-0.938,0.3313,0,0,0,0,0,0,0,0,0,0,0,0,0,0,0,0,0,0,57606,0,23554,0,0,0,57864,0,33542,0,0,25345,7182,0,60673,23559,57104,0
1777287096.9701905,123090,1777287084.0145507,1777287095.3283322,1777287084.5654302,0,0,-11313.78149986267,-550.8794784545898,1,1,0.0,0.0,0.0,0.0,0.0,0.0,0.0,0.0,0.0,0.0,0.0,0.0,0.0,0.0,0.0,0.0,0.0,0.0,0.0,0.0,0.0,0.0,0.0,0.0,0.0,0.0,0.0,0.0,0.0,0.0,0.0,0.0,0.0,0.0,0.0,0.0,0.0,0.0,0.0,0.0,0.0,0.0,0.0,0.0,0.0,0.0,0.0,0.0,0.0,0.0,0.0,0.0,0.0,0.0,0.0,0.0,0.0,0.0,0.0,0.0,0.0,0.0,0.0,0.0,0.0,0.0,0.0,0.0,0.0,0.0,0.0,0.0,0.0,0.0,0.0,-1.1389,8.7808,2.9477,14.8926,22.9492,15.625,84.2706,3.9606,-15.3809,0.661,0.1151,-0.0762,0.7376,-0.1531,8.1635,-2.5074,62.9272,37.5977,3.3569,112.5275,3.9276,-22.4231,0.8116,0.1803,-0.08,0.55,0.3876,9.3789,-2.6605,36.2549,14.8315,2.0142,111.6705,2.1588,-20.495,0.8122,0.1576,-0.0845,0.5553,-0.8805,0.6604,10.0201,8.2397,4.2114,2.7466,2.9993,5.3229,-89.8627,-0.0143,0.0513,-0.7044,0.7078,-0.6221,8.0104,2.0002,3.418,24.4751,-20.1416,78.3325,5.3778,-34.541,0.5916,0.222,-0.2016,0.7483,0.1292,8.8621,-3.5793,-240.0513,63.3545,-91.4917,92.9718,-0.5109,-22.4835,0.7119,0.1384,-0.1374,0.6747,6.1059,8.5798,17.6572,-218.3838,-61.8286,134.7656,1.6864,-11.618,-140.9161,0.1003,-0.0201,-0.938,0.3313,0,0,0,0,0,0,0,0,0,0,0,0,0,0,0,0,0,0,57606,0,23554,0,0,0,57864,0,33542,0,0,25345,7182,0,60673,23559,57104,0
1777287096.9701905,123091,1777287084.0248637,1777287095.3283322,1777287084.5654302,0,0,-11303.468465805054,-540.5664443969727,1,1,0.0,0.0,0.0,0.0,0.0,0.0,0.0,0.0,0.0,0.0,0.0,0.0,0.0,0.0,0.0,0.0,0.0,0.0,0.0,0.0,0.0,0.0,0.0,0.0,0.0,0.0,0.0,0.0,0.0,0.0,0.0,0.0,0.0,0.0,0.0,0.0,0.0,0.0,0.0,0.0,0.0,0.0,0.0,0.0,0.0,0.0,0.0,0.0,0.0,0.0,0.0,0.0,0.0,0.0,0.0,0.0,0.0,0.0,0.0,0.0,0.0,0.0,0.0,0.0,0.0,0.0,0.0,0.0,0.0,0.0,0.0,0.0,0.0,0.0,0.0,-1.1389,8.7808,2.9477,14.8926,22.9492,15.625,84.2706,3.9606,-15.3809,0.661,0.1151,-0.0762,0.7376,-0.1531,8.1635,-2.5074,62.9272,37.5977,3.3569,112.5275,3.9276,-22.4231,0.8116,0.1803,-0.08,0.55,0.3876,9.3789,-2.6605,36.2549,14.8315,2.0142,111.6705,2.1588,-20.495,0.8122,0.1576,-0.0845,0.5553,-0.8805,0.6604,10.0201,8.2397,4.2114,2.7466,2.9993,5.3229,-89.8627,-0.0143,0.0513,-0.7044,0.7078,-0.6221,8.0104,2.0002,3.418,24.4751,-20.1416,78.3325,5.3778,-34.541,0.5916,0.222,-0.2016,0.7483,0.1292,8.8621,-3.5793,-240.0513,63.3545,-91.4917,92.9718,-0.5109,-22.4835,0.7119,0.1384,-0.1374,0.6747,6.1059,8.5798,17.6572,-218.3838,-61.8286,134.7656,1.6864,-11.618,-140.9161,0.1003,-0.0201,-0.938,0.3313,0,0,0,0,0,0,0,0,0,0,0,0,0,0,0,0,0,0,57606,0,23554,0,0,0,57864,0,33542,0,0,25345,7182,0,60673,23559,57104,0
1777287096.9701905,123092,1777287084.0353684,1777287095.3283322,1777287084.5654302,0,0,-11292.963743209839,-530.0617218017578,1,1,0.0,0.0,0.0,0.0,0.0,0.0,0.0,0.0,0.0,0.0,0.0,0.0,0.0,0.0,0.0,0.0,0.0,0.0,0.0,0.0,0.0,0.0,0.0,0.0,0.0,0.0,0.0,0.0,0.0,0.0,0.0,0.0,0.0,0.0,0.0,0.0,0.0,0.0,0.0,0.0,0.0,0.0,0.0,0.0,0.0,0.0,0.0,0.0,0.0,0.0,0.0,0.0,0.0,0.0,0.0,0.0,0.0,0.0,0.0,0.0,0.0,0.0,0.0,0.0,0.0,0.0,0.0,0.0,0.0,0.0,0.0,0.0,0.0,0.0,0.0,-1.1389,8.7808,2.9477,14.8926,22.9492,15.625,84.2706,3.9606,-15.3809,0.661,0.1151,-0.0762,0.7376,-0.1531,8.1635,-2.5074,62.9272,37.5977,3.3569,112.5275,3.9276,-22.4231,0.8116,0.1803,-0.08,0.55,0.3876,9.3789,-2.6605,36.2549,14.8315,2.0142,111.6705,2.1588,-20.495,0.8122,0.1576,-0.0845,0.5553,-0.8805,0.6604,10.0201,8.2397,4.2114,2.7466,2.9993,5.3229,-89.8627,-0.0143,0.0513,-0.7044,0.7078,-0.6221,8.0104,2.0002,3.418,24.4751,-20.1416,78.3325,5.3778,-34.541,0.5916,0.222,-0.2016,0.7483,0.1292,8.8621,-3.5793,-240.0513,63.3545,-91.4917,92.9718,-0.5109,-22.4835,0.7119,0.1384,-0.1374,0.6747,6.1059,8.5798,17.6572,-218.3838,-61.8286,134.7656,1.6864,-11.618,-140.9161,0.1003,-0.0201,-0.938,0.3313,0,0,0,0,0,0,0,0,0,0,0,0,0,0,0,0,0,0,57606,0,23554,0,0,0,57864,0,33542,0,0,25345,7182,0,60673,23559,57104,0
1777287096.9701905,123093,1777287084.0492058,1777287095.3283322,1777287084.5654302,0,0,-11279.126405715942,-516.2243843078613,1,1,0.0,0.0,0.0,0.0,0.0,0.0,0.0,0.0,0.0,0.0,0.0,0.0,0.0,0.0,0.0,0.0,0.0,0.0,0.0,0.0,0.0,0.0,0.0,0.0,0.0,0.0,0.0,0.0,0.0,0.0,0.0,0.0,0.0,0.0,0.0,0.0,0.0,0.0,0.0,0.0,0.0,0.0,0.0,0.0,0.0,0.0,0.0,0.0,0.0,0.0,0.0,0.0,0.0,0.0,0.0,0.0,0.0,0.0,0.0,0.0,0.0,0.0,0.0,0.0,0.0,0.0,0.0,0.0,0.0,0.0,0.0,0.0,0.0,0.0,0.0,-1.1389,8.7808,2.9477,14.8926,22.9492,15.625,84.2706,3.9606,-15.3809,0.661,0.1151,-0.0762,0.7376,-0.1531,8.1635,-2.5074,62.9272,37.5977,3.3569,112.5275,3.9276,-22.4231,0.8116,0.1803,-0.08,0.55,0.3876,9.3789,-2.6605,36.2549,14.8315,2.0142,111.6705,2.1588,-20.495,0.8122,0.1576,-0.0845,0.5553,-0.8805,0.6604,10.0201,8.2397,4.2114,2.7466,2.9993,5.3229,-89.8627,-0.0143,0.0513,-0.7044,0.7078,-0.6221,8.0104,2.0002,3.418,24.4751,-20.1416,78.3325,5.3778,-34.541,0.5916,0.222,-0.2016,0.7483,0.1292,8.8621,-3.5793,-240.0513,63.3545,-91.4917,92.9718,-0.5109,-22.4835,0.7119,0.1384,-0.1374,0.6747,6.1059,8.5798,17.6572,-218.3838,-61.8286,134.7656,1.6864,-11.618,-140.9161,0.1003,-0.0201,-0.938,0.3313,0,0,0,0,0,0,0,0,0,0,0,0,0,0,0,0,0,0,57606,0,23554,0,0,0,57864,0,33542,0,0,25345,7182,0,60673,23559,57104,0
1777287096.9707427,123094,1777287084.054368,1777287095.3283322,1777287084.5654302,0,0,-11273.964166641235,-511.0621452331543,1,1,0.0,0.0,0.0,0.0,0.0,0.0,0.0,0.0,0.0,0.0,0.0,0.0,0.0,0.0,0.0,0.0,0.0,0.0,0.0,0.0,0.0,0.0,0.0,0.0,0.0,0.0,0.0,0.0,0.0,0.0,0.0,0.0,0.0,0.0,0.0,0.0,0.0,0.0,0.0,0.0,0.0,0.0,0.0,0.0,0.0,0.0,0.0,0.0,0.0,0.0,0.0,0.0,0.0,0.0,0.0,0.0,0.0,0.0,0.0,0.0,0.0,0.0,0.0,0.0,0.0,0.0,0.0,0.0,0.0,0.0,0.0,0.0,0.0,0.0,0.0,-1.1389,8.7808,2.9477,14.8926,22.9492,15.625,84.2706,3.9606,-15.3809,0.661,0.1151,-0.0762,0.7376,-0.1531,8.1635,-2.5074,62.9272,37.5977,3.3569,112.5275,3.9276,-22.4231,0.8116,0.1803,-0.08,0.55,0.3876,9.3789,-2.6605,36.2549,14.8315,2.0142,111.6705,2.1588,-20.495,0.8122,0.1576,-0.0845,0.5553,-0.8805,0.6604,10.0201,8.2397,4.2114,2.7466,2.9993,5.3229,-89.8627,-0.0143,0.0513,-0.7044,0.7078,-0.6221,8.0104,2.0002,3.418,24.4751,-20.1416,78.3325,5.3778,-34.541,0.5916,0.222,-0.2016,0.7483,0.1292,8.8621,-3.5793,-240.0513,63.3545,-91.4917,92.9718,-0.5109,-22.4835,0.7119,0.1384,-0.1374,0.6747,6.1059,8.5798,17.6572,-218.3838,-61.8286,134.7656,1.6864,-11.618,-140.9161,0.1003,-0.0201,-0.938,0.3313,0,0,0,0,0,0,0,0,0,0,0,0,0,0,0,0,0,0,57606,0,23554,0,0,0,57864,0,33542,0,0,25345,7182,0,60673,23559,57104,0
1777287096.9707427,123095,1777287084.365962,1777287095.3283322,1777287084.5654302,0,0,-10962.370157241821,-199.46813583374023,1,1,0.0,0.0,0.0,0.0,0.0,0.0,0.0,0.0,0.0,0.0,0.0,0.0,0.0,0.0,0.0,0.0,0.0,0.0,0.0,0.0,0.0,0.0,0.0,0.0,0.0,0.0,0.0,0.0,0.0,0.0,0.0,0.0,0.0,0.0,0.0,0.0,0.0,0.0,0.0,0.0,0.0,0.0,0.0,0.0,0.0,0.0,0.0,0.0,0.0,0.0,0.0,0.0,0.0,0.0,0.0,0.0,0.0,0.0,0.0,0.0,0.0,0.0,0.0,0.0,0.0,0.0,0.0,0.0,0.0,0.0,0.0,0.0,0.0,0.0,0.0,-1.1389,8.7808,2.9477,14.8926,22.9492,15.625,84.2706,3.9606,-15.3809,0.661,0.1151,-0.0762,0.7376,-0.1531,8.1635,-2.5074,62.9272,37.5977,3.3569,112.5275,3.9276,-22.4231,0.8116,0.1803,-0.08,0.55,0.3876,9.3789,-2.6605,36.2549,14.8315,2.0142,111.6705,2.1588,-20.495,0.8122,0.1576,-0.0845,0.5553,-0.8805,0.6604,10.0201,8.2397,4.2114,2.7466,2.9993,5.3229,-89.8627,-0.0143,0.0513,-0.7044,0.7078,-0.6221,8.0104,2.0002,3.418,24.4751,-20.1416,78.3325,5.3778,-34.541,0.5916,0.222,-0.2016,0.7483,0.1292,8.8621,-3.5793,-240.0513,63.3545,-91.4917,92.9718,-0.5109,-22.4835,0.7119,0.1384,-0.1374,0.6747,6.1059,8.5798,17.6572,-218.3838,-61.8286,134.7656,1.6864,-11.618,-140.9161,0.1003,-0.0201,-0.938,0.3313,0,0,0,0,0,0,0,0,0,0,0,0,0,0,0,0,0,0,57606,0,23554,0,0,0,57864,0,33542,0,0,25345,7182,0,60673,23559,57104,0
1777287096.9707427,123125,1777287084.3687444,1777287095.3283322,1777287084.5654302,1,29,-10959.587812423706,-196.685791015625,1,1,0.0,0.0,0.0,0.0,0.0,0.0,0.0,0.0,0.0,0.0,0.0,0.0,0.0,0.0,0.0,0.0,0.0,0.0,0.0,0.0,0.0,0.0,0.0,0.0,0.0,0.0,0.0,0.0,0.0,0.0,0.0,0.0,0.0,0.0,0.0,0.0,0.0,0.0,0.0,0.0,0.0,0.0,0.0,0.0,0.0,0.0,0.0,0.0,0.0,0.0,0.0,0.0,0.0,0.0,0.0,0.0,0.0,0.0,0.0,0.0,0.0,0.0,0.0,0.0,0.0,0.0,0.0,0.0,0.0,0.0,0.0,0.0,0.0,0.0,0.0,-1.1389,8.7808,2.9477,14.8926,22.9492,15.625,84.2706,3.9606,-15.3809,0.661,0.1151,-0.0762,0.7376,-0.1531,8.1635,-2.5074,62.9272,37.5977,3.3569,112.5275,3.9276,-22.4231,0.8116,0.1803,-0.08,0.55,0.3876,9.3789,-2.6605,36.2549,14.8315,2.0142,111.6705,2.1588,-20.495,0.8122,0.1576,-0.0845,0.5553,-0.8805,0.6604,10.0201,8.2397,4.2114,2.7466,2.9993,5.3229,-89.8627,-0.0143,0.0513,-0.7044,0.7078,-0.6221,8.0104,2.0002,3.418,24.4751,-20.1416,78.3325,5.3778,-34.541,0.5916,0.222,-0.2016,0.7483,0.1292,8.8621,-3.5793,-240.0513,63.3545,-91.4917,92.9718,-0.5109,-22.4835,0.7119,0.1384,-0.1374,0.6747,6.1059,8.5798,17.6572,-218.3838,-61.8286,134.7656,1.6864,-11.618,-140.9161,0.1003,-0.0201,-0.938,0.3313,0,0,0,0,0,0,0,0,0,0,0,0,0,0,0,0,0,0,57606,0,23554,0,0,0,57864,0,33542,0,0,25345,7182,0,60673,23559,57104,0
1777287096.9707427,123126,1777287084.374773,1777287095.3283322,1777287084.5654302,0,0,-10953.559160232544,-190.6571388244629,1,1,0.0,0.0,0.0,0.0,0.0,0.0,0.0,0.0,0.0,0.0,0.0,0.0,0.0,0.0,0.0,0.0,0.0,0.0,0.0,0.0,0.0,0.0,0.0,0.0,0.0,0.0,0.0,0.0,0.0,0.0,0.0,0.0,0.0,0.0,0.0,0.0,0.0,0.0,0.0,0.0,0.0,0.0,0.0,0.0,0.0,0.0,0.0,0.0,0.0,0.0,0.0,0.0,0.0,0.0,0.0,0.0,0.0,0.0,0.0,0.0,0.0,0.0,0.0,0.0,0.0,0.0,0.0,0.0,0.0,0.0,0.0,0.0,0.0,0.0,0.0,-1.1389,8.7808,2.9477,14.8926,22.9492,15.625,84.2706,3.9606,-15.3809,0.661,0.1151,-0.0762,0.7376,-0.1531,8.1635,-2.5074,62.9272,37.5977,3.3569,112.5275,3.9276,-22.4231,0.8116,0.1803,-0.08,0.55,0.3876,9.3789,-2.6605,36.2549,14.8315,2.0142,111.6705,2.1588,-20.495,0.8122,0.1576,-0.0845,0.5553,-0.8805,0.6604,10.0201,8.2397,4.2114,2.7466,2.9993,5.3229,-89.8627,-0.0143,0.0513,-0.7044,0.7078,-0.6221,8.0104,2.0002,3.418,24.4751,-20.1416,78.3325,5.3778,-34.541,0.5916,0.222,-0.2016,0.7483,0.1292,8.8621,-3.5793,-240.0513,63.3545,-91.4917,92.9718,-0.5109,-22.4835,0.7119,0.1384,-0.1374,0.6747,6.1059,8.5798,17.6572,-218.3838,-61.8286,134.7656,1.6864,-11.618,-140.9161,0.1003,-0.0201,-0.938,0.3313,0,0,0,0,0,0,0,0,0,0,0,0,0,0,0,0,0,0,57606,0,23554,0,0,0,57864,0,33542,0,0,25345,7182,0,60673,23559,57104,0
1777287096.9707427,123127,1777287084.385319,1777287095.3283322,1777287084.5654302,0,0,-10943.013191223145,-180.11116981506348,1,1,0.0,0.0,0.0,0.0,0.0,0.0,0.0,0.0,0.0,0.0,0.0,0.0,0.0,0.0,0.0,0.0,0.0,0.0,0.0,0.0,0.0,0.0,0.0,0.0,0.0,0.0,0.0,0.0,0.0,0.0,0.0,0.0,0.0,0.0,0.0,0.0,0.0,0.0,0.0,0.0,0.0,0.0,0.0,0.0,0.0,0.0,0.0,0.0,0.0,0.0,0.0,0.0,0.0,0.0,0.0,0.0,0.0,0.0,0.0,0.0,0.0,0.0,0.0,0.0,0.0,0.0,0.0,0.0,0.0,0.0,0.0,0.0,0.0,0.0,0.0,-1.1389,8.7808,2.9477,14.8926,22.9492,15.625,84.2706,3.9606,-15.3809,0.661,0.1151,-0.0762,0.7376,-0.1531,8.1635,-2.5074,62.9272,37.5977,3.3569,112.5275,3.9276,-22.4231,0.8116,0.1803,-0.08,0.55,0.3876,9.3789,-2.6605,36.2549,14.8315,2.0142,111.6705,2.1588,-20.495,0.8122,0.1576,-0.0845,0.5553,-0.8805,0.6604,10.0201,8.2397,4.2114,2.7466,2.9993,5.3229,-89.8627,-0.0143,0.0513,-0.7044,0.7078,-0.6221,8.0104,2.0002,3.418,24.4751,-20.1416,78.3325,5.3778,-34.541,0.5916,0.222,-0.2016,0.7483,0.1292,8.8621,-3.5793,-240.0513,63.3545,-91.4917,92.9718,-0.5109,-22.4835,0.7119,0.1384,-0.1374,0.6747,6.1059,8.5798,17.6572,-218.3838,-61.8286,134.7656,1.6864,-11.618,-140.9161,0.1003,-0.0201,-0.938,0.3313,0,0,0,0,0,0,0,0,0,0,0,0,0,0,0,0,0,0,57606,0,23554,0,0,0,57864,0,33542,0,0,25345,7182,0,60673,23559,57104,0
1777287096.9707427,123128,1777287084.395436,1777287095.3283322,1777287084.5654302,0,0,-10932.896137237549,-169.99411582946777,1,1,0.0,0.0,0.0,0.0,0.0,0.0,0.0,0.0,0.0,0.0,0.0,0.0,0.0,0.0,0.0,0.0,0.0,0.0,0.0,0.0,0.0,0.0,0.0,0.0,0.0,0.0,0.0,0.0,0.0,0.0,0.0,0.0,0.0,0.0,0.0,0.0,0.0,0.0,0.0,0.0,0.0,0.0,0.0,0.0,0.0,0.0,0.0,0.0,0.0,0.0,0.0,0.0,0.0,0.0,0.0,0.0,0.0,0.0,0.0,0.0,0.0,0.0,0.0,0.0,0.0,0.0,0.0,0.0,0.0,0.0,0.0,0.0,0.0,0.0,0.0,-1.1389,8.7808,2.9477,14.8926,22.9492,15.625,84.2706,3.9606,-15.3809,0.661,0.1151,-0.0762,0.7376,-0.1531,8.1635,-2.5074,62.9272,37.5977,3.3569,112.5275,3.9276,-22.4231,0.8116,0.1803,-0.08,0.55,0.3876,9.3789,-2.6605,36.2549,14.8315,2.0142,111.6705,2.1588,-20.495,0.8122,0.1576,-0.0845,0.5553,-0.8805,0.6604,10.0201,8.2397,4.2114,2.7466,2.9993,5.3229,-89.8627,-0.0143,0.0513,-0.7044,0.7078,-0.6221,8.0104,2.0002,3.418,24.4751,-20.1416,78.3325,5.3778,-34.541,0.5916,0.222,-0.2016,0.7483,0.1292,8.8621,-3.5793,-240.0513,63.3545,-91.4917,92.9718,-0.5109,-22.4835,0.7119,0.1384,-0.1374,0.6747,6.1059,8.5798,17.6572,-218.3838,-61.8286,134.7656,1.6864,-11.618,-140.9161,0.1003,-0.0201,-0.938,0.3313,0,0,0,0,0,0,0,0,0,0,0,0,0,0,0,0,0,0,57606,0,23554,0,0,0,57864,0,33542,0,0,25345,7182,0,60673,23559,57104,0
1777287096.9707427,123129,1777287084.4054165,1777287095.3283322,1777287084.5654302,0,0,-10922.915697097778,-160.01367568969727,1,1,0.0,0.0,0.0,0.0,0.0,0.0,0.0,0.0,0.0,0.0,0.0,0.0,0.0,0.0,0.0,0.0,0.0,0.0,0.0,0.0,0.0,0.0,0.0,0.0,0.0,0.0,0.0,0.0,0.0,0.0,0.0,0.0,0.0,0.0,0.0,0.0,0.0,0.0,0.0,0.0,0.0,0.0,0.0,0.0,0.0,0.0,0.0,0.0,0.0,0.0,0.0,0.0,0.0,0.0,0.0,0.0,0.0,0.0,0.0,0.0,0.0,0.0,0.0,0.0,0.0,0.0,0.0,0.0,0.0,0.0,0.0,0.0,0.0,0.0,0.0,-1.1389,8.7808,2.9477,14.8926,22.9492,15.625,84.2706,3.9606,-15.3809,0.661,0.1151,-0.0762,0.7376,-0.1531,8.1635,-2.5074,62.9272,37.5977,3.3569,112.5275,3.9276,-22.4231,0.8116,0.1803,-0.08,0.55,0.3876,9.3789,-2.6605,36.2549,14.8315,2.0142,111.6705,2.1588,-20.495,0.8122,0.1576,-0.0845,0.5553,-0.8805,0.6604,10.0201,8.2397,4.2114,2.7466,2.9993,5.3229,-89.8627,-0.0143,0.0513,-0.7044,0.7078,-0.6221,8.0104,2.0002,3.418,24.4751,-20.1416,78.3325,5.3778,-34.541,0.5916,0.222,-0.2016,0.7483,0.1292,8.8621,-3.5793,-240.0513,63.3545,-91.4917,92.9718,-0.5109,-22.4835,0.7119,0.1384,-0.1374,0.6747,6.1059,8.5798,17.6572,-218.3838,-61.8286,134.7656,1.6864,-11.618,-140.9161,0.1003,-0.0201,-0.938,0.3313,0,0,0,0,0,0,0,0,0,0,0,0,0,0,0,0,0,0,57606,0,23554,0,0,0,57864,0,33542,0,0,25345,7182,0,60673,23559,57104,0
1777287096.9707427,123130,1777287084.4391115,1777287095.3283322,1777287084.5654302,0,0,-10889.220714569092,-126.31869316101074,1,1,0.0,0.0,0.0,0.0,0.0,0.0,0.0,0.0,0.0,0.0,0.0,0.0,0.0,0.0,0.0,0.0,0.0,0.0,0.0,0.0,0.0,0.0,0.0,0.0,0.0,0.0,0.0,0.0,0.0,0.0,0.0,0.0,0.0,0.0,0.0,0.0,0.0,0.0,0.0,0.0,0.0,0.0,0.0,0.0,0.0,0.0,0.0,0.0,0.0,0.0,0.0,0.0,0.0,0.0,0.0,0.0,0.0,0.0,0.0,0.0,0.0,0.0,0.0,0.0,0.0,0.0,0.0,0.0,0.0,0.0,0.0,0.0,0.0,0.0,0.0,-1.1389,8.7808,2.9477,14.8926,22.9492,15.625,84.2706,3.9606,-15.3809,0.661,0.1151,-0.0762,0.7376,-0.1531,8.1635,-2.5074,62.9272,37.5977,3.3569,112.5275,3.9276,-22.4231,0.8116,0.1803,-0.08,0.55,0.3876,9.3789,-2.6605,36.2549,14.8315,2.0142,111.6705,2.1588,-20.495,0.8122,0.1576,-0.0845,0.5553,-0.8805,0.6604,10.0201,8.2397,4.2114,2.7466,2.9993,5.3229,-89.8627,-0.0143,0.0513,-0.7044,0.7078,-0.6221,8.0104,2.0002,3.418,24.4751,-20.1416,78.3325,5.3778,-34.541,0.5916,0.222,-0.2016,0.7483,0.1292,8.8621,-3.5793,-240.0513,63.3545,-91.4917,92.9718,-0.5109,-22.4835,0.7119,0.1384,-0.1374,0.6747,6.1059,8.5798,17.6572,-218.3838,-61.8286,134.7656,1.6864,-11.618,-140.9161,0.1003,-0.0201,-0.938,0.3313,0,0,0,0,0,0,0,0,0,0,0,0,0,0,0,0,0,0,57606,0,23554,0,0,0,57864,0,33542,0,0,25345,7182,0,60673,23559,57104,0
1777287096.9707427,123132,1777287084.4411223,1777287095.3283322,1777287084.5654302,1,1,-10887.20989227295,-124.30787086486816,1,1,0.0,0.0,0.0,0.0,0.0,0.0,0.0,0.0,0.0,0.0,0.0,0.0,0.0,0.0,0.0,0.0,0.0,0.0,0.0,0.0,0.0,0.0,0.0,0.0,0.0,0.0,0.0,0.0,0.0,0.0,0.0,0.0,0.0,0.0,0.0,0.0,0.0,0.0,0.0,0.0,0.0,0.0,0.0,0.0,0.0,0.0,0.0,0.0,0.0,0.0,0.0,0.0,0.0,0.0,0.0,0.0,0.0,0.0,0.0,0.0,0.0,0.0,0.0,0.0,0.0,0.0,0.0,0.0,0.0,0.0,0.0,0.0,0.0,0.0,0.0,-1.1389,8.7808,2.9477,14.8926,22.9492,15.625,84.2706,3.9606,-15.3809,0.661,0.1151,-0.0762,0.7376,-0.1531,8.1635,-2.5074,62.9272,37.5977,3.3569,112.5275,3.9276,-22.4231,0.8116,0.1803,-0.08,0.55,0.3876,9.3789,-2.6605,36.2549,14.8315,2.0142,111.6705,2.1588,-20.495,0.8122,0.1576,-0.0845,0.5553,-0.8805,0.6604,10.0201,8.2397,4.2114,2.7466,2.9993,5.3229,-89.8627,-0.0143,0.0513,-0.7044,0.7078,-0.6221,8.0104,2.0002,3.418,24.4751,-20.1416,78.3325,5.3778,-34.541,0.5916,0.222,-0.2016,0.7483,0.1292,8.8621,-3.5793,-240.0513,63.3545,-91.4917,92.9718,-0.5109,-22.4835,0.7119,0.1384,-0.1374,0.6747,6.1059,8.5798,17.6572,-218.3838,-61.8286,134.7656,1.6864,-11.618,-140.9161,0.1003,-0.0201,-0.938,0.3313,0,0,0,0,0,0,0,0,0,0,0,0,0,0,0,0,0,0,57606,0,23554,0,0,0,57864,0,33542,0,0,25345,7182,0,60673,23559,57104,0
1777287096.9707427,123133,1777287084.4451222,1777287095.3283322,1777287084.5654302,0,0,-10883.209943771362,-120.30792236328125,1,1,0.0,0.0,0.0,0.0,0.0,0.0,0.0,0.0,0.0,0.0,0.0,0.0,0.0,0.0,0.0,0.0,0.0,0.0,0.0,0.0,0.0,0.0,0.0,0.0,0.0,0.0,0.0,0.0,0.0,0.0,0.0,0.0,0.0,0.0,0.0,0.0,0.0,0.0,0.0,0.0,0.0,0.0,0.0,0.0,0.0,0.0,0.0,0.0,0.0,0.0,0.0,0.0,0.0,0.0,0.0,0.0,0.0,0.0,0.0,0.0,0.0,0.0,0.0,0.0,0.0,0.0,0.0,0.0,0.0,0.0,0.0,0.0,0.0,0.0,0.0,-1.1389,8.7808,2.9477,14.8926,22.9492,15.625,84.2706,3.9606,-15.3809,0.661,0.1151,-0.0762,0.7376,-0.1531,8.1635,-2.5074,62.9272,37.5977,3.3569,112.5275,3.9276,-22.4231,0.8116,0.1803,-0.08,0.55,0.3876,9.3789,-2.6605,36.2549,14.8315,2.0142,111.6705,2.1588,-20.495,0.8122,0.1576,-0.0845,0.5553,-0.8805,0.6604,10.0201,8.2397,4.2114,2.7466,2.9993,5.3229,-89.8627,-0.0143,0.0513,-0.7044,0.7078,-0.6221,8.0104,2.0002,3.418,24.4751,-20.1416,78.3325,5.3778,-34.541,0.5916,0.222,-0.2016,0.7483,0.1292,8.8621,-3.5793,-240.0513,63.3545,-91.4917,92.9718,-0.5109,-22.4835,0.7119,0.1384,-0.1374,0.6747,6.1059,8.5798,17.6572,-218.3838,-61.8286,134.7656,1.6864,-11.618,-140.9161,0.1003,-0.0201,-0.938,0.3313,0,0,0,0,0,0,0,0,0,0,0,0,0,0,0,0,0,0,57606,0,23554,0,0,0,57864,0,33542,0,0,25345,7182,0,60673,23559,57104,0
1777287096.9718463,123134,1777287084.4551573,1777287095.3283322,1777287084.5654302,0,0,-10873.174905776978,-110.27288436889648,1,1,0.0,0.0,0.0,0.0,0.0,0.0,0.0,0.0,0.0,0.0,0.0,0.0,0.0,0.0,0.0,0.0,0.0,0.0,0.0,0.0,0.0,0.0,0.0,0.0,0.0,0.0,0.0,0.0,0.0,0.0,0.0,0.0,0.0,0.0,0.0,0.0,0.0,0.0,0.0,0.0,0.0,0.0,0.0,0.0,0.0,0.0,0.0,0.0,0.0,0.0,0.0,0.0,0.0,0.0,0.0,0.0,0.0,0.0,0.0,0.0,0.0,0.0,0.0,0.0,0.0,0.0,0.0,0.0,0.0,0.0,0.0,0.0,0.0,0.0,0.0,-1.1389,8.7808,2.9477,14.8926,22.9492,15.625,84.2706,3.9606,-15.3809,0.661,0.1151,-0.0762,0.7376,-0.1531,8.1635,-2.5074,62.9272,37.5977,3.3569,112.5275,3.9276,-22.4231,0.8116,0.1803,-0.08,0.55,0.3876,9.3789,-2.6605,36.2549,14.8315,2.0142,111.6705,2.1588,-20.495,0.8122,0.1576,-0.0845,0.5553,-0.8805,0.6604,10.0201,8.2397,4.2114,2.7466,2.9993,5.3229,-89.8627,-0.0143,0.0513,-0.7044,0.7078,-0.6221,8.0104,2.0002,3.418,24.4751,-20.1416,78.3325,5.3778,-34.541,0.5916,0.222,-0.2016,0.7483,0.1292,8.8621,-3.5793,-240.0513,63.3545,-91.4917,92.9718,-0.5109,-22.4835,0.7119,0.1384,-0.1374,0.6747,6.1059,8.5798,17.6572,-218.3838,-61.8286,134.7656,1.6864,-11.618,-140.9161,0.1003,-0.0201,-0.938,0.3313,0,0,0,0,0,0,0,0,0,0,0,0,0,0,0,0,0,0,57606,0,23554,0,0,0,57864,0,33542,0,0,25345,7182,0,60673,23559,57104,0
1777287096.9718463,123135,1777287084.4641547,1777287095.3283322,1777287084.5654302,0,0,-10864.177465438843,-101.27544403076172,1,1,0.0,0.0,0.0,0.0,0.0,0.0,0.0,0.0,0.0,0.0,0.0,0.0,0.0,0.0,0.0,0.0,0.0,0.0,0.0,0.0,0.0,0.0,0.0,0.0,0.0,0.0,0.0,0.0,0.0,0.0,0.0,0.0,0.0,0.0,0.0,0.0,0.0,0.0,0.0,0.0,0.0,0.0,0.0,0.0,0.0,0.0,0.0,0.0,0.0,0.0,0.0,0.0,0.0,0.0,0.0,0.0,0.0,0.0,0.0,0.0,0.0,0.0,0.0,0.0,0.0,0.0,0.0,0.0,0.0,0.0,0.0,0.0,0.0,0.0,0.0,-1.1389,8.7808,2.9477,14.8926,22.9492,15.625,84.2706,3.9606,-15.3809,0.661,0.1151,-0.0762,0.7376,-0.1531,8.1635,-2.5074,62.9272,37.5977,3.3569,112.5275,3.9276,-22.4231,0.8116,0.1803,-0.08,0.55,0.3876,9.3789,-2.6605,36.2549,14.8315,2.0142,111.6705,2.1588,-20.495,0.8122,0.1576,-0.0845,0.5553,-0.8805,0.6604,10.0201,8.2397,4.2114,2.7466,2.9993,5.3229,-89.8627,-0.0143,0.0513,-0.7044,0.7078,-0.6221,8.0104,2.0002,3.418,24.4751,-20.1416,78.3325,5.3778,-34.541,0.5916,0.222,-0.2016,0.7483,0.1292,8.8621,-3.5793,-240.0513,63.3545,-91.4917,92.9718,-0.5109,-22.4835,0.7119,0.1384,-0.1374,0.6747,6.1059,8.5798,17.6572,-218.3838,-61.8286,134.7656,1.6864,-11.618,-140.9161,0.1003,-0.0201,-0.938,0.3313,0,0,0,0,0,0,0,0,0,0,0,0,0,0,0,0,0,0,57606,0,23554,0,0,0,57864,0,33542,0,0,25345,7182,0,60673,23559,57104,0
1777287096.9718463,123136,1777287084.4826763,1777287095.3283322,1777287084.5654302,0,0,-10845.655918121338,-82.75389671325684,1,1,0.0,0.0,0.0,0.0,0.0,0.0,0.0,0.0,0.0,0.0,0.0,0.0,0.0,0.0,0.0,0.0,0.0,0.0,0.0,0.0,0.0,0.0,0.0,0.0,0.0,0.0,0.0,0.0,0.0,0.0,0.0,0.0,0.0,0.0,0.0,0.0,0.0,0.0,0.0,0.0,0.0,0.0,0.0,0.0,0.0,0.0,0.0,0.0,0.0,0.0,0.0,0.0,0.0,0.0,0.0,0.0,0.0,0.0,0.0,0.0,0.0,0.0,0.0,0.0,0.0,0.0,0.0,0.0,0.0,0.0,0.0,0.0,0.0,0.0,0.0,-1.1389,8.7808,2.9477,14.8926,22.9492,15.625,84.2706,3.9606,-15.3809,0.661,0.1151,-0.0762,0.7376,-0.1531,8.1635,-2.5074,62.9272,37.5977,3.3569,112.5275,3.9276,-22.4231,0.8116,0.1803,-0.08,0.55,0.3876,9.3789,-2.6605,36.2549,14.8315,2.0142,111.6705,2.1588,-20.495,0.8122,0.1576,-0.0845,0.5553,-0.8805,0.6604,10.0201,8.2397,4.2114,2.7466,2.9993,5.3229,-89.8627,-0.0143,0.0513,-0.7044,0.7078,-0.6221,8.0104,2.0002,3.418,24.4751,-20.1416,78.3325,5.3778,-34.541,0.5916,0.222,-0.2016,0.7483,0.1292,8.8621,-3.5793,-240.0513,63.3545,-91.4917,92.9718,-0.5109,-22.4835,0.7119,0.1384,-0.1374,0.6747,6.1059,8.5798,17.6572,-218.3838,-61.8286,134.7656,1.6864,-11.618,-140.9161,0.1003,-0.0201,-0.938,0.3313,0,0,0,0,0,0,0,0,0,0,0,0,0,0,0,0,0,0,57606,0,23554,0,0,0,57864,0,33542,0,0,25345,7182,0,60673,23559,57104,0
1777287096.9718463,123137,1777287084.4925847,1777287095.3283322,1777287084.5654302,0,0,-10835.747480392456,-72.845458984375,1,1,0.0,0.0,0.0,0.0,0.0,0.0,0.0,0.0,0.0,0.0,0.0,0.0,0.0,0.0,0.0,0.0,0.0,0.0,0.0,0.0,0.0,0.0,0.0,0.0,0.0,0.0,0.0,0.0,0.0,0.0,0.0,0.0,0.0,0.0,0.0,0.0,0.0,0.0,0.0,0.0,0.0,0.0,0.0,0.0,0.0,0.0,0.0,0.0,0.0,0.0,0.0,0.0,0.0,0.0,0.0,0.0,0.0,0.0,0.0,0.0,0.0,0.0,0.0,0.0,0.0,0.0,0.0,0.0,0.0,0.0,0.0,0.0,0.0,0.0,0.0,-1.1389,8.7808,2.9477,14.8926,22.9492,15.625,84.2706,3.9606,-15.3809,0.661,0.1151,-0.0762,0.7376,-0.1531,8.1635,-2.5074,62.9272,37.5977,3.3569,112.5275,3.9276,-22.4231,0.8116,0.1803,-0.08,0.55,0.3876,9.3789,-2.6605,36.2549,14.8315,2.0142,111.6705,2.1588,-20.495,0.8122,0.1576,-0.0845,0.5553,-0.8805,0.6604,10.0201,8.2397,4.2114,2.7466,2.9993,5.3229,-89.8627,-0.0143,0.0513,-0.7044,0.7078,-0.6221,8.0104,2.0002,3.418,24.4751,-20.1416,78.3325,5.3778,-34.541,0.5916,0.222,-0.2016,0.7483,0.1292,8.8621,-3.5793,-240.0513,63.3545,-91.4917,92.9718,-0.5109,-22.4835,0.7119,0.1384,-0.1374,0.6747,6.1059,8.5798,17.6572,-218.3838,-61.8286,134.7656,1.6864,-11.618,-140.9161,0.1003,-0.0201,-0.938,0.3313,0,0,0,0,0,0,0,0,0,0,0,0,0,0,0,0,0,0,57606,0,23554,0,0,0,57864,0,33542,0,0,25345,7182,0,60673,23559,57104,0
1777287096.9718463,123138,1777287084.4945889,1777287095.3283322,1777287084.5654302,0,0,-10833.743333816528,-70.84131240844727,1,1,0.0,0.0,0.0,0.0,0.0,0.0,0.0,0.0,0.0,0.0,0.0,0.0,0.0,0.0,0.0,0.0,0.0,0.0,0.0,0.0,0.0,0.0,0.0,0.0,0.0,0.0,0.0,0.0,0.0,0.0,0.0,0.0,0.0,0.0,0.0,0.0,0.0,0.0,0.0,0.0,0.0,0.0,0.0,0.0,0.0,0.0,0.0,0.0,0.0,0.0,0.0,0.0,0.0,0.0,0.0,0.0,0.0,0.0,0.0,0.0,0.0,0.0,0.0,0.0,0.0,0.0,0.0,0.0,0.0,0.0,0.0,0.0,0.0,0.0,0.0,-1.1389,8.7808,2.9477,14.8926,22.9492,15.625,84.2706,3.9606,-15.3809,0.661,0.1151,-0.0762,0.7376,-0.1531,8.1635,-2.5074,62.9272,37.5977,3.3569,112.5275,3.9276,-22.4231,0.8116,0.1803,-0.08,0.55,0.3876,9.3789,-2.6605,36.2549,14.8315,2.0142,111.6705,2.1588,-20.495,0.8122,0.1576,-0.0845,0.5553,-0.8805,0.6604,10.0201,8.2397,4.2114,2.7466,2.9993,5.3229,-89.8627,-0.0143,0.0513,-0.7044,0.7078,-0.6221,8.0104,2.0002,3.418,24.4751,-20.1416,78.3325,5.3778,-34.541,0.5916,0.222,-0.2016,0.7483,0.1292,8.8621,-3.5793,-240.0513,63.3545,-91.4917,92.9718,-0.5109,-22.4835,0.7119,0.1384,-0.1374,0.6747,6.1059,8.5798,17.6572,-218.3838,-61.8286,134.7656,1.6864,-11.618,-140.9161,0.1003,-0.0201,-0.938,0.3313,0,0,0,0,0,0,0,0,0,0,0,0,0,0,0,0,0,0,57606,0,23554,0,0,0,57864,0,33542,0,0,25345,7182,0,60673,23559,57104,0
1777287096.972352,123139,1777287084.511632,1777287095.3283322,1777287084.5654302,0,0,-10816.700220108032,-53.79819869995117,1,1,0.0,0.0,0.0,0.0,0.0,0.0,0.0,0.0,0.0,0.0,0.0,0.0,0.0,0.0,0.0,0.0,0.0,0.0,0.0,0.0,0.0,0.0,0.0,0.0,0.0,0.0,0.0,0.0,0.0,0.0,0.0,0.0,0.0,0.0,0.0,0.0,0.0,0.0,0.0,0.0,0.0,0.0,0.0,0.0,0.0,0.0,0.0,0.0,0.0,0.0,0.0,0.0,0.0,0.0,0.0,0.0,0.0,0.0,0.0,0.0,0.0,0.0,0.0,0.0,0.0,0.0,0.0,0.0,0.0,0.0,0.0,0.0,0.0,0.0,0.0,-1.1389,8.7808,2.9477,14.8926,22.9492,15.625,84.2706,3.9606,-15.3809,0.661,0.1151,-0.0762,0.7376,-0.1531,8.1635,-2.5074,62.9272,37.5977,3.3569,112.5275,3.9276,-22.4231,0.8116,0.1803,-0.08,0.55,0.3876,9.3789,-2.6605,36.2549,14.8315,2.0142,111.6705,2.1588,-20.495,0.8122,0.1576,-0.0845,0.5553,-0.8805,0.6604,10.0201,8.2397,4.2114,2.7466,2.9993,5.3229,-89.8627,-0.0143,0.0513,-0.7044,0.7078,-0.6221,8.0104,2.0002,3.418,24.4751,-20.1416,78.3325,5.3778,-34.541,0.5916,0.222,-0.2016,0.7483,0.1292,8.8621,-3.5793,-240.0513,63.3545,-91.4917,92.9718,-0.5109,-22.4835,0.7119,0.1384,-0.1374,0.6747,6.1059,8.5798,17.6572,-218.3838,-61.8286,134.7656,1.6864,-11.618,-140.9161,0.1003,-0.0201,-0.938,0.3313,0,0,0,0,0,0,0,0,0,0,0,0,0,0,0,0,0,0,57606,0,23554,0,0,0,57864,0,33542,0,0,25345,7182,0,60673,23559,57104,0
1777287096.972352,123140,1777287084.5140188,1777287095.3283322,1777287084.5654302,0,0,-10814.313411712646,-51.41139030456543,1,1,0.0,0.0,0.0,0.0,0.0,0.0,0.0,0.0,0.0,0.0,0.0,0.0,0.0,0.0,0.0,0.0,0.0,0.0,0.0,0.0,0.0,0.0,0.0,0.0,0.0,0.0,0.0,0.0,0.0,0.0,0.0,0.0,0.0,0.0,0.0,0.0,0.0,0.0,0.0,0.0,0.0,0.0,0.0,0.0,0.0,0.0,0.0,0.0,0.0,0.0,0.0,0.0,0.0,0.0,0.0,0.0,0.0,0.0,0.0,0.0,0.0,0.0,0.0,0.0,0.0,0.0,0.0,0.0,0.0,0.0,0.0,0.0,0.0,0.0,0.0,-1.1389,8.7808,2.9477,14.8926,22.9492,15.625,84.2706,3.9606,-15.3809,0.661,0.1151,-0.0762,0.7376,-0.1531,8.1635,-2.5074,62.9272,37.5977,3.3569,112.5275,3.9276,-22.4231,0.8116,0.1803,-0.08,0.55,0.3876,9.3789,-2.6605,36.2549,14.8315,2.0142,111.6705,2.1588,-20.495,0.8122,0.1576,-0.0845,0.5553,-0.8805,0.6604,10.0201,8.2397,4.2114,2.7466,2.9993,5.3229,-89.8627,-0.0143,0.0513,-0.7044,0.7078,-0.6221,8.0104,2.0002,3.418,24.4751,-20.1416,78.3325,5.3778,-34.541,0.5916,0.222,-0.2016,0.7483,0.1292,8.8621,-3.5793,-240.0513,63.3545,-91.4917,92.9718,-0.5109,-22.4835,0.7119,0.1384,-0.1374,0.6747,6.1059,8.5798,17.6572,-218.3838,-61.8286,134.7656,1.6864,-11.618,-140.9161,0.1003,-0.0201,-0.938,0.3313,0,0,0,0,0,0,0,0,0,0,0,0,0,0,0,0,0,0,57606,0,23554,0,0,0,57864,0,33542,0,0,25345,7182,0,60673,23559,57104,0
1777287096.972352,123141,1777287084.5245342,1777287095.3283322,1777287084.5654302,0,0,-10803.797960281372,-40.895938873291016,1,1,0.0,0.0,0.0,0.0,0.0,0.0,0.0,0.0,0.0,0.0,0.0,0.0,0.0,0.0,0.0,0.0,0.0,0.0,0.0,0.0,0.0,0.0,0.0,0.0,0.0,0.0,0.0,0.0,0.0,0.0,0.0,0.0,0.0,0.0,0.0,0.0,0.0,0.0,0.0,0.0,0.0,0.0,0.0,0.0,0.0,0.0,0.0,0.0,0.0,0.0,0.0,0.0,0.0,0.0,0.0,0.0,0.0,0.0,0.0,0.0,0.0,0.0,0.0,0.0,0.0,0.0,0.0,0.0,0.0,0.0,0.0,0.0,0.0,0.0,0.0,-1.1389,8.7808,2.9477,14.8926,22.9492,15.625,84.2706,3.9606,-15.3809,0.661,0.1151,-0.0762,0.7376,-0.1531,8.1635,-2.5074,62.9272,37.5977,3.3569,112.5275,3.9276,-22.4231,0.8116,0.1803,-0.08,0.55,0.3876,9.3789,-2.6605,36.2549,14.8315,2.0142,111.6705,2.1588,-20.495,0.8122,0.1576,-0.0845,0.5553,-0.8805,0.6604,10.0201,8.2397,4.2114,2.7466,2.9993,5.3229,-89.8627,-0.0143,0.0513,-0.7044,0.7078,-0.6221,8.0104,2.0002,3.418,24.4751,-20.1416,78.3325,5.3778,-34.541,0.5916,0.222,-0.2016,0.7483,0.1292,8.8621,-3.5793,-240.0513,63.3545,-91.4917,92.9718,-0.5109,-22.4835,0.7119,0.1384,-0.1374,0.6747,6.1059,8.5798,17.6572,-218.3838,-61.8286,134.7656,1.6864,-11.618,-140.9161,0.1003,-0.0201,-0.938,0.3313,0,0,0,0,0,0,0,0,0,0,0,0,0,0,0,0,0,0,57606,0,23554,0,0,0,57864,0,33542,0,0,25345,7182,0,60673,23559,57104,0
1777287096.972352,123142,1777287084.5353894,1777287095.3283322,1777287084.5654302,0,0,-10792.942762374878,-30.040740966796875,1,1,0.0,0.0,0.0,0.0,0.0,0.0,0.0,0.0,0.0,0.0,0.0,0.0,0.0,0.0,0.0,0.0,0.0,0.0,0.0,0.0,0.0,0.0,0.0,0.0,0.0,0.0,0.0,0.0,0.0,0.0,0.0,0.0,0.0,0.0,0.0,0.0,0.0,0.0,0.0,0.0,0.0,0.0,0.0,0.0,0.0,0.0,0.0,0.0,0.0,0.0,0.0,0.0,0.0,0.0,0.0,0.0,0.0,0.0,0.0,0.0,0.0,0.0,0.0,0.0,0.0,0.0,0.0,0.0,0.0,0.0,0.0,0.0,0.0,0.0,0.0,-1.1389,8.7808,2.9477,14.8926,22.9492,15.625,84.2706,3.9606,-15.3809,0.661,0.1151,-0.0762,0.7376,-0.1531,8.1635,-2.5074,62.9272,37.5977,3.3569,112.5275,3.9276,-22.4231,0.8116,0.1803,-0.08,0.55,0.3876,9.3789,-2.6605,36.2549,14.8315,2.0142,111.6705,2.1588,-20.495,0.8122,0.1576,-0.0845,0.5553,-0.8805,0.6604,10.0201,8.2397,4.2114,2.7466,2.9993,5.3229,-89.8627,-0.0143,0.0513,-0.7044,0.7078,-0.6221,8.0104,2.0002,3.418,24.4751,-20.1416,78.3325,5.3778,-34.541,0.5916,0.222,-0.2016,0.7483,0.1292,8.8621,-3.5793,-240.0513,63.3545,-91.4917,92.9718,-0.5109,-22.4835,0.7119,0.1384,-0.1374,0.6747,6.1059,8.5798,17.6572,-218.3838,-61.8286,134.7656,1.6864,-11.618,-140.9161,0.1003,-0.0201,-0.938,0.3313,0,0,0,0,0,0,0,0,0,0,0,0,0,0,0,0,0,0,57606,0,23554,0,0,0,57864,0,33542,0,0,25345,7182,0,60673,23559,57104,0
1777287096.972352,123143,1777287084.5451393,1777287095.3283322,1777287084.5654302,0,0,-10783.192873001099,-20.290851593017578,1,1,0.0,0.0,0.0,0.0,0.0,0.0,0.0,0.0,0.0,0.0,0.0,0.0,0.0,0.0,0.0,0.0,0.0,0.0,0.0,0.0,0.0,0.0,0.0,0.0,0.0,0.0,0.0,0.0,0.0,0.0,0.0,0.0,0.0,0.0,0.0,0.0,0.0,0.0,0.0,0.0,0.0,0.0,0.0,0.0,0.0,0.0,0.0,0.0,0.0,0.0,0.0,0.0,0.0,0.0,0.0,0.0,0.0,0.0,0.0,0.0,0.0,0.0,0.0,0.0,0.0,0.0,0.0,0.0,0.0,0.0,0.0,0.0,0.0,0.0,0.0,-1.1389,8.7808,2.9477,14.8926,22.9492,15.625,84.2706,3.9606,-15.3809,0.661,0.1151,-0.0762,0.7376,-0.1531,8.1635,-2.5074,62.9272,37.5977,3.3569,112.5275,3.9276,-22.4231,0.8116,0.1803,-0.08,0.55,0.3876,9.3789,-2.6605,36.2549,14.8315,2.0142,111.6705,2.1588,-20.495,0.8122,0.1576,-0.0845,0.5553,-0.8805,0.6604,10.0201,8.2397,4.2114,2.7466,2.9993,5.3229,-89.8627,-0.0143,0.0513,-0.7044,0.7078,-0.6221,8.0104,2.0002,3.418,24.4751,-20.1416,78.3325,5.3778,-34.541,0.5916,0.222,-0.2016,0.7483,0.1292,8.8621,-3.5793,-240.0513,63.3545,-91.4917,92.9718,-0.5109,-22.4835,0.7119,0.1384,-0.1374,0.6747,6.1059,8.5798,17.6572,-218.3838,-61.8286,134.7656,1.6864,-11.618,-140.9161,0.1003,-0.0201,-0.938,0.3313,0,0,0,0,0,0,0,0,0,0,0,0,0,0,0,0,0,0,57606,0,23554,0,0,0,57864,0,33542,0,0,25345,7182,0,60673,23559,57104,0
1777287096.972352,123144,1777287084.5550117,1777287095.3283322,1777287084.5654302,0,0,-10773.320436477661,-10.418415069580078,1,1,0.0,0.0,0.0,0.0,0.0,0.0,0.0,0.0,0.0,0.0,0.0,0.0,0.0,0.0,0.0,0.0,0.0,0.0,0.0,0.0,0.0,0.0,0.0,0.0,0.0,0.0,0.0,0.0,0.0,0.0,0.0,0.0,0.0,0.0,0.0,0.0,0.0,0.0,0.0,0.0,0.0,0.0,0.0,0.0,0.0,0.0,0.0,0.0,0.0,0.0,0.0,0.0,0.0,0.0,0.0,0.0,0.0,0.0,0.0,0.0,0.0,0.0,0.0,0.0,0.0,0.0,0.0,0.0,0.0,0.0,0.0,0.0,0.0,0.0,0.0,-1.1389,8.7808,2.9477,14.8926,22.9492,15.625,84.2706,3.9606,-15.3809,0.661,0.1151,-0.0762,0.7376,-0.1531,8.1635,-2.5074,62.9272,37.5977,3.3569,112.5275,3.9276,-22.4231,0.8116,0.1803,-0.08,0.55,0.3876,9.3789,-2.6605,36.2549,14.8315,2.0142,111.6705,2.1588,-20.495,0.8122,0.1576,-0.0845,0.5553,-0.8805,0.6604,10.0201,8.2397,4.2114,2.7466,2.9993,5.3229,-89.8627,-0.0143,0.0513,-0.7044,0.7078,-0.6221,8.0104,2.0002,3.418,24.4751,-20.1416,78.3325,5.3778,-34.541,0.5916,0.222,-0.2016,0.7483,0.1292,8.8621,-3.5793,-240.0513,63.3545,-91.4917,92.9718,-0.5109,-22.4835,0.7119,0.1384,-0.1374,0.6747,6.1059,8.5798,17.6572,-218.3838,-61.8286,134.7656,1.6864,-11.618,-140.9161,0.1003,-0.0201,-0.938,0.3313,0,0,0,0,0,0,0,0,0,0,0,0,0,0,0,0,0,0,57606,0,23554,0,0,0,57864,0,33542,0,0,25345,7182,0,60673,23559,57104,0
1777287096.972352,123145,1777287084.5654302,1777287095.3283322,1777287084.5654302,0,0,-10762.902021408081,0.0,1,1,0.0,0.0,0.0,0.0,0.0,0.0,0.0,0.0,0.0,0.0,0.0,0.0,0.0,0.0,0.0,0.0,0.0,0.0,0.0,0.0,0.0,0.0,0.0,0.0,0.0,0.0,0.0,0.0,0.0,0.0,0.0,0.0,0.0,0.0,0.0,0.0,0.0,0.0,0.0,0.0,0.0,0.0,0.0,0.0,0.0,0.0,0.0,0.0,0.0,0.0,0.0,0.0,0.0,0.0,0.0,0.0,0.0,0.0,0.0,0.0,0.0,0.0,0.0,0.0,0.0,0.0,0.0,0.0,0.0,0.0,0.0,0.0,0.0,0.0,0.0,-1.1389,8.7808,2.9477,14.8926,22.9492,15.625,84.2706,3.9606,-15.3809,0.661,0.1151,-0.0762,0.7376,-0.1531,8.1635,-2.5074,62.9272,37.5977,3.3569,112.5275,3.9276,-22.4231,0.8116,0.1803,-0.08,0.55,0.3876,9.3789,-2.6605,36.2549,14.8315,2.0142,111.6705,2.1588,-20.495,0.8122,0.1576,-0.0845,0.5553,-0.8805,0.6604,10.0201,8.2397,4.2114,2.7466,2.9993,5.3229,-89.8627,-0.0143,0.0513,-0.7044,0.7078,-0.6221,8.0104,2.0002,3.418,24.4751,-20.1416,78.3325,5.3778,-34.541,0.5916,0.222,-0.2016,0.7483,0.1292,8.8621,-3.5793,-240.0513,63.3545,-91.4917,92.9718,-0.5109,-22.4835,0.7119,0.1384,-0.1374,0.6747,6.1059,8.5798,17.6572,-218.3838,-61.8286,134.7656,1.6864,-11.618,-140.9161,0.1003,-0.0201,-0.938,0.3313,0,0,0,0,0,0,0,0,0,0,0,0,0,0,0,0,0,0,57606,0,23554,0,0,0,57864,0,33542,0,0,25345,7182,0,60673,23559,57104,0
1777287096.972352,123146,1777287084.5755076,1777287095.3283322,1777287084.5654302,0,0,-10752.824544906616,10.077476501464844,1,1,0.0,0.0,0.0,0.0,0.0,0.0,0.0,0.0,0.0,0.0,0.0,0.0,0.0,0.0,0.0,0.0,0.0,0.0,0.0,0.0,0.0,0.0,0.0,0.0,0.0,0.0,0.0,0.0,0.0,0.0,0.0,0.0,0.0,0.0,0.0,0.0,0.0,0.0,0.0,0.0,0.0,0.0,0.0,0.0,0.0,0.0,0.0,0.0,0.0,0.0,0.0,0.0,0.0,0.0,0.0,0.0,0.0,0.0,0.0,0.0,0.0,0.0,0.0,0.0,0.0,0.0,0.0,0.0,0.0,0.0,0.0,0.0,0.0,0.0,0.0,-1.1389,8.7808,2.9477,14.8926,22.9492,15.625,84.2706,3.9606,-15.3809,0.661,0.1151,-0.0762,0.7376,-0.1531,8.1635,-2.5074,62.9272,37.5977,3.3569,112.5275,3.9276,-22.4231,0.8116,0.1803,-0.08,0.55,0.3876,9.3789,-2.6605,36.2549,14.8315,2.0142,111.6705,2.1588,-20.495,0.8122,0.1576,-0.0845,0.5553,-0.8805,0.6604,10.0201,8.2397,4.2114,2.7466,2.9993,5.3229,-89.8627,-0.0143,0.0513,-0.7044,0.7078,-0.6221,8.0104,2.0002,3.418,24.4751,-20.1416,78.3325,5.3778,-34.541,0.5916,0.222,-0.2016,0.7483,0.1292,8.8621,-3.5793,-240.0513,63.3545,-91.4917,92.9718,-0.5109,-22.4835,0.7119,0.1384,-0.1374,0.6747,6.1059,8.5798,17.6572,-218.3838,-61.8286,134.7656,1.6864,-11.618,-140.9161,0.1003,-0.0201,-0.938,0.3313,0,0,0,0,0,0,0,0,0,0,0,0,0,0,0,0,0,0,57606,0,23554,0,0,0,57864,0,33542,0,0,25345,7182,0,60673,23559,57104,0
1777287096.972352,123147,1777287084.5926485,1777287095.3283322,1777287084.5654302,0,0,-10735.683679580688,27.218341827392578,1,1,0.0,0.0,0.0,0.0,0.0,0.0,0.0,0.0,0.0,0.0,0.0,0.0,0.0,0.0,0.0,0.0,0.0,0.0,0.0,0.0,0.0,0.0,0.0,0.0,0.0,0.0,0.0,0.0,0.0,0.0,0.0,0.0,0.0,0.0,0.0,0.0,0.0,0.0,0.0,0.0,0.0,0.0,0.0,0.0,0.0,0.0,0.0,0.0,0.0,0.0,0.0,0.0,0.0,0.0,0.0,0.0,0.0,0.0,0.0,0.0,0.0,0.0,0.0,0.0,0.0,0.0,0.0,0.0,0.0,0.0,0.0,0.0,0.0,0.0,0.0,-1.1389,8.7808,2.9477,14.8926,22.9492,15.625,84.2706,3.9606,-15.3809,0.661,0.1151,-0.0762,0.7376,-0.1531,8.1635,-2.5074,62.9272,37.5977,3.3569,112.5275,3.9276,-22.4231,0.8116,0.1803,-0.08,0.55,0.3876,9.3789,-2.6605,36.2549,14.8315,2.0142,111.6705,2.1588,-20.495,0.8122,0.1576,-0.0845,0.5553,-0.8805,0.6604,10.0201,8.2397,4.2114,2.7466,2.9993,5.3229,-89.8627,-0.0143,0.0513,-0.7044,0.7078,-0.6221,8.0104,2.0002,3.418,24.4751,-20.1416,78.3325,5.3778,-34.541,0.5916,0.222,-0.2016,0.7483,0.1292,8.8621,-3.5793,-240.0513,63.3545,-91.4917,92.9718,-0.5109,-22.4835,0.7119,0.1384,-0.1374,0.6747,6.1059,8.5798,17.6572,-218.3838,-61.8286,134.7656,1.6864,-11.618,-140.9161,0.1003,-0.0201,-0.938,0.3313,0,0,0,0,0,0,0,0,0,0,0,0,0,0,0,0,0,0,57606,0,23554,0,0,0,57864,0,33542,0,0,25345,7182,0,60673,23559,57104,0
1777287096.972352,123148,1777287084.5947635,1777287095.3283322,1777287084.5654302,0,0,-10733.568668365479,29.33335304260254,1,1,0.0,0.0,0.0,0.0,0.0,0.0,0.0,0.0,0.0,0.0,0.0,0.0,0.0,0.0,0.0,0.0,0.0,0.0,0.0,0.0,0.0,0.0,0.0,0.0,0.0,0.0,0.0,0.0,0.0,0.0,0.0,0.0,0.0,0.0,0.0,0.0,0.0,0.0,0.0,0.0,0.0,0.0,0.0,0.0,0.0,0.0,0.0,0.0,0.0,0.0,0.0,0.0,0.0,0.0,0.0,0.0,0.0,0.0,0.0,0.0,0.0,0.0,0.0,0.0,0.0,0.0,0.0,0.0,0.0,0.0,0.0,0.0,0.0,0.0,0.0,-1.1389,8.7808,2.9477,14.8926,22.9492,15.625,84.2706,3.9606,-15.3809,0.661,0.1151,-0.0762,0.7376,-0.1531,8.1635,-2.5074,62.9272,37.5977,3.3569,112.5275,3.9276,-22.4231,0.8116,0.1803,-0.08,0.55,0.3876,9.3789,-2.6605,36.2549,14.8315,2.0142,111.6705,2.1588,-20.495,0.8122,0.1576,-0.0845,0.5553,-0.8805,0.6604,10.0201,8.2397,4.2114,2.7466,2.9993,5.3229,-89.8627,-0.0143,0.0513,-0.7044,0.7078,-0.6221,8.0104,2.0002,3.418,24.4751,-20.1416,78.3325,5.3778,-34.541,0.5916,0.222,-0.2016,0.7483,0.1292,8.8621,-3.5793,-240.0513,63.3545,-91.4917,92.9718,-0.5109,-22.4835,0.7119,0.1384,-0.1374,0.6747,6.1059,8.5798,17.6572,-218.3838,-61.8286,134.7656,1.6864,-11.618,-140.9161,0.1003,-0.0201,-0.938,0.3313,0,0,0,0,0,0,0,0,0,0,0,0,0,0,0,0,0,0,57606,0,23554,0,0,0,57864,0,33542,0,0,25345,7182,0,60673,23559,57104,0
1777287096.9733608,123149,1777287084.6043754,1777287095.3283322,1777287084.5654302,0,0,-10723.956823348999,38.94519805908203,1,1,0.0,0.0,0.0,0.0,0.0,0.0,0.0,0.0,0.0,0.0,0.0,0.0,0.0,0.0,0.0,0.0,0.0,0.0,0.0,0.0,0.0,0.0,0.0,0.0,0.0,0.0,0.0,0.0,0.0,0.0,0.0,0.0,0.0,0.0,0.0,0.0,0.0,0.0,0.0,0.0,0.0,0.0,0.0,0.0,0.0,0.0,0.0,0.0,0.0,0.0,0.0,0.0,0.0,0.0,0.0,0.0,0.0,0.0,0.0,0.0,0.0,0.0,0.0,0.0,0.0,0.0,0.0,0.0,0.0,0.0,0.0,0.0,0.0,0.0,0.0,-1.1389,8.7808,2.9477,14.8926,22.9492,15.625,84.2706,3.9606,-15.3809,0.661,0.1151,-0.0762,0.7376,-0.1531,8.1635,-2.5074,62.9272,37.5977,3.3569,112.5275,3.9276,-22.4231,0.8116,0.1803,-0.08,0.55,0.3876,9.3789,-2.6605,36.2549,14.8315,2.0142,111.6705,2.1588,-20.495,0.8122,0.1576,-0.0845,0.5553,-0.8805,0.6604,10.0201,8.2397,4.2114,2.7466,2.9993,5.3229,-89.8627,-0.0143,0.0513,-0.7044,0.7078,-0.6221,8.0104,2.0002,3.418,24.4751,-20.1416,78.3325,5.3778,-34.541,0.5916,0.222,-0.2016,0.7483,0.1292,8.8621,-3.5793,-240.0513,63.3545,-91.4917,92.9718,-0.5109,-22.4835,0.7119,0.1384,-0.1374,0.6747,6.1059,8.5798,17.6572,-218.3838,-61.8286,134.7656,1.6864,-11.618,-140.9161,0.1003,-0.0201,-0.938,0.3313,0,0,0,0,0,0,0,0,0,0,0,0,0,0,0,0,0,0,57606,0,23554,0,0,0,57864,0,33542,0,0,25345,7182,0,60673,23559,57104,0
1777287096.9733608,123150,1777287084.6227007,1777287095.3283322,1777287084.5654302,0,0,-10705.631494522095,57.27052688598633,1,1,0.0,0.0,0.0,0.0,0.0,0.0,0.0,0.0,0.0,0.0,0.0,0.0,0.0,0.0,0.0,0.0,0.0,0.0,0.0,0.0,0.0,0.0,0.0,0.0,0.0,0.0,0.0,0.0,0.0,0.0,0.0,0.0,0.0,0.0,0.0,0.0,0.0,0.0,0.0,0.0,0.0,0.0,0.0,0.0,0.0,0.0,0.0,0.0,0.0,0.0,0.0,0.0,0.0,0.0,0.0,0.0,0.0,0.0,0.0,0.0,0.0,0.0,0.0,0.0,0.0,0.0,0.0,0.0,0.0,0.0,0.0,0.0,0.0,0.0,0.0,-1.1389,8.7808,2.9477,14.8926,22.9492,15.625,84.2706,3.9606,-15.3809,0.661,0.1151,-0.0762,0.7376,-0.1531,8.1635,-2.5074,62.9272,37.5977,3.3569,112.5275,3.9276,-22.4231,0.8116,0.1803,-0.08,0.55,0.3876,9.3789,-2.6605,36.2549,14.8315,2.0142,111.6705,2.1588,-20.495,0.8122,0.1576,-0.0845,0.5553,-0.8805,0.6604,10.0201,8.2397,4.2114,2.7466,2.9993,5.3229,-89.8627,-0.0143,0.0513,-0.7044,0.7078,-0.6221,8.0104,2.0002,3.418,24.4751,-20.1416,78.3325,5.3778,-34.541,0.5916,0.222,-0.2016,0.7483,0.1292,8.8621,-3.5793,-240.0513,63.3545,-91.4917,92.9718,-0.5109,-22.4835,0.7119,0.1384,-0.1374,0.6747,6.1059,8.5798,17.6572,-218.3838,-61.8286,134.7656,1.6864,-11.618,-140.9161,0.1003,-0.0201,-0.938,0.3313,0,0,0,0,0,0,0,0,0,0,0,0,0,0,0,0,0,0,57606,0,23554,0,0,0,57864,0,33542,0,0,25345,7182,0,60673,23559,57104,0
1777287096.9733608,123151,1777287084.6251876,1777287095.3283322,1777287084.5654302,0,0,-10703.144550323486,59.75747108459473,1,1,0.0,0.0,0.0,0.0,0.0,0.0,0.0,0.0,0.0,0.0,0.0,0.0,0.0,0.0,0.0,0.0,0.0,0.0,0.0,0.0,0.0,0.0,0.0,0.0,0.0,0.0,0.0,0.0,0.0,0.0,0.0,0.0,0.0,0.0,0.0,0.0,0.0,0.0,0.0,0.0,0.0,0.0,0.0,0.0,0.0,0.0,0.0,0.0,0.0,0.0,0.0,0.0,0.0,0.0,0.0,0.0,0.0,0.0,0.0,0.0,0.0,0.0,0.0,0.0,0.0,0.0,0.0,0.0,0.0,0.0,0.0,0.0,0.0,0.0,0.0,-1.1389,8.7808,2.9477,14.8926,22.9492,15.625,84.2706,3.9606,-15.3809,0.661,0.1151,-0.0762,0.7376,-0.1531,8.1635,-2.5074,62.9272,37.5977,3.3569,112.5275,3.9276,-22.4231,0.8116,0.1803,-0.08,0.55,0.3876,9.3789,-2.6605,36.2549,14.8315,2.0142,111.6705,2.1588,-20.495,0.8122,0.1576,-0.0845,0.5553,-0.8805,0.6604,10.0201,8.2397,4.2114,2.7466,2.9993,5.3229,-89.8627,-0.0143,0.0513,-0.7044,0.7078,-0.6221,8.0104,2.0002,3.418,24.4751,-20.1416,78.3325,5.3778,-34.541,0.5916,0.222,-0.2016,0.7483,0.1292,8.8621,-3.5793,-240.0513,63.3545,-91.4917,92.9718,-0.5109,-22.4835,0.7119,0.1384,-0.1374,0.6747,6.1059,8.5798,17.6572,-218.3838,-61.8286,134.7656,1.6864,-11.618,-140.9161,0.1003,-0.0201,-0.938,0.3313,0,0,0,0,0,0,0,0,0,0,0,0,0,0,0,0,0,0,57606,0,23554,0,0,0,57864,0,33542,0,0,25345,7182,0,60673,23559,57104,0
1777287096.9733608,123152,1777287084.6352913,1777287095.3283322,1777287084.5654302,0,0,-10693.04084777832,69.86117362976074,1,1,0.0,0.0,0.0,0.0,0.0,0.0,0.0,0.0,0.0,0.0,0.0,0.0,0.0,0.0,0.0,0.0,0.0,0.0,0.0,0.0,0.0,0.0,0.0,0.0,0.0,0.0,0.0,0.0,0.0,0.0,0.0,0.0,0.0,0.0,0.0,0.0,0.0,0.0,0.0,0.0,0.0,0.0,0.0,0.0,0.0,0.0,0.0,0.0,0.0,0.0,0.0,0.0,0.0,0.0,0.0,0.0,0.0,0.0,0.0,0.0,0.0,0.0,0.0,0.0,0.0,0.0,0.0,0.0,0.0,0.0,0.0,0.0,0.0,0.0,0.0,-1.1389,8.7808,2.9477,14.8926,22.9492,15.625,84.2706,3.9606,-15.3809,0.661,0.1151,-0.0762,0.7376,-0.1531,8.1635,-2.5074,62.9272,37.5977,3.3569,112.5275,3.9276,-22.4231,0.8116,0.1803,-0.08,0.55,0.3876,9.3789,-2.6605,36.2549,14.8315,2.0142,111.6705,2.1588,-20.495,0.8122,0.1576,-0.0845,0.5553,-0.8805,0.6604,10.0201,8.2397,4.2114,2.7466,2.9993,5.3229,-89.8627,-0.0143,0.0513,-0.7044,0.7078,-0.6221,8.0104,2.0002,3.418,24.4751,-20.1416,78.3325,5.3778,-34.541,0.5916,0.222,-0.2016,0.7483,0.1292,8.8621,-3.5793,-240.0513,63.3545,-91.4917,92.9718,-0.5109,-22.4835,0.7119,0.1384,-0.1374,0.6747,6.1059,8.5798,17.6572,-218.3838,-61.8286,134.7656,1.6864,-11.618,-140.9161,0.1003,-0.0201,-0.938,0.3313,0,0,0,0,0,0,0,0,0,0,0,0,0,0,0,0,0,0,57606,0,23554,0,0,0,57864,0,33542,0,0,25345,7182,0,60673,23559,57104,0
1777287096.9733608,123153,1777287084.645801,1777287095.3283322,1777287084.5654302,0,0,-10682.531118392944,80.37090301513672,1,1,0.0,0.0,0.0,0.0,0.0,0.0,0.0,0.0,0.0,0.0,0.0,0.0,0.0,0.0,0.0,0.0,0.0,0.0,0.0,0.0,0.0,0.0,0.0,0.0,0.0,0.0,0.0,0.0,0.0,0.0,0.0,0.0,0.0,0.0,0.0,0.0,0.0,0.0,0.0,0.0,0.0,0.0,0.0,0.0,0.0,0.0,0.0,0.0,0.0,0.0,0.0,0.0,0.0,0.0,0.0,0.0,0.0,0.0,0.0,0.0,0.0,0.0,0.0,0.0,0.0,0.0,0.0,0.0,0.0,0.0,0.0,0.0,0.0,0.0,0.0,-1.1389,8.7808,2.9477,14.8926,22.9492,15.625,84.2706,3.9606,-15.3809,0.661,0.1151,-0.0762,0.7376,-0.1531,8.1635,-2.5074,62.9272,37.5977,3.3569,112.5275,3.9276,-22.4231,0.8116,0.1803,-0.08,0.55,0.3876,9.3789,-2.6605,36.2549,14.8315,2.0142,111.6705,2.1588,-20.495,0.8122,0.1576,-0.0845,0.5553,-0.8805,0.6604,10.0201,8.2397,4.2114,2.7466,2.9993,5.3229,-89.8627,-0.0143,0.0513,-0.7044,0.7078,-0.6221,8.0104,2.0002,3.418,24.4751,-20.1416,78.3325,5.3778,-34.541,0.5916,0.222,-0.2016,0.7483,0.1292,8.8621,-3.5793,-240.0513,63.3545,-91.4917,92.9718,-0.5109,-22.4835,0.7119,0.1384,-0.1374,0.6747,6.1059,8.5798,17.6572,-218.3838,-61.8286,134.7656,1.6864,-11.618,-140.9161,0.1003,-0.0201,-0.938,0.3313,0,0,0,0,0,0,0,0,0,0,0,0,0,0,0,0,0,0,57606,0,23554,0,0,0,57864,0,33542,0,0,25345,7182,0,60673,23559,57104,0
1777287096.9733608,123154,1777287084.655307,1777287095.3283322,1777287084.5654302,0,0,-10673.025131225586,89.87689018249512,1,1,0.0,0.0,0.0,0.0,0.0,0.0,0.0,0.0,0.0,0.0,0.0,0.0,0.0,0.0,0.0,0.0,0.0,0.0,0.0,0.0,0.0,0.0,0.0,0.0,0.0,0.0,0.0,0.0,0.0,0.0,0.0,0.0,0.0,0.0,0.0,0.0,0.0,0.0,0.0,0.0,0.0,0.0,0.0,0.0,0.0,0.0,0.0,0.0,0.0,0.0,0.0,0.0,0.0,0.0,0.0,0.0,0.0,0.0,0.0,0.0,0.0,0.0,0.0,0.0,0.0,0.0,0.0,0.0,0.0,0.0,0.0,0.0,0.0,0.0,0.0,-1.1389,8.7808,2.9477,14.8926,22.9492,15.625,84.2706,3.9606,-15.3809,0.661,0.1151,-0.0762,0.7376,-0.1531,8.1635,-2.5074,62.9272,37.5977,3.3569,112.5275,3.9276,-22.4231,0.8116,0.1803,-0.08,0.55,0.3876,9.3789,-2.6605,36.2549,14.8315,2.0142,111.6705,2.1588,-20.495,0.8122,0.1576,-0.0845,0.5553,-0.8805,0.6604,10.0201,8.2397,4.2114,2.7466,2.9993,5.3229,-89.8627,-0.0143,0.0513,-0.7044,0.7078,-0.6221,8.0104,2.0002,3.418,24.4751,-20.1416,78.3325,5.3778,-34.541,0.5916,0.222,-0.2016,0.7483,0.1292,8.8621,-3.5793,-240.0513,63.3545,-91.4917,92.9718,-0.5109,-22.4835,0.7119,0.1384,-0.1374,0.6747,6.1059,8.5798,17.6572,-218.3838,-61.8286,134.7656,1.6864,-11.618,-140.9161,0.1003,-0.0201,-0.938,0.3313,0,0,0,0,0,0,0,0,0,0,0,0,0,0,0,0,0,0,57606,0,23554,0,0,0,57864,0,33542,0,0,25345,7182,0,60673,23559,57104,0
1777287096.9733608,123155,1777287084.6645634,1777287095.3283322,1777287084.5654302,0,0,-10663.768768310547,99.13325309753418,1,1,0.0,0.0,0.0,0.0,0.0,0.0,0.0,0.0,0.0,0.0,0.0,0.0,0.0,0.0,0.0,0.0,0.0,0.0,0.0,0.0,0.0,0.0,0.0,0.0,0.0,0.0,0.0,0.0,0.0,0.0,0.0,0.0,0.0,0.0,0.0,0.0,0.0,0.0,0.0,0.0,0.0,0.0,0.0,0.0,0.0,0.0,0.0,0.0,0.0,0.0,0.0,0.0,0.0,0.0,0.0,0.0,0.0,0.0,0.0,0.0,0.0,0.0,0.0,0.0,0.0,0.0,0.0,0.0,0.0,0.0,0.0,0.0,0.0,0.0,0.0,-1.1389,8.7808,2.9477,14.8926,22.9492,15.625,84.2706,3.9606,-15.3809,0.661,0.1151,-0.0762,0.7376,-0.1531,8.1635,-2.5074,62.9272,37.5977,3.3569,112.5275,3.9276,-22.4231,0.8116,0.1803,-0.08,0.55,0.3876,9.3789,-2.6605,36.2549,14.8315,2.0142,111.6705,2.1588,-20.495,0.8122,0.1576,-0.0845,0.5553,-0.8805,0.6604,10.0201,8.2397,4.2114,2.7466,2.9993,5.3229,-89.8627,-0.0143,0.0513,-0.7044,0.7078,-0.6221,8.0104,2.0002,3.418,24.4751,-20.1416,78.3325,5.3778,-34.541,0.5916,0.222,-0.2016,0.7483,0.1292,8.8621,-3.5793,-240.0513,63.3545,-91.4917,92.9718,-0.5109,-22.4835,0.7119,0.1384,-0.1374,0.6747,6.1059,8.5798,17.6572,-218.3838,-61.8286,134.7656,1.6864,-11.618,-140.9161,0.1003,-0.0201,-0.938,0.3313,0,0,0,0,0,0,0,0,0,0,0,0,0,0,0,0,0,0,57606,0,23554,0,0,0,57864,0,33542,0,0,25345,7182,0,60673,23559,57104,0
1777287096.9733608,123156,1777287084.6749518,1777287095.3283322,1777287084.5654302,0,0,-10653.380393981934,109.52162742614746,1,1,0.0,0.0,0.0,0.0,0.0,0.0,0.0,0.0,0.0,0.0,0.0,0.0,0.0,0.0,0.0,0.0,0.0,0.0,0.0,0.0,0.0,0.0,0.0,0.0,0.0,0.0,0.0,0.0,0.0,0.0,0.0,0.0,0.0,0.0,0.0,0.0,0.0,0.0,0.0,0.0,0.0,0.0,0.0,0.0,0.0,0.0,0.0,0.0,0.0,0.0,0.0,0.0,0.0,0.0,0.0,0.0,0.0,0.0,0.0,0.0,0.0,0.0,0.0,0.0,0.0,0.0,0.0,0.0,0.0,0.0,0.0,0.0,0.0,0.0,0.0,-1.1389,8.7808,2.9477,14.8926,22.9492,15.625,84.2706,3.9606,-15.3809,0.661,0.1151,-0.0762,0.7376,-0.1531,8.1635,-2.5074,62.9272,37.5977,3.3569,112.5275,3.9276,-22.4231,0.8116,0.1803,-0.08,0.55,0.3876,9.3789,-2.6605,36.2549,14.8315,2.0142,111.6705,2.1588,-20.495,0.8122,0.1576,-0.0845,0.5553,-0.8805,0.6604,10.0201,8.2397,4.2114,2.7466,2.9993,5.3229,-89.8627,-0.0143,0.0513,-0.7044,0.7078,-0.6221,8.0104,2.0002,3.418,24.4751,-20.1416,78.3325,5.3778,-34.541,0.5916,0.222,-0.2016,0.7483,0.1292,8.8621,-3.5793,-240.0513,63.3545,-91.4917,92.9718,-0.5109,-22.4835,0.7119,0.1384,-0.1374,0.6747,6.1059,8.5798,17.6572,-218.3838,-61.8286,134.7656,1.6864,-11.618,-140.9161,0.1003,-0.0201,-0.938,0.3313,0,0,0,0,0,0,0,0,0,0,0,0,0,0,0,0,0,0,57606,0,23554,0,0,0,57864,0,33542,0,0,25345,7182,0,60673,23559,57104,0
1777287096.9733608,123157,1777287084.6929522,1777287095.3283322,1777287084.5654302,0,0,-10635.380029678345,127.52199172973633,1,1,0.0,0.0,0.0,0.0,0.0,0.0,0.0,0.0,0.0,0.0,0.0,0.0,0.0,0.0,0.0,0.0,0.0,0.0,0.0,0.0,0.0,0.0,0.0,0.0,0.0,0.0,0.0,0.0,0.0,0.0,0.0,0.0,0.0,0.0,0.0,0.0,0.0,0.0,0.0,0.0,0.0,0.0,0.0,0.0,0.0,0.0,0.0,0.0,0.0,0.0,0.0,0.0,0.0,0.0,0.0,0.0,0.0,0.0,0.0,0.0,0.0,0.0,0.0,0.0,0.0,0.0,0.0,0.0,0.0,0.0,0.0,0.0,0.0,0.0,0.0,-1.1389,8.7808,2.9477,14.8926,22.9492,15.625,84.2706,3.9606,-15.3809,0.661,0.1151,-0.0762,0.7376,-0.1531,8.1635,-2.5074,62.9272,37.5977,3.3569,112.5275,3.9276,-22.4231,0.8116,0.1803,-0.08,0.55,0.3876,9.3789,-2.6605,36.2549,14.8315,2.0142,111.6705,2.1588,-20.495,0.8122,0.1576,-0.0845,0.5553,-0.8805,0.6604,10.0201,8.2397,4.2114,2.7466,2.9993,5.3229,-89.8627,-0.0143,0.0513,-0.7044,0.7078,-0.6221,8.0104,2.0002,3.418,24.4751,-20.1416,78.3325,5.3778,-34.541,0.5916,0.222,-0.2016,0.7483,0.1292,8.8621,-3.5793,-240.0513,63.3545,-91.4917,92.9718,-0.5109,-22.4835,0.7119,0.1384,-0.1374,0.6747,6.1059,8.5798,17.6572,-218.3838,-61.8286,134.7656,1.6864,-11.618,-140.9161,0.1003,-0.0201,-0.938,0.3313,0,0,0,0,0,0,0,0,0,0,0,0,0,0,0,0,0,0,57606,0,23554,0,0,0,57864,0,33542,0,0,25345,7182,0,60673,23559,57104,0
1777287096.9733608,123158,1777287084.7019956,1777287095.3283322,1777287084.5654302,0,0,-10626.336574554443,136.5654468536377,1,1,0.0,0.0,0.0,0.0,0.0,0.0,0.0,0.0,0.0,0.0,0.0,0.0,0.0,0.0,0.0,0.0,0.0,0.0,0.0,0.0,0.0,0.0,0.0,0.0,0.0,0.0,0.0,0.0,0.0,0.0,0.0,0.0,0.0,0.0,0.0,0.0,0.0,0.0,0.0,0.0,0.0,0.0,0.0,0.0,0.0,0.0,0.0,0.0,0.0,0.0,0.0,0.0,0.0,0.0,0.0,0.0,0.0,0.0,0.0,0.0,0.0,0.0,0.0,0.0,0.0,0.0,0.0,0.0,0.0,0.0,0.0,0.0,0.0,0.0,0.0,-1.1389,8.7808,2.9477,14.8926,22.9492,15.625,84.2706,3.9606,-15.3809,0.661,0.1151,-0.0762,0.7376,-0.1531,8.1635,-2.5074,62.9272,37.5977,3.3569,112.5275,3.9276,-22.4231,0.8116,0.1803,-0.08,0.55,0.3876,9.3789,-2.6605,36.2549,14.8315,2.0142,111.6705,2.1588,-20.495,0.8122,0.1576,-0.0845,0.5553,-0.8805,0.6604,10.0201,8.2397,4.2114,2.7466,2.9993,5.3229,-89.8627,-0.0143,0.0513,-0.7044,0.7078,-0.6221,8.0104,2.0002,3.418,24.4751,-20.1416,78.3325,5.3778,-34.541,0.5916,0.222,-0.2016,0.7483,0.1292,8.8621,-3.5793,-240.0513,63.3545,-91.4917,92.9718,-0.5109,-22.4835,0.7119,0.1384,-0.1374,0.6747,6.1059,8.5798,17.6572,-218.3838,-61.8286,134.7656,1.6864,-11.618,-140.9161,0.1003,-0.0201,-0.938,0.3313,0,0,0,0,0,0,0,0,0,0,0,0,0,0,0,0,0,0,57606,0,23554,0,0,0,57864,0,33542,0,0,25345,7182,0,60673,23559,57104,0
1777287096.9733608,123159,1777287084.711996,1777287095.3283322,1777287084.5654302,0,0,-10616.336107254028,146.56591415405273,1,1,0.0,0.0,0.0,0.0,0.0,0.0,0.0,0.0,0.0,0.0,0.0,0.0,0.0,0.0,0.0,0.0,0.0,0.0,0.0,0.0,0.0,0.0,0.0,0.0,0.0,0.0,0.0,0.0,0.0,0.0,0.0,0.0,0.0,0.0,0.0,0.0,0.0,0.0,0.0,0.0,0.0,0.0,0.0,0.0,0.0,0.0,0.0,0.0,0.0,0.0,0.0,0.0,0.0,0.0,0.0,0.0,0.0,0.0,0.0,0.0,0.0,0.0,0.0,0.0,0.0,0.0,0.0,0.0,0.0,0.0,0.0,0.0,0.0,0.0,0.0,-1.1389,8.7808,2.9477,14.8926,22.9492,15.625,84.2706,3.9606,-15.3809,0.661,0.1151,-0.0762,0.7376,-0.1531,8.1635,-2.5074,62.9272,37.5977,3.3569,112.5275,3.9276,-22.4231,0.8116,0.1803,-0.08,0.55,0.3876,9.3789,-2.6605,36.2549,14.8315,2.0142,111.6705,2.1588,-20.495,0.8122,0.1576,-0.0845,0.5553,-0.8805,0.6604,10.0201,8.2397,4.2114,2.7466,2.9993,5.3229,-89.8627,-0.0143,0.0513,-0.7044,0.7078,-0.6221,8.0104,2.0002,3.418,24.4751,-20.1416,78.3325,5.3778,-34.541,0.5916,0.222,-0.2016,0.7483,0.1292,8.8621,-3.5793,-240.0513,63.3545,-91.4917,92.9718,-0.5109,-22.4835,0.7119,0.1384,-0.1374,0.6747,6.1059,8.5798,17.6572,-218.3838,-61.8286,134.7656,1.6864,-11.618,-140.9161,0.1003,-0.0201,-0.938,0.3313,0,0,0,0,0,0,0,0,0,0,0,0,0,0,0,0,0,0,57606,0,23554,0,0,0,57864,0,33542,0,0,25345,7182,0,60673,23559,57104,0
1777287096.9733608,123160,1777287084.7158785,1777287095.3283322,1777287084.5654302,0,0,-10612.453699111938,150.44832229614258,1,1,0.0,0.0,0.0,0.0,0.0,0.0,0.0,0.0,0.0,0.0,0.0,0.0,0.0,0.0,0.0,0.0,0.0,0.0,0.0,0.0,0.0,0.0,0.0,0.0,0.0,0.0,0.0,0.0,0.0,0.0,0.0,0.0,0.0,0.0,0.0,0.0,0.0,0.0,0.0,0.0,0.0,0.0,0.0,0.0,0.0,0.0,0.0,0.0,0.0,0.0,0.0,0.0,0.0,0.0,0.0,0.0,0.0,0.0,0.0,0.0,0.0,0.0,0.0,0.0,0.0,0.0,0.0,0.0,0.0,0.0,0.0,0.0,0.0,0.0,0.0,-1.1389,8.7808,2.9477,14.8926,22.9492,15.625,84.2706,3.9606,-15.3809,0.661,0.1151,-0.0762,0.7376,-0.1531,8.1635,-2.5074,62.9272,37.5977,3.3569,112.5275,3.9276,-22.4231,0.8116,0.1803,-0.08,0.55,0.3876,9.3789,-2.6605,36.2549,14.8315,2.0142,111.6705,2.1588,-20.495,0.8122,0.1576,-0.0845,0.5553,-0.8805,0.6604,10.0201,8.2397,4.2114,2.7466,2.9993,5.3229,-89.8627,-0.0143,0.0513,-0.7044,0.7078,-0.6221,8.0104,2.0002,3.418,24.4751,-20.1416,78.3325,5.3778,-34.541,0.5916,0.222,-0.2016,0.7483,0.1292,8.8621,-3.5793,-240.0513,63.3545,-91.4917,92.9718,-0.5109,-22.4835,0.7119,0.1384,-0.1374,0.6747,6.1059,8.5798,17.6572,-218.3838,-61.8286,134.7656,1.6864,-11.618,-140.9161,0.1003,-0.0201,-0.938,0.3313,0,0,0,0,0,0,0,0,0,0,0,0,0,0,0,0,0,0,57606,0,23554,0,0,0,57864,0,33542,0,0,25345,7182,0,60673,23559,57104,0
1777287096.9743617,123161,1777287084.7246282,1777287095.3283322,1777287084.5654302,0,0,-10603.70397567749,159.19804573059082,1,1,0.0,0.0,0.0,0.0,0.0,0.0,0.0,0.0,0.0,0.0,0.0,0.0,0.0,0.0,0.0,0.0,0.0,0.0,0.0,0.0,0.0,0.0,0.0,0.0,0.0,0.0,0.0,0.0,0.0,0.0,0.0,0.0,0.0,0.0,0.0,0.0,0.0,0.0,0.0,0.0,0.0,0.0,0.0,0.0,0.0,0.0,0.0,0.0,0.0,0.0,0.0,0.0,0.0,0.0,0.0,0.0,0.0,0.0,0.0,0.0,0.0,0.0,0.0,0.0,0.0,0.0,0.0,0.0,0.0,0.0,0.0,0.0,0.0,0.0,0.0,-1.1389,8.7808,2.9477,14.8926,22.9492,15.625,84.2706,3.9606,-15.3809,0.661,0.1151,-0.0762,0.7376,-0.1531,8.1635,-2.5074,62.9272,37.5977,3.3569,112.5275,3.9276,-22.4231,0.8116,0.1803,-0.08,0.55,0.3876,9.3789,-2.6605,36.2549,14.8315,2.0142,111.6705,2.1588,-20.495,0.8122,0.1576,-0.0845,0.5553,-0.8805,0.6604,10.0201,8.2397,4.2114,2.7466,2.9993,5.3229,-89.8627,-0.0143,0.0513,-0.7044,0.7078,-0.6221,8.0104,2.0002,3.418,24.4751,-20.1416,78.3325,5.3778,-34.541,0.5916,0.222,-0.2016,0.7483,0.1292,8.8621,-3.5793,-240.0513,63.3545,-91.4917,92.9718,-0.5109,-22.4835,0.7119,0.1384,-0.1374,0.6747,6.1059,8.5798,17.6572,-218.3838,-61.8286,134.7656,1.6864,-11.618,-140.9161,0.1003,-0.0201,-0.938,0.3313,0,0,0,0,0,0,0,0,0,0,0,0,0,0,0,0,0,0,57606,0,23554,0,0,0,57864,0,33542,0,0,25345,7182,0,60673,23559,57104,0
1777287096.9743617,123162,1777287084.735192,1777287095.3283322,1777287084.735192,0,0,-10593.140125274658,0.0,1,1,0.0,0.0,0.0,0.0,0.0,0.0,0.0,0.0,0.0,0.0,0.0,0.0,0.0,0.0,0.0,0.0,0.0,0.0,0.0,0.0,0.0,0.0,0.0,0.0,0.0,0.0,0.0,0.0,0.0,0.0,0.0,0.0,0.0,0.0,0.0,0.0,0.0,0.0,0.0,0.0,0.0,0.0,0.0,0.0,0.0,0.0,0.0,0.0,0.0,0.0,0.0,0.0,0.0,0.0,0.0,0.0,0.0,0.0,0.0,0.0,0.0,0.0,0.0,0.0,0.0,0.0,0.0,0.0,0.0,0.0,0.0,0.0,0.0,0.0,0.0,-1.1389,8.7808,2.9477,14.8926,22.9492,15.625,84.2706,3.9606,-15.3809,0.661,0.1151,-0.0762,0.7376,-0.1531,8.1635,-2.5074,62.9272,37.5977,3.3569,112.5275,3.9276,-22.4231,0.8116,0.1803,-0.08,0.55,0.3876,9.3789,-2.6605,36.2549,14.8315,2.0142,111.6705,2.1588,-20.495,0.8122,0.1576,-0.0845,0.5553,-0.8805,0.6604,10.0201,8.2397,4.2114,2.7466,2.9993,5.3229,-89.8627,-0.0143,0.0513,-0.7044,0.7078,-0.6221,8.0104,2.0002,3.418,24.4751,-20.1416,78.3325,5.3778,-34.541,0.5916,0.222,-0.2016,0.7483,0.1292,8.8621,-3.5793,-240.0513,63.3545,-91.4917,92.9718,-0.5109,-22.4835,0.7119,0.1384,-0.1374,0.6747,6.1059,8.5798,17.6572,-218.3838,-61.8286,134.7656,1.6864,-11.618,-140.9161,0.1003,-0.0201,-0.938,0.3313,0,0,17420,36098,0,0,0,0,27408,49923,0,0,0,0,0,0,0,0,57606,0,23554,0,0,0,57864,0,33542,0,0,25345,7182,0,60673,23559,57104,0
1777287096.9743617,123163,1777287084.7447832,1777287095.3283322,1777287084.735192,0,0,-10583.54902267456,9.591102600097656,1,1,0.0,0.0,0.0,0.0,0.0,0.0,0.0,0.0,0.0,0.0,0.0,0.0,0.0,0.0,0.0,0.0,0.0,0.0,0.0,0.0,0.0,0.0,0.0,0.0,0.0,0.0,0.0,0.0,0.0,0.0,0.0,0.0,0.0,0.0,0.0,0.0,0.0,0.0,0.0,0.0,0.0,0.0,0.0,0.0,0.0,0.0,0.0,0.0,0.0,0.0,0.0,0.0,0.0,0.0,0.0,0.0,0.0,0.0,0.0,0.0,0.0,0.0,0.0,0.0,0.0,0.0,0.0,0.0,0.0,0.0,0.0,0.0,0.0,0.0,0.0,-1.1389,8.7808,2.9477,14.8926,22.9492,15.625,84.2706,3.9606,-15.3809,0.661,0.1151,-0.0762,0.7376,-0.1531,8.1635,-2.5074,62.9272,37.5977,3.3569,112.5275,3.9276,-22.4231,0.8116,0.1803,-0.08,0.55,0.3876,9.3789,-2.6605,36.2549,14.8315,2.0142,111.6705,2.1588,-20.495,0.8122,0.1576,-0.0845,0.5553,-0.8805,0.6604,10.0201,8.2397,4.2114,2.7466,2.9993,5.3229,-89.8627,-0.0143,0.0513,-0.7044,0.7078,-0.6221,8.0104,2.0002,3.418,24.4751,-20.1416,78.3325,5.3778,-34.541,0.5916,0.222,-0.2016,0.7483,0.1292,8.8621,-3.5793,-240.0513,63.3545,-91.4917,92.9718,-0.5109,-22.4835,0.7119,0.1384,-0.1374,0.6747,6.1059,8.5798,17.6572,-218.3838,-61.8286,134.7656,1.6864,-11.618,-140.9161,0.1003,-0.0201,-0.938,0.3313,0,0,17420,36098,0,0,0,0,27408,49923,0,0,0,0,0,0,0,0,57606,0,23554,0,0,0,57864,0,33542,0,0,25345,7182,0,60673,23559,57104,0
1777287096.9743617,123164,1777287084.755404,1777287095.3283322,1777287084.755404,0,0,-10572.928190231323,0.0,1,1,0.0,0.0,0.0,0.0,0.0,0.0,0.0,0.0,0.0,0.0,0.0,0.0,0.0,0.0,0.0,0.0,0.0,0.0,0.0,0.0,0.0,0.0,0.0,0.0,0.0,0.0,0.0,0.0,0.0,0.0,0.0,0.0,0.0,0.0,0.0,0.0,0.0,0.0,0.0,0.0,0.0,0.0,0.0,0.0,0.0,0.0,0.0,0.0,0.0,0.0,0.0,0.0,0.0,0.0,0.0,0.0,0.0,0.0,0.0,0.0,0.0,0.0,0.0,0.0,0.0,0.0,0.0,0.0,0.0,0.0,0.0,0.0,0.0,0.0,0.0,-1.1389,8.7808,2.9477,14.8926,22.9492,15.625,84.2706,3.9606,-15.3809,0.661,0.1151,-0.0762,0.7376,-0.1531,8.1635,-2.5074,62.9272,37.5977,3.3569,112.5275,3.9276,-22.4231,0.8116,0.1803,-0.08,0.55,0.3876,9.3789,-2.6605,36.2549,14.8315,2.0142,111.6705,2.1588,-20.495,0.8122,0.1576,-0.0845,0.5553,-0.8805,0.6604,10.0201,8.2397,4.2114,2.7466,2.9993,5.3229,-89.8627,-0.0143,0.0513,-0.7044,0.7078,-0.6221,8.0104,2.0002,3.418,24.4751,-20.1416,78.3325,5.3778,-34.541,0.5916,0.222,-0.2016,0.7483,0.1292,8.8621,-3.5793,-240.0513,63.3545,-91.4917,92.9718,-0.5109,-22.4835,0.7119,0.1384,-0.1374,0.6747,6.1059,8.5798,17.6572,-218.3838,-61.8286,134.7656,1.6864,-11.618,-140.9161,0.1003,-0.0201,-0.938,0.3313,0,0,17420,36098,0,0,0,0,27408,49923,0,0,0,0,0,0,0,0,17162,16897,16642,0,0,0,11533,40706,14341,0,0,34305,31250,0,0,60421,31251,0
1777287096.9743617,123165,1777287084.7656362,1777287095.3283322,1777287084.755404,0,0,-10562.695980072021,10.232210159301758,1,1,0.0,0.0,0.0,0.0,0.0,0.0,0.0,0.0,0.0,0.0,0.0,0.0,0.0,0.0,0.0,0.0,0.0,0.0,0.0,0.0,0.0,0.0,0.0,0.0,0.0,0.0,0.0,0.0,0.0,0.0,0.0,0.0,0.0,0.0,0.0,0.0,0.0,0.0,0.0,0.0,0.0,0.0,0.0,0.0,0.0,0.0,0.0,0.0,0.0,0.0,0.0,0.0,0.0,0.0,0.0,0.0,0.0,0.0,0.0,0.0,0.0,0.0,0.0,0.0,0.0,0.0,0.0,0.0,0.0,0.0,0.0,0.0,0.0,0.0,0.0,-1.1389,8.7808,2.9477,14.8926,22.9492,15.625,84.2706,3.9606,-15.3809,0.661,0.1151,-0.0762,0.7376,-0.1531,8.1635,-2.5074,62.9272,37.5977,3.3569,112.5275,3.9276,-22.4231,0.8116,0.1803,-0.08,0.55,0.3876,9.3789,-2.6605,36.2549,14.8315,2.0142,111.6705,2.1588,-20.495,0.8122,0.1576,-0.0845,0.5553,-0.8805,0.6604,10.0201,8.2397,4.2114,2.7466,2.9993,5.3229,-89.8627,-0.0143,0.0513,-0.7044,0.7078,-0.6221,8.0104,2.0002,3.418,24.4751,-20.1416,78.3325,5.3778,-34.541,0.5916,0.222,-0.2016,0.7483,0.1292,8.8621,-3.5793,-240.0513,63.3545,-91.4917,92.9718,-0.5109,-22.4835,0.7119,0.1384,-0.1374,0.6747,6.1059,8.5798,17.6572,-218.3838,-61.8286,134.7656,1.6864,-11.618,-140.9161,0.1003,-0.0201,-0.938,0.3313,0,0,17420,36098,0,0,0,0,27408,49923,0,0,0,0,0,0,0,0,17162,16897,16642,0,0,0,11533,40706,14341,0,0,34305,31250,0,0,60421,31251,0
1777287096.9743617,123166,1777287084.7853673,1777287095.3283322,1777287084.755404,0,0,-10542.964935302734,29.963254928588867,1,1,0.0,0.0,0.0,0.0,0.0,0.0,0.0,0.0,0.0,0.0,0.0,0.0,0.0,0.0,0.0,0.0,0.0,0.0,0.0,0.0,0.0,0.0,0.0,0.0,0.0,0.0,0.0,0.0,0.0,0.0,0.0,0.0,0.0,0.0,0.0,0.0,0.0,0.0,0.0,0.0,0.0,0.0,0.0,0.0,0.0,0.0,0.0,0.0,0.0,0.0,0.0,0.0,0.0,0.0,0.0,0.0,0.0,0.0,0.0,0.0,0.0,0.0,0.0,0.0,0.0,0.0,0.0,0.0,0.0,0.0,0.0,0.0,0.0,0.0,0.0,-1.1389,8.7808,2.9477,14.8926,22.9492,15.625,84.2706,3.9606,-15.3809,0.661,0.1151,-0.0762,0.7376,-0.1531,8.1635,-2.5074,62.9272,37.5977,3.3569,112.5275,3.9276,-22.4231,0.8116,0.1803,-0.08,0.55,0.3876,9.3789,-2.6605,36.2549,14.8315,2.0142,111.6705,2.1588,-20.495,0.8122,0.1576,-0.0845,0.5553,-0.8805,0.6604,10.0201,8.2397,4.2114,2.7466,2.9993,5.3229,-89.8627,-0.0143,0.0513,-0.7044,0.7078,-0.6221,8.0104,2.0002,3.418,24.4751,-20.1416,78.3325,5.3778,-34.541,0.5916,0.222,-0.2016,0.7483,0.1292,8.8621,-3.5793,-240.0513,63.3545,-91.4917,92.9718,-0.5109,-22.4835,0.7119,0.1384,-0.1374,0.6747,6.1059,8.5798,17.6572,-218.3838,-61.8286,134.7656,1.6864,-11.618,-140.9161,0.1003,-0.0201,-0.938,0.3313,0,0,17420,36098,0,0,0,0,27408,49923,0,0,0,0,0,0,0,0,17162,16897,16642,0,0,0,11533,40706,14341,0,0,34305,31250,0,0,60421,31251,0
1777287096.9743617,123167,1777287084.7879863,1777287095.3283322,1777287084.755404,0,0,-10540.345907211304,32.58228302001953,1,1,0.0,0.0,0.0,0.0,0.0,0.0,0.0,0.0,0.0,0.0,0.0,0.0,0.0,0.0,0.0,0.0,0.0,0.0,0.0,0.0,0.0,0.0,0.0,0.0,0.0,0.0,0.0,0.0,0.0,0.0,0.0,0.0,0.0,0.0,0.0,0.0,0.0,0.0,0.0,0.0,0.0,0.0,0.0,0.0,0.0,0.0,0.0,0.0,0.0,0.0,0.0,0.0,0.0,0.0,0.0,0.0,0.0,0.0,0.0,0.0,0.0,0.0,0.0,0.0,0.0,0.0,0.0,0.0,0.0,0.0,0.0,0.0,0.0,0.0,0.0,-1.1389,8.7808,2.9477,14.8926,22.9492,15.625,84.2706,3.9606,-15.3809,0.661,0.1151,-0.0762,0.7376,-0.1531,8.1635,-2.5074,62.9272,37.5977,3.3569,112.5275,3.9276,-22.4231,0.8116,0.1803,-0.08,0.55,0.3876,9.3789,-2.6605,36.2549,14.8315,2.0142,111.6705,2.1588,-20.495,0.8122,0.1576,-0.0845,0.5553,-0.8805,0.6604,10.0201,8.2397,4.2114,2.7466,2.9993,5.3229,-89.8627,-0.0143,0.0513,-0.7044,0.7078,-0.6221,8.0104,2.0002,3.418,24.4751,-20.1416,78.3325,5.3778,-34.541,0.5916,0.222,-0.2016,0.7483,0.1292,8.8621,-3.5793,-240.0513,63.3545,-91.4917,92.9718,-0.5109,-22.4835,0.7119,0.1384,-0.1374,0.6747,6.1059,8.5798,17.6572,-218.3838,-61.8286,134.7656,1.6864,-11.618,-140.9161,0.1003,-0.0201,-0.938,0.3313,0,0,17420,36098,0,0,0,0,27408,49923,0,0,0,0,0,0,0,0,17162,16897,16642,0,0,0,11533,40706,14341,0,0,34305,31250,0,0,60421,31251,0
1777287096.9743617,123168,1777287084.7947943,1777287095.3283322,1777287084.755404,0,0,-10533.537864685059,39.39032554626465,1,1,0.0,0.0,0.0,0.0,0.0,0.0,0.0,0.0,0.0,0.0,0.0,0.0,0.0,0.0,0.0,0.0,0.0,0.0,0.0,0.0,0.0,0.0,0.0,0.0,0.0,0.0,0.0,0.0,0.0,0.0,0.0,0.0,0.0,0.0,0.0,0.0,0.0,0.0,0.0,0.0,0.0,0.0,0.0,0.0,0.0,0.0,0.0,0.0,0.0,0.0,0.0,0.0,0.0,0.0,0.0,0.0,0.0,0.0,0.0,0.0,0.0,0.0,0.0,0.0,0.0,0.0,0.0,0.0,0.0,0.0,0.0,0.0,0.0,0.0,0.0,-1.1389,8.7808,2.9477,14.8926,22.9492,15.625,84.2706,3.9606,-15.3809,0.661,0.1151,-0.0762,0.7376,-0.1531,8.1635,-2.5074,62.9272,37.5977,3.3569,112.5275,3.9276,-22.4231,0.8116,0.1803,-0.08,0.55,0.3876,9.3789,-2.6605,36.2549,14.8315,2.0142,111.6705,2.1588,-20.495,0.8122,0.1576,-0.0845,0.5553,-0.8805,0.6604,10.0201,8.2397,4.2114,2.7466,2.9993,5.3229,-89.8627,-0.0143,0.0513,-0.7044,0.7078,-0.6221,8.0104,2.0002,3.418,24.4751,-20.1416,78.3325,5.3778,-34.541,0.5916,0.222,-0.2016,0.7483,0.1292,8.8621,-3.5793,-240.0513,63.3545,-91.4917,92.9718,-0.5109,-22.4835,0.7119,0.1384,-0.1374,0.6747,6.1059,8.5798,17.6572,-218.3838,-61.8286,134.7656,1.6864,-11.618,-140.9161,0.1003,-0.0201,-0.938,0.3313,0,0,17420,36098,0,0,0,0,27408,49923,0,0,0,0,0,0,0,0,17162,16897,16642,0,0,0,11533,40706,14341,0,0,34305,31250,0,0,60421,31251,0
1777287096.9743617,123169,1777287084.8052864,1777287095.3283322,1777287084.755404,0,0,-10523.045778274536,49.88241195678711,1,1,0.0,0.0,0.0,0.0,0.0,0.0,0.0,0.0,0.0,0.0,0.0,0.0,0.0,0.0,0.0,0.0,0.0,0.0,0.0,0.0,0.0,0.0,0.0,0.0,0.0,0.0,0.0,0.0,0.0,0.0,0.0,0.0,0.0,0.0,0.0,0.0,0.0,0.0,0.0,0.0,0.0,0.0,0.0,0.0,0.0,0.0,0.0,0.0,0.0,0.0,0.0,0.0,0.0,0.0,0.0,0.0,0.0,0.0,0.0,0.0,0.0,0.0,0.0,0.0,0.0,0.0,0.0,0.0,0.0,0.0,0.0,0.0,0.0,0.0,0.0,-1.1389,8.7808,2.9477,14.8926,22.9492,15.625,84.2706,3.9606,-15.3809,0.661,0.1151,-0.0762,0.7376,-0.1531,8.1635,-2.5074,62.9272,37.5977,3.3569,112.5275,3.9276,-22.4231,0.8116,0.1803,-0.08,0.55,0.3876,9.3789,-2.6605,36.2549,14.8315,2.0142,111.6705,2.1588,-20.495,0.8122,0.1576,-0.0845,0.5553,-0.8805,0.6604,10.0201,8.2397,4.2114,2.7466,2.9993,5.3229,-89.8627,-0.0143,0.0513,-0.7044,0.7078,-0.6221,8.0104,2.0002,3.418,24.4751,-20.1416,78.3325,5.3778,-34.541,0.5916,0.222,-0.2016,0.7483,0.1292,8.8621,-3.5793,-240.0513,63.3545,-91.4917,92.9718,-0.5109,-22.4835,0.7119,0.1384,-0.1374,0.6747,6.1059,8.5798,17.6572,-218.3838,-61.8286,134.7656,1.6864,-11.618,-140.9161,0.1003,-0.0201,-0.938,0.3313,0,0,17420,36098,0,0,0,0,27408,49923,0,0,0,0,0,0,0,0,17162,16897,16642,0,0,0,11533,40706,14341,0,0,34305,31250,0,0,60421,31251,0
1777287096.9743617,123170,1777287084.8144476,1777287095.3283322,1777287084.755404,0,0,-10513.884544372559,59.04364585876465,1,1,0.0,0.0,0.0,0.0,0.0,0.0,0.0,0.0,0.0,0.0,0.0,0.0,0.0,0.0,0.0,0.0,0.0,0.0,0.0,0.0,0.0,0.0,0.0,0.0,0.0,0.0,0.0,0.0,0.0,0.0,0.0,0.0,0.0,0.0,0.0,0.0,0.0,0.0,0.0,0.0,0.0,0.0,0.0,0.0,0.0,0.0,0.0,0.0,0.0,0.0,0.0,0.0,0.0,0.0,0.0,0.0,0.0,0.0,0.0,0.0,0.0,0.0,0.0,0.0,0.0,0.0,0.0,0.0,0.0,0.0,0.0,0.0,0.0,0.0,0.0,-1.1389,8.7808,2.9477,14.8926,22.9492,15.625,84.2706,3.9606,-15.3809,0.661,0.1151,-0.0762,0.7376,-0.1531,8.1635,-2.5074,62.9272,37.5977,3.3569,112.5275,3.9276,-22.4231,0.8116,0.1803,-0.08,0.55,0.3876,9.3789,-2.6605,36.2549,14.8315,2.0142,111.6705,2.1588,-20.495,0.8122,0.1576,-0.0845,0.5553,-0.8805,0.6604,10.0201,8.2397,4.2114,2.7466,2.9993,5.3229,-89.8627,-0.0143,0.0513,-0.7044,0.7078,-0.6221,8.0104,2.0002,3.418,24.4751,-20.1416,78.3325,5.3778,-34.541,0.5916,0.222,-0.2016,0.7483,0.1292,8.8621,-3.5793,-240.0513,63.3545,-91.4917,92.9718,-0.5109,-22.4835,0.7119,0.1384,-0.1374,0.6747,6.1059,8.5798,17.6572,-218.3838,-61.8286,134.7656,1.6864,-11.618,-140.9161,0.1003,-0.0201,-0.938,0.3313,0,0,17420,36098,0,0,0,0,27408,49923,0,0,0,0,0,0,0,0,17162,16897,16642,0,0,0,11533,40706,14341,0,0,34305,31250,0,0,60421,31251,0
1777287096.9743617,123171,1777287084.8254573,1777287095.3283322,1777287084.755404,0,0,-10502.874851226807,70.0533390045166,1,1,0.0,0.0,0.0,0.0,0.0,0.0,0.0,0.0,0.0,0.0,0.0,0.0,0.0,0.0,0.0,0.0,0.0,0.0,0.0,0.0,0.0,0.0,0.0,0.0,0.0,0.0,0.0,0.0,0.0,0.0,0.0,0.0,0.0,0.0,0.0,0.0,0.0,0.0,0.0,0.0,0.0,0.0,0.0,0.0,0.0,0.0,0.0,0.0,0.0,0.0,0.0,0.0,0.0,0.0,0.0,0.0,0.0,0.0,0.0,0.0,0.0,0.0,0.0,0.0,0.0,0.0,0.0,0.0,0.0,0.0,0.0,0.0,0.0,0.0,0.0,-1.1389,8.7808,2.9477,14.8926,22.9492,15.625,84.2706,3.9606,-15.3809,0.661,0.1151,-0.0762,0.7376,-0.1531,8.1635,-2.5074,62.9272,37.5977,3.3569,112.5275,3.9276,-22.4231,0.8116,0.1803,-0.08,0.55,0.3876,9.3789,-2.6605,36.2549,14.8315,2.0142,111.6705,2.1588,-20.495,0.8122,0.1576,-0.0845,0.5553,-0.8805,0.6604,10.0201,8.2397,4.2114,2.7466,2.9993,5.3229,-89.8627,-0.0143,0.0513,-0.7044,0.7078,-0.6221,8.0104,2.0002,3.418,24.4751,-20.1416,78.3325,5.3778,-34.541,0.5916,0.222,-0.2016,0.7483,0.1292,8.8621,-3.5793,-240.0513,63.3545,-91.4917,92.9718,-0.5109,-22.4835,0.7119,0.1384,-0.1374,0.6747,6.1059,8.5798,17.6572,-218.3838,-61.8286,134.7656,1.6864,-11.618,-140.9161,0.1003,-0.0201,-0.938,0.3313,0,0,17420,36098,0,0,0,0,27408,49923,0,0,0,0,0,0,0,0,17162,16897,16642,0,0,0,11533,40706,14341,0,0,34305,31250,0,0,60421,31251,0
1777287096.9743617,123172,1777287084.834478,1777287095.3283322,1777287084.755404,0,0,-10493.854284286499,79.07390594482422,1,1,0.0,0.0,0.0,0.0,0.0,0.0,0.0,0.0,0.0,0.0,0.0,0.0,0.0,0.0,0.0,0.0,0.0,0.0,0.0,0.0,0.0,0.0,0.0,0.0,0.0,0.0,0.0,0.0,0.0,0.0,0.0,0.0,0.0,0.0,0.0,0.0,0.0,0.0,0.0,0.0,0.0,0.0,0.0,0.0,0.0,0.0,0.0,0.0,0.0,0.0,0.0,0.0,0.0,0.0,0.0,0.0,0.0,0.0,0.0,0.0,0.0,0.0,0.0,0.0,0.0,0.0,0.0,0.0,0.0,0.0,0.0,0.0,0.0,0.0,0.0,-1.1389,8.7808,2.9477,14.8926,22.9492,15.625,84.2706,3.9606,-15.3809,0.661,0.1151,-0.0762,0.7376,-0.1531,8.1635,-2.5074,62.9272,37.5977,3.3569,112.5275,3.9276,-22.4231,0.8116,0.1803,-0.08,0.55,0.3876,9.3789,-2.6605,36.2549,14.8315,2.0142,111.6705,2.1588,-20.495,0.8122,0.1576,-0.0845,0.5553,-0.8805,0.6604,10.0201,8.2397,4.2114,2.7466,2.9993,5.3229,-89.8627,-0.0143,0.0513,-0.7044,0.7078,-0.6221,8.0104,2.0002,3.418,24.4751,-20.1416,78.3325,5.3778,-34.541,0.5916,0.222,-0.2016,0.7483,0.1292,8.8621,-3.5793,-240.0513,63.3545,-91.4917,92.9718,-0.5109,-22.4835,0.7119,0.1384,-0.1374,0.6747,6.1059,8.5798,17.6572,-218.3838,-61.8286,134.7656,1.6864,-11.618,-140.9161,0.1003,-0.0201,-0.938,0.3313,0,0,17420,36098,0,0,0,0,27408,49923,0,0,0,0,0,0,0,0,17162,16897,16642,0,0,0,11533,40706,14341,0,0,34305,31250,0,0,60421,31251,0
1777287096.975361,123173,1777287084.845388,1777287095.3283322,1777287084.755404,0,0,-10482.944250106812,89.98394012451172,1,1,0.0,0.0,0.0,0.0,0.0,0.0,0.0,0.0,0.0,0.0,0.0,0.0,0.0,0.0,0.0,0.0,0.0,0.0,0.0,0.0,0.0,0.0,0.0,0.0,0.0,0.0,0.0,0.0,0.0,0.0,0.0,0.0,0.0,0.0,0.0,0.0,0.0,0.0,0.0,0.0,0.0,0.0,0.0,0.0,0.0,0.0,0.0,0.0,0.0,0.0,0.0,0.0,0.0,0.0,0.0,0.0,0.0,0.0,0.0,0.0,0.0,0.0,0.0,0.0,0.0,0.0,0.0,0.0,0.0,0.0,0.0,0.0,0.0,0.0,0.0,-1.1389,8.7808,2.9477,14.8926,22.9492,15.625,84.2706,3.9606,-15.3809,0.661,0.1151,-0.0762,0.7376,-0.1531,8.1635,-2.5074,62.9272,37.5977,3.3569,112.5275,3.9276,-22.4231,0.8116,0.1803,-0.08,0.55,0.3876,9.3789,-2.6605,36.2549,14.8315,2.0142,111.6705,2.1588,-20.495,0.8122,0.1576,-0.0845,0.5553,-0.8805,0.6604,10.0201,8.2397,4.2114,2.7466,2.9993,5.3229,-89.8627,-0.0143,0.0513,-0.7044,0.7078,-0.6221,8.0104,2.0002,3.418,24.4751,-20.1416,78.3325,5.3778,-34.541,0.5916,0.222,-0.2016,0.7483,0.1292,8.8621,-3.5793,-240.0513,63.3545,-91.4917,92.9718,-0.5109,-22.4835,0.7119,0.1384,-0.1374,0.6747,6.1059,8.5798,17.6572,-218.3838,-61.8286,134.7656,1.6864,-11.618,-140.9161,0.1003,-0.0201,-0.938,0.3313,0,0,17420,36098,0,0,0,0,27408,49923,0,0,0,0,0,0,0,0,17162,16897,16642,0,0,0,11533,40706,14341,0,0,34305,31250,0,0,60421,31251,0
1777287096.975361,123174,1777287084.8548973,1777287095.3283322,1777287084.755404,0,0,-10473.434925079346,99.49326515197754,1,1,0.0,0.0,0.0,0.0,0.0,0.0,0.0,0.0,0.0,0.0,0.0,0.0,0.0,0.0,0.0,0.0,0.0,0.0,0.0,0.0,0.0,0.0,0.0,0.0,0.0,0.0,0.0,0.0,0.0,0.0,0.0,0.0,0.0,0.0,0.0,0.0,0.0,0.0,0.0,0.0,0.0,0.0,0.0,0.0,0.0,0.0,0.0,0.0,0.0,0.0,0.0,0.0,0.0,0.0,0.0,0.0,0.0,0.0,0.0,0.0,0.0,0.0,0.0,0.0,0.0,0.0,0.0,0.0,0.0,0.0,0.0,0.0,0.0,0.0,0.0,-1.1389,8.7808,2.9477,14.8926,22.9492,15.625,84.2706,3.9606,-15.3809,0.661,0.1151,-0.0762,0.7376,-0.1531,8.1635,-2.5074,62.9272,37.5977,3.3569,112.5275,3.9276,-22.4231,0.8116,0.1803,-0.08,0.55,0.3876,9.3789,-2.6605,36.2549,14.8315,2.0142,111.6705,2.1588,-20.495,0.8122,0.1576,-0.0845,0.5553,-0.8805,0.6604,10.0201,8.2397,4.2114,2.7466,2.9993,5.3229,-89.8627,-0.0143,0.0513,-0.7044,0.7078,-0.6221,8.0104,2.0002,3.418,24.4751,-20.1416,78.3325,5.3778,-34.541,0.5916,0.222,-0.2016,0.7483,0.1292,8.8621,-3.5793,-240.0513,63.3545,-91.4917,92.9718,-0.5109,-22.4835,0.7119,0.1384,-0.1374,0.6747,6.1059,8.5798,17.6572,-218.3838,-61.8286,134.7656,1.6864,-11.618,-140.9161,0.1003,-0.0201,-0.938,0.3313,0,0,17420,36098,0,0,0,0,27408,49923,0,0,0,0,0,0,0,0,17162,16897,16642,0,0,0,11533,40706,14341,0,0,34305,31250,0,0,60421,31251,0
1777287096.975361,123175,1777287084.8678968,1777287095.3283322,1777287084.755404,0,0,-10460.435390472412,112.49279975891113,1,1,0.0,0.0,0.0,0.0,0.0,0.0,0.0,0.0,0.0,0.0,0.0,0.0,0.0,0.0,0.0,0.0,0.0,0.0,0.0,0.0,0.0,0.0,0.0,0.0,0.0,0.0,0.0,0.0,0.0,0.0,0.0,0.0,0.0,0.0,0.0,0.0,0.0,0.0,0.0,0.0,0.0,0.0,0.0,0.0,0.0,0.0,0.0,0.0,0.0,0.0,0.0,0.0,0.0,0.0,0.0,0.0,0.0,0.0,0.0,0.0,0.0,0.0,0.0,0.0,0.0,0.0,0.0,0.0,0.0,0.0,0.0,0.0,0.0,0.0,0.0,-1.1389,8.7808,2.9477,14.8926,22.9492,15.625,84.2706,3.9606,-15.3809,0.661,0.1151,-0.0762,0.7376,-0.1531,8.1635,-2.5074,62.9272,37.5977,3.3569,112.5275,3.9276,-22.4231,0.8116,0.1803,-0.08,0.55,0.3876,9.3789,-2.6605,36.2549,14.8315,2.0142,111.6705,2.1588,-20.495,0.8122,0.1576,-0.0845,0.5553,-0.8805,0.6604,10.0201,8.2397,4.2114,2.7466,2.9993,5.3229,-89.8627,-0.0143,0.0513,-0.7044,0.7078,-0.6221,8.0104,2.0002,3.418,24.4751,-20.1416,78.3325,5.3778,-34.541,0.5916,0.222,-0.2016,0.7483,0.1292,8.8621,-3.5793,-240.0513,63.3545,-91.4917,92.9718,-0.5109,-22.4835,0.7119,0.1384,-0.1374,0.6747,6.1059,8.5798,17.6572,-218.3838,-61.8286,134.7656,1.6864,-11.618,-140.9161,0.1003,-0.0201,-0.938,0.3313,0,0,17420,36098,0,0,0,0,27408,49923,0,0,0,0,0,0,0,0,17162,16897,16642,0,0,0,11533,40706,14341,0,0,34305,31250,0,0,60421,31251,0
1777287096.975361,123176,1777287084.8748062,1777287095.3283322,1777287084.755404,0,0,-10453.526020050049,119.40217018127441,1,1,0.0,0.0,0.0,0.0,0.0,0.0,0.0,0.0,0.0,0.0,0.0,0.0,0.0,0.0,0.0,0.0,0.0,0.0,0.0,0.0,0.0,0.0,0.0,0.0,0.0,0.0,0.0,0.0,0.0,0.0,0.0,0.0,0.0,0.0,0.0,0.0,0.0,0.0,0.0,0.0,0.0,0.0,0.0,0.0,0.0,0.0,0.0,0.0,0.0,0.0,0.0,0.0,0.0,0.0,0.0,0.0,0.0,0.0,0.0,0.0,0.0,0.0,0.0,0.0,0.0,0.0,0.0,0.0,0.0,0.0,0.0,0.0,0.0,0.0,0.0,-1.1389,8.7808,2.9477,14.8926,22.9492,15.625,84.2706,3.9606,-15.3809,0.661,0.1151,-0.0762,0.7376,-0.1531,8.1635,-2.5074,62.9272,37.5977,3.3569,112.5275,3.9276,-22.4231,0.8116,0.1803,-0.08,0.55,0.3876,9.3789,-2.6605,36.2549,14.8315,2.0142,111.6705,2.1588,-20.495,0.8122,0.1576,-0.0845,0.5553,-0.8805,0.6604,10.0201,8.2397,4.2114,2.7466,2.9993,5.3229,-89.8627,-0.0143,0.0513,-0.7044,0.7078,-0.6221,8.0104,2.0002,3.418,24.4751,-20.1416,78.3325,5.3778,-34.541,0.5916,0.222,-0.2016,0.7483,0.1292,8.8621,-3.5793,-240.0513,63.3545,-91.4917,92.9718,-0.5109,-22.4835,0.7119,0.1384,-0.1374,0.6747,6.1059,8.5798,17.6572,-218.3838,-61.8286,134.7656,1.6864,-11.618,-140.9161,0.1003,-0.0201,-0.938,0.3313,0,0,17420,36098,0,0,0,0,27408,49923,0,0,0,0,0,0,0,0,17162,16897,16642,0,0,0,11533,40706,14341,0,0,34305,31250,0,0,60421,31251,0
1777287096.975361,123177,1777287084.8848155,1777287095.3283322,1777287084.755404,0,0,-10443.516731262207,129.4114589691162,1,1,0.0,0.0,0.0,0.0,0.0,0.0,0.0,0.0,0.0,0.0,0.0,0.0,0.0,0.0,0.0,0.0,0.0,0.0,0.0,0.0,0.0,0.0,0.0,0.0,0.0,0.0,0.0,0.0,0.0,0.0,0.0,0.0,0.0,0.0,0.0,0.0,0.0,0.0,0.0,0.0,0.0,0.0,0.0,0.0,0.0,0.0,0.0,0.0,0.0,0.0,0.0,0.0,0.0,0.0,0.0,0.0,0.0,0.0,0.0,0.0,0.0,0.0,0.0,0.0,0.0,0.0,0.0,0.0,0.0,0.0,0.0,0.0,0.0,0.0,0.0,-1.1389,8.7808,2.9477,14.8926,22.9492,15.625,84.2706,3.9606,-15.3809,0.661,0.1151,-0.0762,0.7376,-0.1531,8.1635,-2.5074,62.9272,37.5977,3.3569,112.5275,3.9276,-22.4231,0.8116,0.1803,-0.08,0.55,0.3876,9.3789,-2.6605,36.2549,14.8315,2.0142,111.6705,2.1588,-20.495,0.8122,0.1576,-0.0845,0.5553,-0.8805,0.6604,10.0201,8.2397,4.2114,2.7466,2.9993,5.3229,-89.8627,-0.0143,0.0513,-0.7044,0.7078,-0.6221,8.0104,2.0002,3.418,24.4751,-20.1416,78.3325,5.3778,-34.541,0.5916,0.222,-0.2016,0.7483,0.1292,8.8621,-3.5793,-240.0513,63.3545,-91.4917,92.9718,-0.5109,-22.4835,0.7119,0.1384,-0.1374,0.6747,6.1059,8.5798,17.6572,-218.3838,-61.8286,134.7656,1.6864,-11.618,-140.9161,0.1003,-0.0201,-0.938,0.3313,0,0,17420,36098,0,0,0,0,27408,49923,0,0,0,0,0,0,0,0,17162,16897,16642,0,0,0,11533,40706,14341,0,0,34305,31250,0,0,60421,31251,0
1777287096.975361,123178,1777287084.8948033,1777287095.3283322,1777287084.755404,0,0,-10433.528900146484,139.39929008483887,1,1,0.0,0.0,0.0,0.0,0.0,0.0,0.0,0.0,0.0,0.0,0.0,0.0,0.0,0.0,0.0,0.0,0.0,0.0,0.0,0.0,0.0,0.0,0.0,0.0,0.0,0.0,0.0,0.0,0.0,0.0,0.0,0.0,0.0,0.0,0.0,0.0,0.0,0.0,0.0,0.0,0.0,0.0,0.0,0.0,0.0,0.0,0.0,0.0,0.0,0.0,0.0,0.0,0.0,0.0,0.0,0.0,0.0,0.0,0.0,0.0,0.0,0.0,0.0,0.0,0.0,0.0,0.0,0.0,0.0,0.0,0.0,0.0,0.0,0.0,0.0,-1.1389,8.7808,2.9477,14.8926,22.9492,15.625,84.2706,3.9606,-15.3809,0.661,0.1151,-0.0762,0.7376,-0.1531,8.1635,-2.5074,62.9272,37.5977,3.3569,112.5275,3.9276,-22.4231,0.8116,0.1803,-0.08,0.55,0.3876,9.3789,-2.6605,36.2549,14.8315,2.0142,111.6705,2.1588,-20.495,0.8122,0.1576,-0.0845,0.5553,-0.8805,0.6604,10.0201,8.2397,4.2114,2.7466,2.9993,5.3229,-89.8627,-0.0143,0.0513,-0.7044,0.7078,-0.6221,8.0104,2.0002,3.418,24.4751,-20.1416,78.3325,5.3778,-34.541,0.5916,0.222,-0.2016,0.7483,0.1292,8.8621,-3.5793,-240.0513,63.3545,-91.4917,92.9718,-0.5109,-22.4835,0.7119,0.1384,-0.1374,0.6747,6.1059,8.5798,17.6572,-218.3838,-61.8286,134.7656,1.6864,-11.618,-140.9161,0.1003,-0.0201,-0.938,0.3313,0,0,17420,36098,0,0,0,0,27408,49923,0,0,0,0,0,0,0,0,17162,16897,16642,0,0,0,11533,40706,14341,0,0,34305,31250,0,0,60421,31251,0
1777287096.975361,123179,1777287084.9050705,1777287095.3283322,1777287084.755404,0,0,-10423.261642456055,149.66654777526855,1,1,0.0,0.0,0.0,0.0,0.0,0.0,0.0,0.0,0.0,0.0,0.0,0.0,0.0,0.0,0.0,0.0,0.0,0.0,0.0,0.0,0.0,0.0,0.0,0.0,0.0,0.0,0.0,0.0,0.0,0.0,0.0,0.0,0.0,0.0,0.0,0.0,0.0,0.0,0.0,0.0,0.0,0.0,0.0,0.0,0.0,0.0,0.0,0.0,0.0,0.0,0.0,0.0,0.0,0.0,0.0,0.0,0.0,0.0,0.0,0.0,0.0,0.0,0.0,0.0,0.0,0.0,0.0,0.0,0.0,0.0,0.0,0.0,0.0,0.0,0.0,-1.1389,8.7808,2.9477,14.8926,22.9492,15.625,84.2706,3.9606,-15.3809,0.661,0.1151,-0.0762,0.7376,-0.1531,8.1635,-2.5074,62.9272,37.5977,3.3569,112.5275,3.9276,-22.4231,0.8116,0.1803,-0.08,0.55,0.3876,9.3789,-2.6605,36.2549,14.8315,2.0142,111.6705,2.1588,-20.495,0.8122,0.1576,-0.0845,0.5553,-0.8805,0.6604,10.0201,8.2397,4.2114,2.7466,2.9993,5.3229,-89.8627,-0.0143,0.0513,-0.7044,0.7078,-0.6221,8.0104,2.0002,3.418,24.4751,-20.1416,78.3325,5.3778,-34.541,0.5916,0.222,-0.2016,0.7483,0.1292,8.8621,-3.5793,-240.0513,63.3545,-91.4917,92.9718,-0.5109,-22.4835,0.7119,0.1384,-0.1374,0.6747,6.1059,8.5798,17.6572,-218.3838,-61.8286,134.7656,1.6864,-11.618,-140.9161,0.1003,-0.0201,-0.938,0.3313,0,0,17420,36098,0,0,0,0,27408,49923,0,0,0,0,0,0,0,0,17162,16897,16642,0,0,0,11533,40706,14341,0,0,34305,31250,0,0,60421,31251,0
1777287096.975361,123180,1777287084.915483,1777287095.3283322,1777287084.755404,0,0,-10412.849187850952,160.0790023803711,1,1,0.0,0.0,0.0,0.0,0.0,0.0,0.0,0.0,0.0,0.0,0.0,0.0,0.0,0.0,0.0,0.0,0.0,0.0,0.0,0.0,0.0,0.0,0.0,0.0,0.0,0.0,0.0,0.0,0.0,0.0,0.0,0.0,0.0,0.0,0.0,0.0,0.0,0.0,0.0,0.0,0.0,0.0,0.0,0.0,0.0,0.0,0.0,0.0,0.0,0.0,0.0,0.0,0.0,0.0,0.0,0.0,0.0,0.0,0.0,0.0,0.0,0.0,0.0,0.0,0.0,0.0,0.0,0.0,0.0,0.0,0.0,0.0,0.0,0.0,0.0,-1.1389,8.7808,2.9477,14.8926,22.9492,15.625,84.2706,3.9606,-15.3809,0.661,0.1151,-0.0762,0.7376,-0.1531,8.1635,-2.5074,62.9272,37.5977,3.3569,112.5275,3.9276,-22.4231,0.8116,0.1803,-0.08,0.55,0.3876,9.3789,-2.6605,36.2549,14.8315,2.0142,111.6705,2.1588,-20.495,0.8122,0.1576,-0.0845,0.5553,-0.8805,0.6604,10.0201,8.2397,4.2114,2.7466,2.9993,5.3229,-89.8627,-0.0143,0.0513,-0.7044,0.7078,-0.6221,8.0104,2.0002,3.418,24.4751,-20.1416,78.3325,5.3778,-34.541,0.5916,0.222,-0.2016,0.7483,0.1292,8.8621,-3.5793,-240.0513,63.3545,-91.4917,92.9718,-0.5109,-22.4835,0.7119,0.1384,-0.1374,0.6747,6.1059,8.5798,17.6572,-218.3838,-61.8286,134.7656,1.6864,-11.618,-140.9161,0.1003,-0.0201,-0.938,0.3313,0,0,17420,36098,0,0,0,0,27408,49923,0,0,0,0,0,0,0,0,17162,16897,16642,0,0,0,11533,40706,14341,0,0,34305,31250,0,0,60421,31251,0
