Timestamp,Vicon_Frame_Num,Vicon_Recv_Timestamp,IMU_Recv_Timestamp,Planter_Recv_Timestamp,Vicon_Gap_Flag,Vicon_Gap_Size,IMU_Stale_ms,Planter_Stale_ms,IMU_Matched_Flag,Planter_Matched_Flag,Vicon_Root_X,Vicon_Root_Y,Vicon_Root_Z,Vicon_L_Femur_X,Vicon_L_Femur_Y,Vicon_L_Femur_Z,Vicon_L_Tibia_X,Vicon_L_Tibia_Y,Vicon_L_Tibia_Z,Vicon_L_Foot_X,Vicon_L_Foot_Y,Vicon_L_Foot_Z,Vicon_L_Toe_X,Vicon_L_Toe_Y,Vicon_L_Toe_Z,Vicon_R_Femur_X,Vicon_R_Femur_Y,Vicon_R_Femur_Z,Vicon_R_Tibia_X,Vicon_R_Tibia_Y,Vicon_R_Tibia_Z,Vicon_R_Foot_X,Vicon_R_Foot_Y,Vicon_R_Foot_Z,Vicon_R_Toe_X,Vicon_R_Toe_Y,Vicon_R_Toe_Z,Vicon_LASI_X,Vicon_LASI_Y,Vicon_LASI_Z,Vicon_RASI_X,Vicon_RASI_Y,Vicon_RASI_Z,Vicon_LPSI_X,Vicon_LPSI_Y,Vicon_LPSI_Z,Vicon_RPSI_X,Vicon_RPSI_Y,Vicon_RPSI_Z,Vicon_LTHI_X,Vicon_LTHI_Y,Vicon_LTHI_Z,Vicon_LKNE_X,Vicon_LKNE_Y,Vicon_LKNE_Z,Vicon_LTIB_X,Vicon_LTIB_Y,Vicon_LTIB_Z,Vicon_LANK_X,Vicon_LANK_Y,Vicon_LANK_Z,Vicon_LHEE_X,Vicon_LHEE_Y,Vicon_LHEE_Z,Vicon_LTOE_X,Vicon_LTOE_Y,Vicon_LTOE_Z,Vicon_RTHI_X,Vicon_RTHI_Y,Vicon_RTHI_Z,Vicon_RKNE_X,Vicon_RKNE_Y,Vicon_RKNE_Z,Vicon_RTIB_X,Vicon_RTIB_Y,Vicon_RTIB_Z,Vicon_RANK_X,Vicon_RANK_Y,Vicon_RANK_Z,Vicon_RHEE_X,Vicon_RHEE_Y,Vicon_RHEE_Z,Vicon_RTOE_X,Vicon_RTOE_Y,Vicon_RTOE_Z,IMU_Trunk_Acc_X,IMU_Trunk_Acc_Y,IMU_Trunk_Acc_Z,IMU_Trunk_Gyro_X,IMU_Trunk_Gyro_Y,IMU_Trunk_Gyro_Z,IMU_Trunk_Roll,IMU_Trunk_Pitch,IMU_Trunk_Yaw,IMU_Trunk_Quat_x,IMU_Trunk_Quat_y,IMU_Trunk_Quat_z,IMU_Trunk_Quat_w,IMU_L_Femur_Acc_X,IMU_L_Femur_Acc_Y,IMU_L_Femur_Acc_Z,IMU_L_Femur_Gyro_X,IMU_L_Femur_Gyro_Y,IMU_L_Femur_Gyro_Z,IMU_L_Femur_Roll,IMU_L_Femur_Pitch,IMU_L_Femur_Yaw,IMU_L_Femur_Quat_x,IMU_L_Femur_Quat_y,IMU_L_Femur_Quat_z,IMU_L_Femur_Quat_w,IMU_L_Tibia_Acc_X,IMU_L_Tibia_Acc_Y,IMU_L_Tibia_Acc_Z,IMU_L_Tibia_Gyro_X,IMU_L_Tibia_Gyro_Y,IMU_L_Tibia_Gyro_Z,IMU_L_Tibia_Roll,IMU_L_Tibia_Pitch,IMU_L_Tibia_Yaw,IMU_L_Tibia_Quat_x,IMU_L_Tibia_Quat_y,IMU_L_Tibia_Quat_z,IMU_L_Tibia_Quat_w,IMU_L_Foot_Acc_X,IMU_L_Foot_Acc_Y,IMU_L_Foot_Acc_Z,IMU_L_Foot_Gyro_X,IMU_L_Foot_Gyro_Y,IMU_L_Foot_Gyro_Z,IMU_L_Foot_Roll,IMU_L_Foot_Pitch,IMU_L_Foot_Yaw,IMU_L_Foot_Quat_x,IMU_L_Foot_Quat_y,IMU_L_Foot_Quat_z,IMU_L_Foot_Quat_w,IMU_R_Femur_Acc_X,IMU_R_Femur_Acc_Y,IMU_R_Femur_Acc_Z,IMU_R_Femur_Gyro_X,IMU_R_Femur_Gyro_Y,IMU_R_Femur_Gyro_Z,IMU_R_Femur_Roll,IMU_R_Femur_Pitch,IMU_R_Femur_Yaw,IMU_R_Femur_Quat_x,IMU_R_Femur_Quat_y,IMU_R_Femur_Quat_z,IMU_R_Femur_Quat_w,IMU_R_Tibia_Acc_X,IMU_R_Tibia_Acc_Y,IMU_R_Tibia_Acc_Z,IMU_R_Tibia_Gyro_X,IMU_R_Tibia_Gyro_Y,IMU_R_Tibia_Gyro_Z,IMU_R_Tibia_Roll,IMU_R_Tibia_Pitch,IMU_R_Tibia_Yaw,IMU_R_Tibia_Quat_x,IMU_R_Tibia_Quat_y,IMU_R_Tibia_Quat_z,IMU_R_Tibia_Quat_w,IMU_R_Foot_Acc_X,IMU_R_Foot_Acc_Y,IMU_R_Foot_Acc_Z,IMU_R_Foot_Gyro_X,IMU_R_Foot_Gyro_Y,IMU_R_Foot_Gyro_Z,IMU_R_Foot_Roll,IMU_R_Foot_Pitch,IMU_R_Foot_Yaw,IMU_R_Foot_Quat_x,IMU_R_Foot_Quat_y,IMU_R_Foot_Quat_z,IMU_R_Foot_Quat_w,Planter_Left_0,Planter_Left_1,Planter_Left_2,Planter_Left_3,Planter_Left_4,Planter_Left_5,Planter_Left_6,Planter_Left_7,Planter_Left_8,Planter_Left_9,Planter_Left_10,Planter_Left_11,Planter_Left_12,Planter_Left_13,Planter_Left_14,Planter_Left_15,Planter_Left_16,Planter_Left_17,Planter_Right_0,Planter_Right_1,Planter_Right_2,Planter_Right_3,Planter_Right_4,Planter_Right_5,Planter_Right_6,Planter_Right_7,Planter_Right_8,Planter_Right_9,Planter_Right_10,Planter_Right_11,Planter_Right_12,Planter_Right_13,Planter_Right_14,Planter_Right_15,Planter_Right_16,Planter_Right_17
1777290949.4663832,9851,1777290943.5349317,1777290943.813663,,0,0,-278.7313461303711,,1,0,0.0,0.0,0.0,0.0,0.0,0.0,0.0,0.0,0.0,0.0,0.0,0.0,0.0,0.0,0.0,0.0,0.0,0.0,0.0,0.0,0.0,0.0,0.0,0.0,0.0,0.0,0.0,0.0,0.0,0.0,0.0,0.0,0.0,0.0,0.0,0.0,0.0,0.0,0.0,0.0,0.0,0.0,0.0,0.0,0.0,0.0,0.0,0.0,0.0,0.0,0.0,0.0,0.0,0.0,0.0,0.0,0.0,0.0,0.0,0.0,0.0,0.0,0.0,0.0,0.0,0.0,0.0,0.0,0.0,0.0,0.0,0.0,0.0,0.0,0.0,0.0,0.0,0.0,0.0,0.0,0.0,0.0,0.0,0.0,0.0,0.0,0.0,1.0,5.0292,8.1778,-1.3877,0.1831,-0.4272,-0.1221,99.6405,-31.2231,-159.906,0.2993,0.6943,-0.6477,-0.0941,0.0,0.0,0.0,0.0,0.0,0.0,0.0,0.0,0.0,0.0,0.0,0.0,1.0,0.0,0.0,0.0,0.0,0.0,0.0,0.0,0.0,0.0,0.0,0.0,0.0,1.0,0.0,0.0,0.0,0.0,0.0,0.0,0.0,0.0,0.0,0.0,0.0,0.0,1.0,0.0,0.0,0.0,0.0,0.0,0.0,0.0,0.0,0.0,0.0,0.0,0.0,1.0,0.0,0.0,0.0,0.0,0.0,0.0,0.0,0.0,0.0,0.0,0.0,0.0,1.0,0,0,0,0,0,0,0,0,0,0,0,0,0,0,0,0,0,0,0,0,0,0,0,0,0,0,0,0,0,0,0,0,0,0,0,0
1777290949.4663832,9932,1777290943.5379288,1777290943.813663,,1,80,-275.73418617248535,,1,0,0.0,0.0,0.0,0.0,0.0,0.0,0.0,0.0,0.0,0.0,0.0,0.0,0.0,0.0,0.0,0.0,0.0,0.0,0.0,0.0,0.0,0.0,0.0,0.0,0.0,0.0,0.0,0.0,0.0,0.0,0.0,0.0,0.0,0.0,0.0,0.0,0.0,0.0,0.0,0.0,0.0,0.0,0.0,0.0,0.0,0.0,0.0,0.0,0.0,0.0,0.0,0.0,0.0,0.0,0.0,0.0,0.0,0.0,0.0,0.0,0.0,0.0,0.0,0.0,0.0,0.0,0.0,0.0,0.0,0.0,0.0,0.0,0.0,0.0,0.0,0.0,0.0,0.0,0.0,0.0,0.0,0.0,0.0,0.0,0.0,0.0,0.0,1.0,5.0292,8.1778,-1.3877,0.1831,-0.4272,-0.1221,99.6405,-31.2231,-159.906,0.2993,0.6943,-0.6477,-0.0941,0.0,0.0,0.0,0.0,0.0,0.0,0.0,0.0,0.0,0.0,0.0,0.0,1.0,0.0,0.0,0.0,0.0,0.0,0.0,0.0,0.0,0.0,0.0,0.0,0.0,1.0,0.0,0.0,0.0,0.0,0.0,0.0,0.0,0.0,0.0,0.0,0.0,0.0,1.0,0.0,0.0,0.0,0.0,0.0,0.0,0.0,0.0,0.0,0.0,0.0,0.0,1.0,0.0,0.0,0.0,0.0,0.0,0.0,0.0,0.0,0.0,0.0,0.0,0.0,1.0,0,0,0,0,0,0,0,0,0,0,0,0,0,0,0,0,0,0,0,0,0,0,0,0,0,0,0,0,0,0,0,0,0,0,0,0
1777290949.4663832,9933,1777290943.547931,1777290943.813663,,0,0,-265.7320499420166,,1,0,0.0,0.0,0.0,0.0,0.0,0.0,0.0,0.0,0.0,0.0,0.0,0.0,0.0,0.0,0.0,0.0,0.0,0.0,0.0,0.0,0.0,0.0,0.0,0.0,0.0,0.0,0.0,701.8696899414062,571.173583984375,1104.295654296875,954.0809326171875,579.6980590820312,1110.117919921875,739.9398193359375,390.8973693847656,1141.23095703125,900.3695678710938,376.0270690917969,1141.5411376953125,647.2843627929688,453.6650390625,846.5140991210938,700.2338256835938,437.29705810546875,589.5527954101562,690.1429443359375,356.7464599609375,432.66326904296875,717.9410400390625,303.5538635253906,243.02418518066406,777.0,196.35873413085938,166.75115966796875,744.26708984375,464.130859375,178.81661987304688,1025.323486328125,564.80419921875,806.8797607421875,973.066650390625,596.1366577148438,572.8330078125,986.3754272460938,622.3245849609375,437.90167236328125,945.075927734375,685.4088745117188,228.74879455566406,868.4197998046875,648.6613159179688,151.08738708496094,952.3419799804688,886.5953979492188,236.731201171875,0.0,0.0,0.0,0.0,0.0,0.0,0.0,0.0,0.0,0.0,0.0,0.0,1.0,5.0292,8.1778,-1.3877,0.1831,-0.4272,-0.1221,99.6405,-31.2231,-159.906,0.2993,0.6943,-0.6477,-0.0941,0.0,0.0,0.0,0.0,0.0,0.0,0.0,0.0,0.0,0.0,0.0,0.0,1.0,0.0,0.0,0.0,0.0,0.0,0.0,0.0,0.0,0.0,0.0,0.0,0.0,1.0,0.0,0.0,0.0,0.0,0.0,0.0,0.0,0.0,0.0,0.0,0.0,0.0,1.0,0.0,0.0,0.0,0.0,0.0,0.0,0.0,0.0,0.0,0.0,0.0,0.0,1.0,0.0,0.0,0.0,0.0,0.0,0.0,0.0,0.0,0.0,0.0,0.0,0.0,1.0,0,0,0,0,0,0,0,0,0,0,0,0,0,0,0,0,0,0,0,0,0,0,0,0,0,0,0,0,0,0,0,0,0,0,0,0
1777290949.4663832,9934,1777290943.5532866,1777290943.813663,,0,0,-260.3764533996582,,1,0,0.0,0.0,0.0,0.0,0.0,0.0,0.0,0.0,0.0,0.0,0.0,0.0,0.0,0.0,0.0,0.0,0.0,0.0,0.0,0.0,0.0,0.0,0.0,0.0,0.0,0.0,0.0,703.1187133789062,572.68310546875,1103.1968994140625,955.38134765625,580.926025390625,1108.768798828125,741.0303955078125,392.3550720214844,1139.8909912109375,901.4500732421875,377.3328857421875,1140.2398681640625,647.5397338867188,454.3453369140625,845.8797607421875,701.0051879882812,434.51348876953125,589.2464599609375,690.8258666992188,351.9248352050781,433.2705078125,718.4730834960938,296.637939453125,243.92713928222656,777.413818359375,188.87100219726562,167.5510711669922,744.4530639648438,456.6763610839844,178.66749572753906,1025.8350830078125,565.5213012695312,804.8053588867188,972.6483154296875,596.5230712890625,570.9853515625,985.8247680664062,624.1649780273438,436.31884765625,944.47802734375,688.4837036132812,227.77915954589844,869.5899658203125,649.5660400390625,151.44508361816406,946.1492919921875,890.3741455078125,235.63343811035156,0.0,0.0,0.0,0.0,0.0,0.0,0.0,0.0,0.0,0.0,0.0,0.0,1.0,5.0292,8.1778,-1.3877,0.1831,-0.4272,-0.1221,99.6405,-31.2231,-159.906,0.2993,0.6943,-0.6477,-0.0941,0.0,0.0,0.0,0.0,0.0,0.0,0.0,0.0,0.0,0.0,0.0,0.0,1.0,0.0,0.0,0.0,0.0,0.0,0.0,0.0,0.0,0.0,0.0,0.0,0.0,1.0,0.0,0.0,0.0,0.0,0.0,0.0,0.0,0.0,0.0,0.0,0.0,0.0,1.0,0.0,0.0,0.0,0.0,0.0,0.0,0.0,0.0,0.0,0.0,0.0,0.0,1.0,0.0,0.0,0.0,0.0,0.0,0.0,0.0,0.0,0.0,0.0,0.0,0.0,1.0,0,0,0,0,0,0,0,0,0,0,0,0,0,0,0,0,0,0,0,0,0,0,0,0,0,0,0,0,0,0,0,0,0,0,0,0
1777290949.4663832,9935,1777290943.5647957,1777290943.813663,,0,0,-248.86727333068848,,1,0,0.0,0.0,0.0,0.0,0.0,0.0,0.0,0.0,0.0,0.0,0.0,0.0,0.0,0.0,0.0,0.0,0.0,0.0,0.0,0.0,0.0,0.0,0.0,0.0,0.0,0.0,0.0,704.4691772460938,574.3714599609375,1102.1719970703125,956.78271484375,582.277587890625,1107.4891357421875,742.1533203125,393.9627380371094,1138.5670166015625,902.564453125,378.75701904296875,1138.97802734375,647.8192749023438,455.3277587890625,845.2412719726562,701.8304443359375,432.104736328125,588.9409790039062,691.4917602539062,347.3238525390625,433.97222900390625,718.950439453125,289.8011169433594,244.9808349609375,777.79541015625,181.4420928955078,168.6068115234375,744.608642578125,449.2521667480469,178.50038146972656,1026.22802734375,566.6046752929688,802.9561157226562,972.317138671875,597.194091796875,569.333740234375,985.254638671875,625.5436401367188,434.8506774902344,943.7785034179688,689.8006591796875,226.74603271484375,870.4815063476562,648.2324829101562,152.12905883789062,940.2911987304688,892.14501953125,232.732177734375,0.0,0.0,0.0,0.0,0.0,0.0,0.0,0.0,0.0,0.0,0.0,0.0,1.0,5.0292,8.1778,-1.3877,0.1831,-0.4272,-0.1221,99.6405,-31.2231,-159.906,0.2993,0.6943,-0.6477,-0.0941,0.0,0.0,0.0,0.0,0.0,0.0,0.0,0.0,0.0,0.0,0.0,0.0,1.0,0.0,0.0,0.0,0.0,0.0,0.0,0.0,0.0,0.0,0.0,0.0,0.0,1.0,0.0,0.0,0.0,0.0,0.0,0.0,0.0,0.0,0.0,0.0,0.0,0.0,1.0,0.0,0.0,0.0,0.0,0.0,0.0,0.0,0.0,0.0,0.0,0.0,0.0,1.0,0.0,0.0,0.0,0.0,0.0,0.0,0.0,0.0,0.0,0.0,0.0,0.0,1.0,0,0,0,0,0,0,0,0,0,0,0,0,0,0,0,0,0,0,0,0,0,0,0,0,0,0,0,0,0,0,0,0,0,0,0,0
1777290949.4663832,9936,1777290943.5744631,1777290943.813663,,0,0,-239.19987678527832,,1,0,0.0,0.0,0.0,0.0,0.0,0.0,0.0,0.0,0.0,0.0,0.0,0.0,0.0,0.0,0.0,0.0,0.0,0.0,0.0,0.0,0.0,0.0,0.0,0.0,0.0,0.0,0.0,705.9168701171875,576.221435546875,1101.233642578125,958.2792358398438,583.7457885742188,1106.2989501953125,743.3075561523438,395.7051696777344,1137.279541015625,903.71240234375,380.2889709472656,1137.7767333984375,648.14599609375,456.6031494140625,844.59716796875,702.7119140625,430.1451721191406,588.6238403320312,692.1362915039062,343.0032043457031,434.7758483886719,719.3570556640625,283.0670471191406,246.20953369140625,778.1178588867188,174.08065795898438,169.97608947753906,744.7356567382812,441.852294921875,178.31788635253906,1026.502197265625,568.0279541015625,801.356201171875,972.0838012695312,598.1205444335938,567.8877563476562,984.6987915039062,626.4933471679688,433.4969787597656,943.04638671875,689.5436401367188,225.64175415039062,871.1466674804688,645.0016479492188,153.0726776123047,935.0282592773438,892.1137084960938,228.24761962890625,0.0,0.0,0.0,0.0,0.0,0.0,0.0,0.0,0.0,0.0,0.0,0.0,1.0,5.0292,8.1778,-1.3877,0.1831,-0.4272,-0.1221,99.6405,-31.2231,-159.906,0.2993,0.6943,-0.6477,-0.0941,0.0,0.0,0.0,0.0,0.0,0.0,0.0,0.0,0.0,0.0,0.0,0.0,1.0,0.0,0.0,0.0,0.0,0.0,0.0,0.0,0.0,0.0,0.0,0.0,0.0,1.0,0.0,0.0,0.0,0.0,0.0,0.0,0.0,0.0,0.0,0.0,0.0,0.0,1.0,0.0,0.0,0.0,0.0,0.0,0.0,0.0,0.0,0.0,0.0,0.0,0.0,1.0,0.0,0.0,0.0,0.0,0.0,0.0,0.0,0.0,0.0,0.0,0.0,0.0,1.0,0,0,0,0,0,0,0,0,0,0,0,0,0,0,0,0,0,0,0,0,0,0,0,0,0,0,0,0,0,0,0,0,0,0,0,0
1777290949.4663832,9937,1777290943.5829513,1777290943.813663,,0,0,-230.7116985321045,,1,0,0.0,0.0,0.0,0.0,0.0,0.0,0.0,0.0,0.0,0.0,0.0,0.0,0.0,0.0,0.0,0.0,0.0,0.0,0.0,0.0,0.0,0.0,0.0,0.0,0.0,0.0,0.0,707.4558715820312,578.2111206054688,1100.39453125,959.8628540039062,585.322265625,1105.21826171875,744.4927368164062,397.5636291503906,1136.0487060546875,904.8944091796875,381.916748046875,1136.656494140625,648.5447998046875,458.1584777832031,843.9475708007812,703.6475830078125,428.7107849121094,588.2838134765625,692.7554931640625,339.0284118652344,435.6922607421875,719.68017578125,276.4683532714844,247.64013671875,778.3602905273438,166.7941436767578,171.7074432373047,744.8387451171875,434.47027587890625,178.1273193359375,1026.664794921875,569.749755859375,800.0214233398438,971.958740234375,599.2642822265625,566.6573486328125,984.1990356445312,627.0632934570312,432.2692565917969,942.3500366210938,687.939208984375,224.48739624023438,871.6423950195312,640.2713012695312,154.2120361328125,930.5756225585938,890.5228271484375,222.5382537841797,0.0,0.0,0.0,0.0,0.0,0.0,0.0,0.0,0.0,0.0,0.0,0.0,1.0,5.0292,8.1778,-1.3877,0.1831,-0.4272,-0.1221,99.6405,-31.2231,-159.906,0.2993,0.6943,-0.6477,-0.0941,0.0,0.0,0.0,0.0,0.0,0.0,0.0,0.0,0.0,0.0,0.0,0.0,1.0,0.0,0.0,0.0,0.0,0.0,0.0,0.0,0.0,0.0,0.0,0.0,0.0,1.0,0.0,0.0,0.0,0.0,0.0,0.0,0.0,0.0,0.0,0.0,0.0,0.0,1.0,0.0,0.0,0.0,0.0,0.0,0.0,0.0,0.0,0.0,0.0,0.0,0.0,1.0,0.0,0.0,0.0,0.0,0.0,0.0,0.0,0.0,0.0,0.0,0.0,0.0,1.0,0,0,0,0,0,0,0,0,0,0,0,0,0,0,0,0,0,0,0,0,0,0,0,0,0,0,0,0,0,0,0,0,0,0,0,0
1777290949.4663832,9938,1777290943.5849812,1777290943.813663,,0,0,-228.6818027496338,,1,0,0.0,0.0,0.0,0.0,0.0,0.0,0.0,0.0,0.0,0.0,0.0,0.0,0.0,0.0,0.0,0.0,0.0,0.0,0.0,0.0,0.0,0.0,0.0,0.0,0.0,0.0,0.0,709.0784912109375,580.314208984375,1099.666748046875,961.5234375,586.9969482421875,1104.2667236328125,745.7095336914062,399.51593017578125,1134.89501953125,906.1116333007812,383.62664794921875,1135.636962890625,649.0408935546875,459.97747802734375,843.2950439453125,704.629638671875,427.8768310546875,587.9119873046875,693.345458984375,335.4697265625,436.73626708984375,719.9110717773438,270.0483703613281,249.30239868164062,778.5139770507812,159.58982849121094,173.83648681640625,744.9246826171875,427.1007385253906,177.94041442871094,1026.73095703125,571.7158813476562,798.9598999023438,971.9512329101562,600.5800170898438,565.6521606445312,983.8016967773438,627.31396484375,431.1878356933594,941.7489624023438,685.2348022460938,223.32400512695312,872.0233154296875,634.4479370117188,155.4835205078125,927.0692749023438,887.6272583007812,216.05543518066406,0.0,0.0,0.0,0.0,0.0,0.0,0.0,0.0,0.0,0.0,0.0,0.0,1.0,5.0292,8.1778,-1.3877,0.1831,-0.4272,-0.1221,99.6405,-31.2231,-159.906,0.2993,0.6943,-0.6477,-0.0941,0.0,0.0,0.0,0.0,0.0,0.0,0.0,0.0,0.0,0.0,0.0,0.0,1.0,0.0,0.0,0.0,0.0,0.0,0.0,0.0,0.0,0.0,0.0,0.0,0.0,1.0,0.0,0.0,0.0,0.0,0.0,0.0,0.0,0.0,0.0,0.0,0.0,0.0,1.0,0.0,0.0,0.0,0.0,0.0,0.0,0.0,0.0,0.0,0.0,0.0,0.0,1.0,0.0,0.0,0.0,0.0,0.0,0.0,0.0,0.0,0.0,0.0,0.0,0.0,1.0,0,0,0,0,0,0,0,0,0,0,0,0,0,0,0,0,0,0,0,0,0,0,0,0,0,0,0,0,0,0,0,0,0,0,0,0
1777290949.4670463,9939,1777290943.6007369,1777290943.813663,,0,0,-212.92614936828613,,1,0,0.0,0.0,0.0,0.0,0.0,0.0,0.0,0.0,0.0,0.0,0.0,0.0,0.0,0.0,0.0,0.0,0.0,0.0,0.0,0.0,0.0,0.0,0.0,0.0,0.0,0.0,0.0,710.775146484375,582.5004272460938,1099.062255859375,963.2490234375,588.7578735351562,1103.4632568359375,746.9591064453125,401.5368347167969,1133.837646484375,907.3659057617188,385.4036560058594,1134.735595703125,649.6585083007812,462.04150390625,842.6444702148438,705.6436767578125,427.715087890625,587.5028076171875,693.9020385742188,332.4010925292969,437.9269104003906,720.04541015625,263.86212158203125,251.2289581298828,778.5870361328125,152.4774169921875,176.388671875,745.0009765625,419.74169921875,177.7717742919922,1026.722900390625,573.8624877929688,798.1717529296875,972.0680541992188,602.0162353515625,564.8797607421875,983.552734375,627.3087768554688,430.27716064453125,941.2884521484375,681.6740112304688,222.20289611816406,872.3385009765625,627.9008178710938,156.82315063476562,924.5407104492188,883.671142578125,209.2843017578125,0.0,0.0,0.0,0.0,0.0,0.0,0.0,0.0,0.0,0.0,0.0,0.0,1.0,5.0292,8.1778,-1.3877,0.1831,-0.4272,-0.1221,99.6405,-31.2231,-159.906,0.2993,0.6943,-0.6477,-0.0941,0.0,0.0,0.0,0.0,0.0,0.0,0.0,0.0,0.0,0.0,0.0,0.0,1.0,0.0,0.0,0.0,0.0,0.0,0.0,0.0,0.0,0.0,0.0,0.0,0.0,1.0,0.0,0.0,0.0,0.0,0.0,0.0,0.0,0.0,0.0,0.0,0.0,0.0,1.0,0.0,0.0,0.0,0.0,0.0,0.0,0.0,0.0,0.0,0.0,0.0,0.0,1.0,0.0,0.0,0.0,0.0,0.0,0.0,0.0,0.0,0.0,0.0,0.0,0.0,1.0,0,0,0,0,0,0,0,0,0,0,0,0,0,0,0,0,0,0,0,0,0,0,0,0,0,0,0,0,0,0,0,0,0,0,0,0
1777290949.4670463,9940,1777290943.6189697,1777290943.813663,,0,0,-194.69332695007324,,1,0,0.0,0.0,0.0,0.0,0.0,0.0,0.0,0.0,0.0,0.0,0.0,0.0,0.0,0.0,0.0,0.0,0.0,0.0,0.0,0.0,0.0,0.0,0.0,0.0,0.0,0.0,0.0,712.5343627929688,584.7361450195312,1098.591796875,965.02587890625,590.5912475585938,1102.8250732421875,748.2435302734375,403.5984802246094,1132.8941650390625,908.6593017578125,387.2314147949219,1133.968017578125,650.4188232421875,464.3304138183594,842.00341796875,706.6685180664062,428.2909851074219,587.0552368164062,694.4202270507812,329.8987731933594,439.2872009277344,720.0819702148438,257.9774475097656,253.45480346679688,778.6043701171875,145.47415161132812,179.38943481445312,745.0734252929688,412.3970642089844,177.6356658935547,1026.6688232421875,576.1200561523438,797.649658203125,972.3118896484375,603.5162963867188,564.3438720703125,983.4915161132812,627.1053466796875,429.5605163574219,940.99609375,677.4750366210938,221.1761932373047,872.629638671875,620.929443359375,158.16725158691406,922.914794921875,878.87060546875,202.68447875976562,0.0,0.0,0.0,0.0,0.0,0.0,0.0,0.0,0.0,0.0,0.0,0.0,1.0,5.0292,8.1778,-1.3877,0.1831,-0.4272,-0.1221,99.6405,-31.2231,-159.906,0.2993,0.6943,-0.6477,-0.0941,0.0,0.0,0.0,0.0,0.0,0.0,0.0,0.0,0.0,0.0,0.0,0.0,1.0,0.0,0.0,0.0,0.0,0.0,0.0,0.0,0.0,0.0,0.0,0.0,0.0,1.0,0.0,0.0,0.0,0.0,0.0,0.0,0.0,0.0,0.0,0.0,0.0,0.0,1.0,0.0,0.0,0.0,0.0,0.0,0.0,0.0,0.0,0.0,0.0,0.0,0.0,1.0,0.0,0.0,0.0,0.0,0.0,0.0,0.0,0.0,0.0,0.0,0.0,0.0,1.0,0,0,0,0,0,0,0,0,0,0,0,0,0,0,0,0,0,0,0,0,0,0,0,0,0,0,0,0,0,0,0,0,0,0,0,0
1777290949.4670463,9941,1777290943.622091,1777290943.813663,,0,0,-191.5719509124756,,1,0,0.0,0.0,0.0,0.0,0.0,0.0,0.0,0.0,0.0,0.0,0.0,0.0,0.0,0.0,0.0,0.0,0.0,0.0,0.0,0.0,0.0,0.0,0.0,0.0,0.0,0.0,0.0,714.3429565429688,586.9854125976562,1098.2645263671875,966.839111328125,592.481689453125,1102.3671875,749.565185546875,405.67108154296875,1132.080078125,909.9945068359375,389.09271240234375,1133.3465576171875,651.3382568359375,466.8232421875,841.3818969726562,707.6762084960938,429.6608581542969,586.5731201171875,694.8931884765625,328.0399169921875,440.8429870605469,720.0213623046875,252.47479248046875,256.0162353515625,778.6048583984375,138.61178588867188,182.8778839111328,745.1430053710938,405.0791931152344,177.54168701171875,1026.600830078125,578.4168701171875,797.3787841796875,972.6798095703125,605.0186767578125,564.0416259765625,983.64453125,626.74658203125,429.05462646484375,940.880859375,672.81640625,220.28941345214844,872.9288330078125,613.749267578125,159.45474243164062,922.03515625,873.4049682617188,196.64126586914062,0.0,0.0,0.0,0.0,0.0,0.0,0.0,0.0,0.0,0.0,0.0,0.0,1.0,5.0292,8.1778,-1.3877,0.1831,-0.4272,-0.1221,99.6405,-31.2231,-159.906,0.2993,0.6943,-0.6477,-0.0941,0.0,0.0,0.0,0.0,0.0,0.0,0.0,0.0,0.0,0.0,0.0,0.0,1.0,0.0,0.0,0.0,0.0,0.0,0.0,0.0,0.0,0.0,0.0,0.0,0.0,1.0,0.0,0.0,0.0,0.0,0.0,0.0,0.0,0.0,0.0,0.0,0.0,0.0,1.0,0.0,0.0,0.0,0.0,0.0,0.0,0.0,0.0,0.0,0.0,0.0,0.0,1.0,0.0,0.0,0.0,0.0,0.0,0.0,0.0,0.0,0.0,0.0,0.0,0.0,1.0,0,0,0,0,0,0,0,0,0,0,0,0,0,0,0,0,0,0,0,0,0,0,0,0,0,0,0,0,0,0,0,0,0,0,0,0
1777290949.4670463,9942,1777290943.6367908,1777290943.813663,,0,0,-176.87225341796875,,1,0,0.0,0.0,0.0,0.0,0.0,0.0,0.0,0.0,0.0,0.0,0.0,0.0,0.0,0.0,0.0,0.0,0.0,0.0,0.0,0.0,0.0,0.0,0.0,0.0,0.0,0.0,0.0,716.1860961914062,589.2105102539062,1098.087646484375,968.6727905273438,594.4122314453125,1102.100830078125,750.9268188476562,407.7236328125,1131.4075927734375,911.3739624023438,390.9695129394531,1132.88037109375,652.4270629882812,469.4988708496094,840.7919921875,708.6326904296875,431.8691711425781,586.0653686523438,695.3116455078125,326.9007568359375,442.62109375,719.8637084960938,247.4460906982422,258.9494934082031,778.6337890625,131.944580078125,186.9194793701172,745.2034301757812,397.8109130859375,177.49072265625,1026.5540771484375,580.6830444335938,797.3370971679688,973.1630249023438,606.4575805664062,563.9617309570312,984.0199584960938,626.25439453125,428.7653503417969,940.9347534179688,667.83154296875,219.576416015625,873.257080078125,606.4961547851562,160.63209533691406,921.7076416015625,867.4169311523438,191.43153381347656,0.0,0.0,0.0,0.0,0.0,0.0,0.0,0.0,0.0,0.0,0.0,0.0,1.0,5.0292,8.1778,-1.3877,0.1831,-0.4272,-0.1221,99.6405,-31.2231,-159.906,0.2993,0.6943,-0.6477,-0.0941,0.0,0.0,0.0,0.0,0.0,0.0,0.0,0.0,0.0,0.0,0.0,0.0,1.0,0.0,0.0,0.0,0.0,0.0,0.0,0.0,0.0,0.0,0.0,0.0,0.0,1.0,0.0,0.0,0.0,0.0,0.0,0.0,0.0,0.0,0.0,0.0,0.0,0.0,1.0,0.0,0.0,0.0,0.0,0.0,0.0,0.0,0.0,0.0,0.0,0.0,0.0,1.0,0.0,0.0,0.0,0.0,0.0,0.0,0.0,0.0,0.0,0.0,0.0,0.0,1.0,0,0,0,0,0,0,0,0,0,0,0,0,0,0,0,0,0,0,0,0,0,0,0,0,0,0,0,0,0,0,0,0,0,0,0,0
1777290949.4670463,9943,1777290943.6389742,1777290943.813663,,0,0,-174.68881607055664,,1,0,0.0,0.0,0.0,0.0,0.0,0.0,0.0,0.0,0.0,0.0,0.0,0.0,0.0,0.0,0.0,0.0,0.0,0.0,0.0,0.0,0.0,0.0,0.0,0.0,0.0,0.0,0.0,718.0478515625,591.3734130859375,1098.06591796875,970.5106201171875,596.3650512695312,1102.0333251953125,752.331298828125,409.7247009277344,1130.885986328125,912.80029296875,392.8435363769531,1132.5745849609375,653.6876220703125,472.3367004394531,840.247314453125,709.4999389648438,434.9459228515625,585.5462036132812,695.662841796875,326.55426025390625,444.6471862792969,719.6067504882812,242.99185180664062,262.2890319824219,778.7342529296875,125.55729675292969,191.61544799804688,745.2394409179688,390.62640380859375,177.4718475341797,1026.5635986328125,582.8533935546875,797.4955444335938,973.7469482421875,607.763427734375,564.0830078125,984.6051635742188,625.6270141601562,428.6852722167969,941.13671875,662.610595703125,219.05642700195312,873.6235961914062,599.241455078125,161.65928649902344,921.7412719726562,861.0205688476562,187.20570373535156,0.0,0.0,0.0,0.0,0.0,0.0,0.0,0.0,0.0,0.0,0.0,0.0,1.0,5.0292,8.1778,-1.3877,0.1831,-0.4272,-0.1221,99.6405,-31.2231,-159.906,0.2993,0.6943,-0.6477,-0.0941,0.0,0.0,0.0,0.0,0.0,0.0,0.0,0.0,0.0,0.0,0.0,0.0,1.0,0.0,0.0,0.0,0.0,0.0,0.0,0.0,0.0,0.0,0.0,0.0,0.0,1.0,0.0,0.0,0.0,0.0,0.0,0.0,0.0,0.0,0.0,0.0,0.0,0.0,1.0,0.0,0.0,0.0,0.0,0.0,0.0,0.0,0.0,0.0,0.0,0.0,0.0,1.0,0.0,0.0,0.0,0.0,0.0,0.0,0.0,0.0,0.0,0.0,0.0,0.0,1.0,0,0,0,0,0,0,0,0,0,0,0,0,0,0,0,0,0,0,0,0,0,0,0,0,0,0,0,0,0,0,0,0,0,0,0,0
1777290949.4670463,9944,1777290943.655313,1777290943.813663,,0,0,-158.34999084472656,,1,0,0.0,0.0,0.0,0.0,0.0,0.0,0.0,0.0,0.0,0.0,0.0,0.0,0.0,0.0,0.0,0.0,0.0,0.0,0.0,0.0,0.0,0.0,0.0,0.0,0.0,0.0,0.0,719.9115600585938,593.4367065429688,1098.20068359375,972.3362426757812,598.3214111328125,1102.1666259765625,753.7813720703125,411.64349365234375,1130.5206298828125,914.2756958007812,394.6964111328125,1132.4307861328125,655.1138916015625,475.3170166015625,839.7625732421875,710.2376708984375,438.9045715332031,585.03466796875,695.930908203125,327.06689453125,446.943115234375,719.2450561523438,239.21661376953125,266.0657043457031,778.9376831054688,119.57196807861328,197.10618591308594,745.2269897460938,383.5703125,177.46095275878906,1026.6627197265625,584.869873046875,797.819091796875,974.4132080078125,608.864501953125,564.374267578125,985.367919921875,624.83935546875,428.793212890625,941.4566650390625,657.2080688476562,218.73275756835938,874.0274047851562,592.0121459960938,162.51454162597656,921.9738159179688,854.3114013671875,183.9893798828125,0.0,0.0,0.0,0.0,0.0,0.0,0.0,0.0,0.0,0.0,0.0,0.0,1.0,5.0292,8.1778,-1.3877,0.1831,-0.4272,-0.1221,99.6405,-31.2231,-159.906,0.2993,0.6943,-0.6477,-0.0941,0.0,0.0,0.0,0.0,0.0,0.0,0.0,0.0,0.0,0.0,0.0,0.0,1.0,0.0,0.0,0.0,0.0,0.0,0.0,0.0,0.0,0.0,0.0,0.0,0.0,1.0,0.0,0.0,0.0,0.0,0.0,0.0,0.0,0.0,0.0,0.0,0.0,0.0,1.0,0.0,0.0,0.0,0.0,0.0,0.0,0.0,0.0,0.0,0.0,0.0,0.0,1.0,0.0,0.0,0.0,0.0,0.0,0.0,0.0,0.0,0.0,0.0,0.0,0.0,1.0,0,0,0,0,0,0,0,0,0,0,0,0,0,0,0,0,0,0,0,0,0,0,0,0,0,0,0,0,0,0,0,0,0,0,0,0
1777290949.4670463,9945,1777290943.656321,1777290943.813663,,0,0,-157.34195709228516,,1,0,0.0,0.0,0.0,0.0,0.0,0.0,0.0,0.0,0.0,0.0,0.0,0.0,0.0,0.0,0.0,0.0,0.0,0.0,0.0,0.0,0.0,0.0,0.0,0.0,0.0,0.0,0.0,721.76025390625,595.36474609375,1098.4903564453125,974.1337890625,600.2625732421875,1102.4970703125,755.2793579101562,413.45068359375,1130.31298828125,915.8017578125,396.51019287109375,1132.4464111328125,656.6906127929688,478.4215087890625,839.3527221679688,710.806640625,443.7402038574219,584.5541381835938,696.0974731445312,328.49456787109375,449.52459716796875,718.7706909179688,236.22286987304688,270.3044738769531,779.2572021484375,114.152099609375,203.56629943847656,745.1351318359375,376.6957702636719,177.42111206054688,1026.8809814453125,586.6832885742188,798.2678833007812,975.1416015625,609.6898803710938,564.7962036132812,986.2615966796875,623.8475952148438,429.0552978515625,941.8594360351562,651.6517944335938,218.59323120117188,874.4597778320312,584.8092041015625,163.19509887695312,922.2816162109375,847.373291015625,181.70452880859375,0.0,0.0,0.0,0.0,0.0,0.0,0.0,0.0,0.0,0.0,0.0,0.0,1.0,5.0292,8.1778,-1.3877,0.1831,-0.4272,-0.1221,99.6405,-31.2231,-159.906,0.2993,0.6943,-0.6477,-0.0941,0.0,0.0,0.0,0.0,0.0,0.0,0.0,0.0,0.0,0.0,0.0,0.0,1.0,0.0,0.0,0.0,0.0,0.0,0.0,0.0,0.0,0.0,0.0,0.0,0.0,1.0,0.0,0.0,0.0,0.0,0.0,0.0,0.0,0.0,0.0,0.0,0.0,0.0,1.0,0.0,0.0,0.0,0.0,0.0,0.0,0.0,0.0,0.0,0.0,0.0,0.0,1.0,0.0,0.0,0.0,0.0,0.0,0.0,0.0,0.0,0.0,0.0,0.0,0.0,1.0,0,0,0,0,0,0,0,0,0,0,0,0,0,0,0,0,0,0,0,0,0,0,0,0,0,0,0,0,0,0,0,0,0,0,0,0
1777290949.4670463,9946,1777290943.6722925,1777290943.813663,,0,0,-141.3705348968506,,1,0,0.0,0.0,0.0,0.0,0.0,0.0,0.0,0.0,0.0,0.0,0.0,0.0,0.0,0.0,0.0,0.0,0.0,0.0,0.0,0.0,0.0,0.0,0.0,0.0,0.0,0.0,0.0,723.5774536132812,597.1248779296875,1098.92919921875,975.8883056640625,602.1699829101562,1103.0155029296875,756.8270874023438,415.119384765625,1130.2607421875,917.3795166015625,398.2674865722656,1132.61572265625,658.3934936523438,481.63372802734375,839.0328369140625,711.17138671875,449.4286804199219,584.131591796875,696.1436767578125,330.8778381347656,452.39947509765625,718.1756591796875,234.1039581298828,275.0221862792969,779.6837768554688,109.5026626586914,211.1902618408203,744.9298095703125,370.0613708496094,177.30535888671875,1027.2425537109375,588.2537231445312,798.799072265625,975.9125366210938,610.1723022460938,565.3037719726562,987.2324829101562,622.5955810546875,429.42791748046875,942.30810546875,645.952392578125,218.6125946044922,874.9072265625,577.621826171875,163.7143096923828,922.58203125,840.2799682617188,180.2023468017578,0.0,0.0,0.0,0.0,0.0,0.0,0.0,0.0,0.0,0.0,0.0,0.0,1.0,5.0292,8.1778,-1.3877,0.1831,-0.4272,-0.1221,99.6405,-31.2231,-159.906,0.2993,0.6943,-0.6477,-0.0941,0.0,0.0,0.0,0.0,0.0,0.0,0.0,0.0,0.0,0.0,0.0,0.0,1.0,0.0,0.0,0.0,0.0,0.0,0.0,0.0,0.0,0.0,0.0,0.0,0.0,1.0,0.0,0.0,0.0,0.0,0.0,0.0,0.0,0.0,0.0,0.0,0.0,0.0,1.0,0.0,0.0,0.0,0.0,0.0,0.0,0.0,0.0,0.0,0.0,0.0,0.0,1.0,0.0,0.0,0.0,0.0,0.0,0.0,0.0,0.0,0.0,0.0,0.0,0.0,1.0,0,0,0,0,0,0,0,0,0,0,0,0,0,0,0,0,0,0,0,0,0,0,0,0,0,0,0,0,0,0,0,0,0,0,0,0
1777290949.4674556,9947,1777290943.6742992,1777290943.813663,,0,0,-139.36376571655273,,1,0,0.0,0.0,0.0,0.0,0.0,0.0,0.0,0.0,0.0,0.0,0.0,0.0,0.0,0.0,0.0,0.0,0.0,0.0,0.0,0.0,0.0,0.0,0.0,0.0,0.0,0.0,0.0,725.3475341796875,598.6885375976562,1099.508544921875,977.586181640625,604.025634765625,1103.706787109375,758.4252319335938,416.6258239746094,1130.3580322265625,919.0088500976562,399.95184326171875,1132.9293212890625,660.189697265625,484.9394226074219,838.8174438476562,711.3037719726562,455.9263916015625,583.7969970703125,696.0525512695312,334.2367858886719,455.5665588378906,717.456298828125,232.93670654296875,280.2251281738281,780.186767578125,105.8642807006836,220.16995239257812,744.578857421875,363.7279052734375,177.0625762939453,1027.7646484375,589.5506591796875,799.3694458007812,976.7088012695312,610.2526245117188,565.8499145507812,988.2281494140625,621.0234985351562,429.86187744140625,942.7667846679688,640.1101684570312,218.75624084472656,875.3539428710938,570.4364013671875,164.09579467773438,922.8294677734375,833.093017578125,179.29957580566406,0.0,0.0,0.0,0.0,0.0,0.0,0.0,0.0,0.0,0.0,0.0,0.0,1.0,5.0292,8.1778,-1.3877,0.1831,-0.4272,-0.1221,99.6405,-31.2231,-159.906,0.2993,0.6943,-0.6477,-0.0941,0.0,0.0,0.0,0.0,0.0,0.0,0.0,0.0,0.0,0.0,0.0,0.0,1.0,0.0,0.0,0.0,0.0,0.0,0.0,0.0,0.0,0.0,0.0,0.0,0.0,1.0,0.0,0.0,0.0,0.0,0.0,0.0,0.0,0.0,0.0,0.0,0.0,0.0,1.0,0.0,0.0,0.0,0.0,0.0,0.0,0.0,0.0,0.0,0.0,0.0,0.0,1.0,0.0,0.0,0.0,0.0,0.0,0.0,0.0,0.0,0.0,0.0,0.0,0.0,1.0,0,0,0,0,0,0,0,0,0,0,0,0,0,0,0,0,0,0,0,0,0,0,0,0,0,0,0,0,0,0,0,0,0,0,0,0
1777290949.4674556,9948,1777290943.6887317,1777290943.813663,,0,0,-124.93133544921875,,1,0,0.0,0.0,0.0,0.0,0.0,0.0,0.0,0.0,0.0,0.0,0.0,0.0,0.0,0.0,0.0,0.0,0.0,0.0,0.0,0.0,0.0,0.0,0.0,0.0,0.0,0.0,0.0,727.0565795898438,600.0320434570312,1100.216064453125,979.215576171875,605.8123779296875,1104.55078125,760.0733642578125,417.9501647949219,1130.5960693359375,920.6884155273438,401.5479736328125,1133.375732421875,662.0391845703125,488.3270263671875,838.7205810546875,711.1853637695312,463.17132568359375,583.582275390625,695.8117065429688,338.5666198730469,459.015869140625,716.6173095703125,232.77481079101562,285.9070739746094,780.7188110351562,103.49974060058594,230.665771484375,744.0579223632812,357.75494384765625,176.64698791503906,1028.4571533203125,590.5525512695312,799.9373779296875,977.5166015625,609.8837280273438,566.3897094726562,989.2034301757812,619.0764770507812,430.3074035644531,943.2034301757812,634.12109375,218.9849395751953,875.7847900390625,563.2416381835938,164.36744689941406,923.0082397460938,825.8602905273438,178.81031799316406,0.0,0.0,0.0,0.0,0.0,0.0,0.0,0.0,0.0,0.0,0.0,0.0,1.0,5.0292,8.1778,-1.3877,0.1831,-0.4272,-0.1221,99.6405,-31.2231,-159.906,0.2993,0.6943,-0.6477,-0.0941,0.0,0.0,0.0,0.0,0.0,0.0,0.0,0.0,0.0,0.0,0.0,0.0,1.0,0.0,0.0,0.0,0.0,0.0,0.0,0.0,0.0,0.0,0.0,0.0,0.0,1.0,0.0,0.0,0.0,0.0,0.0,0.0,0.0,0.0,0.0,0.0,0.0,0.0,1.0,0.0,0.0,0.0,0.0,0.0,0.0,0.0,0.0,0.0,0.0,0.0,0.0,1.0,0.0,0.0,0.0,0.0,0.0,0.0,0.0,0.0,0.0,0.0,0.0,0.0,1.0,0,0,0,0,0,0,0,0,0,0,0,0,0,0,0,0,0,0,0,0,0,0,0,0,0,0,0,0,0,0,0,0,0,0,0,0
1777290949.4674556,9949,1777290943.7068243,1777290943.813663,,0,0,-106.83870315551758,,1,0,0.0,0.0,0.0,0.0,0.0,0.0,0.0,0.0,0.0,0.0,0.0,0.0,0.0,0.0,0.0,0.0,0.0,0.0,0.0,0.0,0.0,0.0,0.0,0.0,0.0,0.0,0.0,728.6927490234375,601.1375122070312,1101.0367431640625,980.7667846679688,607.5142211914062,1105.523193359375,761.76953125,419.076904296875,1130.9635009765625,922.4154663085938,403.0418395996094,1133.9412841796875,663.8964233398438,491.78802490234375,838.7560424804688,710.8091430664062,471.0851135253906,583.5208129882812,695.4158325195312,343.8351745605469,462.729248046875,715.6754150390625,233.6437225341797,292.04742431640625,781.2254028320312,102.67166137695312,242.77244567871094,743.355712890625,352.1994323730469,176.03097534179688,1029.32177734375,591.2462768554688,800.4656372070312,978.3257446289062,609.0337524414062,566.8839721679688,990.1249389648438,616.7119140625,430.7195129394531,943.592529296875,627.9810791015625,219.25961303710938,876.1873779296875,556.030517578125,164.55709838867188,923.1227416992188,818.615234375,178.5691375732422,0.0,0.0,0.0,0.0,0.0,0.0,0.0,0.0,0.0,0.0,0.0,0.0,1.0,5.0292,8.1778,-1.3877,0.1831,-0.4272,-0.1221,99.6405,-31.2231,-159.906,0.2993,0.6943,-0.6477,-0.0941,0.0,0.0,0.0,0.0,0.0,0.0,0.0,0.0,0.0,0.0,0.0,0.0,1.0,0.0,0.0,0.0,0.0,0.0,0.0,0.0,0.0,0.0,0.0,0.0,0.0,1.0,0.0,0.0,0.0,0.0,0.0,0.0,0.0,0.0,0.0,0.0,0.0,0.0,1.0,0.0,0.0,0.0,0.0,0.0,0.0,0.0,0.0,0.0,0.0,0.0,0.0,1.0,0.0,0.0,0.0,0.0,0.0,0.0,0.0,0.0,0.0,0.0,0.0,0.0,1.0,0,0,0,0,0,0,0,0,0,0,0,0,0,0,0,0,0,0,0,0,0,0,0,0,0,0,0,0,0,0,0,0,0,0,0,0
1777290949.4674556,9950,1777290943.709328,1777290943.813663,,0,0,-104.33506965637207,,1,0,0.0,0.0,0.0,0.0,0.0,0.0,0.0,0.0,0.0,0.0,0.0,0.0,0.0,0.0,0.0,0.0,0.0,0.0,0.0,0.0,0.0,0.0,0.0,0.0,0.0,0.0,0.0,730.2468872070312,601.9932861328125,1101.9537353515625,982.2324829101562,609.1162719726562,1106.59716796875,763.5101318359375,419.9951477050781,1131.4471435546875,924.1856079101562,404.4209289550781,1134.61083984375,665.71240234375,495.31719970703125,838.93701171875,710.1803588867188,479.57611083984375,583.64599609375,694.86865234375,349.9827575683594,466.6818542480469,714.6614379882812,235.53829956054688,298.6092529296875,781.6585693359375,103.6117172241211,256.48284912109375,742.4778442382812,347.117431640625,175.21949768066406,1030.3514404296875,591.6265869140625,800.923095703125,979.1292724609375,607.6886596679688,567.3020629882812,990.9719848632812,613.9052124023438,431.06219482421875,943.9166259765625,621.6893310546875,219.5456085205078,876.5535278320312,548.8001098632812,164.68992614746094,923.189208984375,811.3775024414062,178.44496154785156,0.0,0.0,0.0,0.0,0.0,0.0,0.0,0.0,0.0,0.0,0.0,0.0,1.0,5.0292,8.1778,-1.3877,0.1831,-0.4272,-0.1221,99.6405,-31.2231,-159.906,0.2993,0.6943,-0.6477,-0.0941,0.0,0.0,0.0,0.0,0.0,0.0,0.0,0.0,0.0,0.0,0.0,0.0,1.0,0.0,0.0,0.0,0.0,0.0,0.0,0.0,0.0,0.0,0.0,0.0,0.0,1.0,0.0,0.0,0.0,0.0,0.0,0.0,0.0,0.0,0.0,0.0,0.0,0.0,1.0,0.0,0.0,0.0,0.0,0.0,0.0,0.0,0.0,0.0,0.0,0.0,0.0,1.0,0.0,0.0,0.0,0.0,0.0,0.0,0.0,0.0,0.0,0.0,0.0,0.0,1.0,0,0,0,0,0,0,0,0,0,0,0,0,0,0,0,0,0,0,0,0,0,0,0,0,0,0,0,0,0,0,0,0,0,0,0,0
1777290949.4674556,9951,1777290943.723965,1777290943.813663,,0,0,-89.69807624816895,,1,0,0.0,0.0,0.0,0.0,0.0,0.0,0.0,0.0,0.0,0.0,0.0,0.0,0.0,0.0,0.0,0.0,0.0,0.0,0.0,0.0,0.0,0.0,0.0,0.0,0.0,0.0,0.0,731.7128295898438,602.594482421875,1102.9490966796875,983.6080932617188,610.6046142578125,1107.7442626953125,765.289794921875,420.69879150390625,1132.032958984375,925.992919921875,405.6742858886719,1135.3690185546875,667.4376831054688,498.9122314453125,839.2767944335938,709.3157958984375,488.5433349609375,583.9901733398438,694.1837768554688,356.9244689941406,470.8435363769531,713.6189575195312,238.42384338378906,305.5375061035156,781.9906616210938,106.4848403930664,271.6558837890625,741.4465942382812,342.5712890625,174.26217651367188,1031.5311279296875,591.6954956054688,801.28662109375,979.9223022460938,605.8533325195312,567.6238403320312,991.7354736328125,610.6527709960938,431.3113708496094,944.1669311523438,615.2500610351562,219.8159637451172,876.8796997070312,541.550537109375,164.7870635986328,923.2279052734375,804.1549072265625,178.34649658203125,0.0,0.0,0.0,0.0,0.0,0.0,0.0,0.0,0.0,0.0,0.0,0.0,1.0,5.0292,8.1778,-1.3877,0.1831,-0.4272,-0.1221,99.6405,-31.2231,-159.906,0.2993,0.6943,-0.6477,-0.0941,0.0,0.0,0.0,0.0,0.0,0.0,0.0,0.0,0.0,0.0,0.0,0.0,1.0,0.0,0.0,0.0,0.0,0.0,0.0,0.0,0.0,0.0,0.0,0.0,0.0,1.0,0.0,0.0,0.0,0.0,0.0,0.0,0.0,0.0,0.0,0.0,0.0,0.0,1.0,0.0,0.0,0.0,0.0,0.0,0.0,0.0,0.0,0.0,0.0,0.0,0.0,1.0,0.0,0.0,0.0,0.0,0.0,0.0,0.0,0.0,0.0,0.0,0.0,0.0,1.0,0,0,0,0,0,0,0,0,0,0,0,0,0,0,0,0,0,0,0,0,0,0,0,0,0,0,0,0,0,0,0,0,0,0,0,0
1777290949.4674556,9952,1777290943.7267625,1777290943.813663,,0,0,-86.90047264099121,,1,0,0.0,0.0,0.0,0.0,0.0,0.0,0.0,0.0,0.0,0.0,0.0,0.0,0.0,0.0,0.0,0.0,0.0,0.0,0.0,0.0,0.0,0.0,0.0,0.0,0.0,0.0,0.0,733.087646484375,602.9425659179688,1104.004638671875,984.891845703125,611.9667358398438,1108.936767578125,767.1012573242188,421.18634033203125,1132.70703125,927.829833984375,406.79266357421875,1136.2000732421875,669.0250244140625,502.5731506347656,839.788330078125,708.2420654296875,497.88067626953125,584.583251953125,693.3841552734375,364.5551452636719,475.1797180175781,712.6014404296875,242.24075317382812,312.75738525390625,782.2241821289062,111.35464477539062,287.9966125488281,740.2958984375,338.6435852050781,173.2591094970703,1032.837890625,591.462158203125,801.5419921875,980.7012939453125,603.5505981445312,567.8401489257812,992.415283203125,606.9723510742188,431.4561767578125,944.3428955078125,608.6729125976562,220.0533447265625,877.166259765625,534.283203125,164.86509704589844,923.2578735351562,796.9456176757812,178.22085571289062,0.0,0.0,0.0,0.0,0.0,0.0,0.0,0.0,0.0,0.0,0.0,0.0,1.0,5.0292,8.1778,-1.3877,0.1831,-0.4272,-0.1221,99.6405,-31.2231,-159.906,0.2993,0.6943,-0.6477,-0.0941,0.0,0.0,0.0,0.0,0.0,0.0,0.0,0.0,0.0,0.0,0.0,0.0,1.0,0.0,0.0,0.0,0.0,0.0,0.0,0.0,0.0,0.0,0.0,0.0,0.0,1.0,0.0,0.0,0.0,0.0,0.0,0.0,0.0,0.0,0.0,0.0,0.0,0.0,1.0,0.0,0.0,0.0,0.0,0.0,0.0,0.0,0.0,0.0,0.0,0.0,0.0,1.0,0.0,0.0,0.0,0.0,0.0,0.0,0.0,0.0,0.0,0.0,0.0,0.0,1.0,0,0,0,0,0,0,0,0,0,0,0,0,0,0,0,0,0,0,0,0,0,0,0,0,0,0,0,0,0,0,0,0,0,0,0,0
1777290949.4674556,9953,1777290943.7418692,1777290943.813663,,0,0,-71.79379463195801,,1,0,0.0,0.0,0.0,0.0,0.0,0.0,0.0,0.0,0.0,0.0,0.0,0.0,0.0,0.0,0.0,0.0,0.0,0.0,0.0,0.0,0.0,0.0,0.0,0.0,0.0,0.0,0.0,734.3717651367188,603.0454711914062,1105.1029052734375,986.0850830078125,613.1912231445312,1110.1483154296875,768.935791015625,421.4606018066406,1133.4556884765625,929.6871948242188,407.76861572265625,1137.0885009765625,670.4323120117188,506.3005065917969,840.484375,706.9933471679688,507.4809875488281,585.4510498046875,692.5003051757812,372.7555847167969,479.6517333984375,711.6663208007812,246.91163635253906,320.173583984375,782.3939819335938,118.1558837890625,305.055419921875,739.0618286132812,335.45355224609375,172.3582000732422,1034.2425537109375,590.9420166015625,801.6843872070312,981.4630126953125,600.8192138671875,567.9522705078125,993.017333984375,602.9004516601562,431.49822998046875,944.4507446289062,601.9718017578125,220.2504119873047,877.41650390625,526.99951171875,164.93641662597656,923.2935180664062,789.7415161132812,178.0471954345703,0.0,0.0,0.0,0.0,0.0,0.0,0.0,0.0,0.0,0.0,0.0,0.0,1.0,5.0292,8.1778,-1.3877,0.1831,-0.4272,-0.1221,99.6405,-31.2231,-159.906,0.2993,0.6943,-0.6477,-0.0941,0.0,0.0,0.0,0.0,0.0,0.0,0.0,0.0,0.0,0.0,0.0,0.0,1.0,0.0,0.0,0.0,0.0,0.0,0.0,0.0,0.0,0.0,0.0,0.0,0.0,1.0,0.0,0.0,0.0,0.0,0.0,0.0,0.0,0.0,0.0,0.0,0.0,0.0,1.0,0.0,0.0,0.0,0.0,0.0,0.0,0.0,0.0,0.0,0.0,0.0,0.0,1.0,0.0,0.0,0.0,0.0,0.0,0.0,0.0,0.0,0.0,0.0,0.0,0.0,1.0,0,0,0,0,0,0,0,0,0,0,0,0,0,0,0,0,0,0,0,0,0,0,0,0,0,0,0,0,0,0,0,0,0,0,0,0
1777290949.4674556,9954,1777290943.744373,1777290943.813663,,0,0,-69.2899227142334,,1,0,0.0,0.0,0.0,0.0,0.0,0.0,0.0,0.0,0.0,0.0,0.0,0.0,0.0,0.0,0.0,0.0,0.0,0.0,0.0,0.0,0.0,0.0,0.0,0.0,0.0,0.0,0.0,735.5687255859375,602.9163208007812,1106.228515625,987.1917724609375,614.2677001953125,1111.3558349609375,770.782958984375,421.5282897949219,1134.2664794921875,931.5546875,408.5965576171875,1138.0198974609375,671.6259155273438,510.0933532714844,841.3765869140625,705.60888671875,517.239990234375,586.6136474609375,691.56787109375,381.3997802734375,484.21612548828125,710.8685913085938,252.34991455078125,327.6698913574219,782.5650634765625,126.67839813232422,322.2464599609375,737.7721557617188,333.1705017089844,171.7438201904297,1035.7109375,590.156494140625,801.7181396484375,982.2041015625,597.709716796875,567.9702758789062,993.5509643554688,598.4879150390625,431.4499206542969,944.5018310546875,595.1631469726562,220.4087677001953,877.635498046875,519.6997680664062,165.0095672607422,923.3439331054688,782.530517578125,177.82791137695312,0.0,0.0,0.0,0.0,0.0,0.0,0.0,0.0,0.0,0.0,0.0,0.0,1.0,5.0292,8.1778,-1.3877,0.1831,-0.4272,-0.1221,99.6405,-31.2231,-159.906,0.2993,0.6943,-0.6477,-0.0941,0.0,0.0,0.0,0.0,0.0,0.0,0.0,0.0,0.0,0.0,0.0,0.0,1.0,0.0,0.0,0.0,0.0,0.0,0.0,0.0,0.0,0.0,0.0,0.0,0.0,1.0,0.0,0.0,0.0,0.0,0.0,0.0,0.0,0.0,0.0,0.0,0.0,0.0,1.0,0.0,0.0,0.0,0.0,0.0,0.0,0.0,0.0,0.0,0.0,0.0,0.0,1.0,0.0,0.0,0.0,0.0,0.0,0.0,0.0,0.0,0.0,0.0,0.0,0.0,1.0,0,0,0,0,0,0,0,0,0,0,0,0,0,0,0,0,0,0,0,0,0,0,0,0,0,0,0,0,0,0,0,0,0,0,0,0
1777290949.4680185,9955,1777290943.761909,1777290943.813663,,0,0,-51.753997802734375,,1,0,0.0,0.0,0.0,0.0,0.0,0.0,0.0,0.0,0.0,0.0,0.0,0.0,0.0,0.0,0.0,0.0,0.0,0.0,0.0,0.0,0.0,0.0,0.0,0.0,0.0,0.0,0.0,736.684814453125,602.5728759765625,1107.3677978515625,988.2185668945312,615.1873168945312,1112.5399169921875,772.63134765625,421.3993225097656,1135.12841796875,933.4208984375,409.2727355957031,1138.98095703125,672.5830078125,513.9459838867188,842.4747314453125,704.1302490234375,527.0587158203125,588.083984375,690.6246337890625,390.36224365234375,488.8238525390625,710.2546997070312,258.4679260253906,335.1109313964844,782.825439453125,136.56777954101562,338.88568115234375,736.4384155273438,332.0184326171875,171.6175994873047,1037.206298828125,589.1316528320312,801.6553344726562,982.921142578125,594.2798461914062,567.9109497070312,994.0269775390625,593.79345703125,431.33154296875,944.5109252929688,588.26416015625,220.53701782226562,877.8290405273438,512.3829345703125,165.0899200439453,923.412841796875,775.2994384765625,177.57913208007812,0.0,0.0,0.0,0.0,0.0,0.0,0.0,0.0,0.0,0.0,0.0,0.0,1.0,5.0292,8.1778,-1.3877,0.1831,-0.4272,-0.1221,99.6405,-31.2231,-159.906,0.2993,0.6943,-0.6477,-0.0941,0.0,0.0,0.0,0.0,0.0,0.0,0.0,0.0,0.0,0.0,0.0,0.0,1.0,0.0,0.0,0.0,0.0,0.0,0.0,0.0,0.0,0.0,0.0,0.0,0.0,1.0,0.0,0.0,0.0,0.0,0.0,0.0,0.0,0.0,0.0,0.0,0.0,0.0,1.0,0.0,0.0,0.0,0.0,0.0,0.0,0.0,0.0,0.0,0.0,0.0,0.0,1.0,0.0,0.0,0.0,0.0,0.0,0.0,0.0,0.0,0.0,0.0,0.0,0.0,1.0,0,0,0,0,0,0,0,0,0,0,0,0,0,0,0,0,0,0,0,0,0,0,0,0,0,0,0,0,0,0,0,0,0,0,0,0
1777290949.4680185,9956,1777290943.7780714,1777290943.813663,,0,0,-35.59160232543945,,1,0,0.0,0.0,0.0,0.0,0.0,0.0,0.0,0.0,0.0,0.0,0.0,0.0,0.0,0.0,0.0,0.0,0.0,0.0,0.0,0.0,0.0,0.0,0.0,0.0,0.0,0.0,0.0,737.7285766601562,602.0363159179688,1108.5101318359375,989.17431640625,615.94287109375,1113.685791015625,774.4686279296875,421.0863037109375,1136.031982421875,935.2738647460938,409.79541015625,1139.9595947265625,673.2943115234375,517.8450927734375,843.7852172851562,702.599365234375,536.8460083007812,589.8665161132812,689.7073974609375,399.5244140625,493.4190979003906,709.85791015625,265.18377685546875,342.3458557128906,783.2749633789062,147.3517303466797,354.2501220703125,735.0526123046875,332.2655029296875,172.17132568359375,1038.6907958984375,587.89697265625,801.5145874023438,983.6101684570312,590.58935546875,567.7955322265625,994.4559936523438,588.8775634765625,431.16815185546875,944.4940185546875,581.291015625,220.64830017089844,878.0027465820312,505.046875,165.18072509765625,923.5001220703125,768.0364990234375,177.3226318359375,0.0,0.0,0.0,0.0,0.0,0.0,0.0,0.0,0.0,0.0,0.0,0.0,1.0,5.0292,8.1778,-1.3877,0.1831,-0.4272,-0.1221,99.6405,-31.2231,-159.906,0.2993,0.6943,-0.6477,-0.0941,0.0,0.0,0.0,0.0,0.0,0.0,0.0,0.0,0.0,0.0,0.0,0.0,1.0,0.0,0.0,0.0,0.0,0.0,0.0,0.0,0.0,0.0,0.0,0.0,0.0,1.0,0.0,0.0,0.0,0.0,0.0,0.0,0.0,0.0,0.0,0.0,0.0,0.0,1.0,0.0,0.0,0.0,0.0,0.0,0.0,0.0,0.0,0.0,0.0,0.0,0.0,1.0,0.0,0.0,0.0,0.0,0.0,0.0,0.0,0.0,0.0,0.0,0.0,0.0,1.0,0,0,0,0,0,0,0,0,0,0,0,0,0,0,0,0,0,0,0,0,0,0,0,0,0,0,0,0,0,0,0,0,0,0,0,0
1777290949.4680185,9957,1777290943.7876692,1777290943.813663,,0,0,-25.993824005126953,,1,0,0.0,0.0,0.0,0.0,0.0,0.0,0.0,0.0,0.0,0.0,0.0,0.0,0.0,0.0,0.0,0.0,0.0,0.0,0.0,0.0,0.0,0.0,0.0,0.0,0.0,0.0,0.0,738.7097778320312,601.32958984375,1109.6478271484375,990.0693359375,616.5289306640625,1114.7828369140625,776.2820434570312,420.6036682128906,1136.969482421875,937.1011352539062,410.1646728515625,1140.9451904296875,673.7652587890625,521.766845703125,845.3098754882812,701.056640625,546.5191040039062,591.956787109375,688.849609375,408.7799072265625,497.93902587890625,709.6953735351562,272.42633056640625,349.2138671875,784.00732421875,158.49887084960938,367.6564025878906,733.5890502929688,334.19512939453125,173.552490234375,1040.128173828125,586.4835815429688,801.318359375,984.267333984375,586.6956787109375,567.64697265625,994.8478393554688,583.7964477539062,430.9862976074219,944.4669189453125,574.2577514648438,220.7579803466797,878.1615600585938,497.68896484375,165.284423828125,923.6033325195312,760.7327880859375,177.07980346679688,0.0,0.0,0.0,0.0,0.0,0.0,0.0,0.0,0.0,0.0,0.0,0.0,1.0,5.0292,8.1778,-1.3877,0.1831,-0.4272,-0.1221,99.6405,-31.2231,-159.906,0.2993,0.6943,-0.6477,-0.0941,0.0,0.0,0.0,0.0,0.0,0.0,0.0,0.0,0.0,0.0,0.0,0.0,1.0,0.0,0.0,0.0,0.0,0.0,0.0,0.0,0.0,0.0,0.0,0.0,0.0,1.0,0.0,0.0,0.0,0.0,0.0,0.0,0.0,0.0,0.0,0.0,0.0,0.0,1.0,0.0,0.0,0.0,0.0,0.0,0.0,0.0,0.0,0.0,0.0,0.0,0.0,1.0,0.0,0.0,0.0,0.0,0.0,0.0,0.0,0.0,0.0,0.0,0.0,0.0,1.0,0,0,0,0,0,0,0,0,0,0,0,0,0,0,0,0,0,0,0,0,0,0,0,0,0,0,0,0,0,0,0,0,0,0,0,0
1777290949.4680185,9959,1777290943.803191,1777290943.813663,,1,1,-10.47205924987793,,1,0,0.0,0.0,0.0,0.0,0.0,0.0,0.0,0.0,0.0,0.0,0.0,0.0,0.0,0.0,0.0,0.0,0.0,0.0,0.0,0.0,0.0,0.0,0.0,0.0,0.0,0.0,0.0,740.5260009765625,599.5004272460938,1111.8905029296875,991.721923828125,617.1825561523438,1116.8077392578125,779.7875366210938,419.19281005859375,1138.9205322265625,940.6303100585938,410.45269775390625,1142.90185546875,674.0795288085938,529.5228271484375,848.9772338867188,698.08154296875,565.23681640625,596.9970703125,687.4146728515625,427.2250061035156,506.4712219238281,710.0589599609375,288.279052734375,361.19964599609375,786.5350341796875,180.0082244873047,386.5727844238281,730.28466796875,344.0362243652344,178.94207763671875,1042.736328125,583.24267578125,800.8550415039062,985.471923828125,578.495361328125,567.3368530273438,995.5501708984375,573.320556640625,430.6638488769531,944.4352416992188,560.052978515625,221.0316619873047,878.4522705078125,482.8964538574219,165.54006958007812,923.8466186523438,745.9872436523438,176.6971893310547,0.0,0.0,0.0,0.0,0.0,0.0,0.0,0.0,0.0,0.0,0.0,0.0,1.0,5.0292,8.1778,-1.3877,0.1831,-0.4272,-0.1221,99.6405,-31.2231,-159.906,0.2993,0.6943,-0.6477,-0.0941,0.0,0.0,0.0,0.0,0.0,0.0,0.0,0.0,0.0,0.0,0.0,0.0,1.0,0.0,0.0,0.0,0.0,0.0,0.0,0.0,0.0,0.0,0.0,0.0,0.0,1.0,0.0,0.0,0.0,0.0,0.0,0.0,0.0,0.0,0.0,0.0,0.0,0.0,1.0,0.0,0.0,0.0,0.0,0.0,0.0,0.0,0.0,0.0,0.0,0.0,0.0,1.0,0.0,0.0,0.0,0.0,0.0,0.0,0.0,0.0,0.0,0.0,0.0,0.0,1.0,0,0,0,0,0,0,0,0,0,0,0,0,0,0,0,0,0,0,0,0,0,0,0,0,0,0,0,0,0,0,0,0,0,0,0,0
1777290949.4680185,9960,1777290943.8146622,1777290943.8146622,,0,0,0.0,,1,0,0.0,0.0,0.0,0.0,0.0,0.0,0.0,0.0,0.0,0.0,0.0,0.0,0.0,0.0,0.0,0.0,0.0,0.0,0.0,0.0,0.0,0.0,0.0,0.0,0.0,0.0,0.0,741.3795776367188,598.42333984375,1112.991455078125,992.5006103515625,617.251708984375,1117.73193359375,781.456298828125,418.29705810546875,1139.923583984375,942.3094482421875,410.3807067871094,1143.859130859375,673.9989624023438,533.2515869140625,851.0902099609375,696.71240234375,574.1599731445312,599.8942260742188,686.8695068359375,436.2851867675781,510.33355712890625,710.5397338867188,296.8223571777344,366.01129150390625,788.3078002929688,189.83822631835938,391.6196594238281,728.3838500976562,352.17279052734375,182.72547912597656,1043.859375,581.4691162109375,800.6311645507812,986.0139770507812,574.2647094726562,567.2109985351562,995.8713989257812,567.9896850585938,430.5606994628906,944.449462890625,552.8959350585938,221.21934509277344,878.591552734375,475.4577941894531,165.69631958007812,923.9818725585938,738.5460205078125,176.5719757080078,0.0,0.0,0.0,0.0,0.0,0.0,0.0,0.0,0.0,0.0,0.0,0.0,1.0,5.0292,8.1874,-1.3877,0.1831,-0.4883,-0.1221,99.6405,-31.2231,-159.906,0.2993,0.6943,-0.6477,-0.0941,0.0,0.0,0.0,0.0,0.0,0.0,0.0,0.0,0.0,0.0,0.0,0.0,1.0,0.0,0.0,0.0,0.0,0.0,0.0,0.0,0.0,0.0,0.0,0.0,0.0,1.0,0.0,0.0,0.0,0.0,0.0,0.0,0.0,0.0,0.0,0.0,0.0,0.0,1.0,0.0,0.0,0.0,0.0,0.0,0.0,0.0,0.0,0.0,0.0,0.0,0.0,1.0,0.0,0.0,0.0,0.0,0.0,0.0,0.0,0.0,0.0,0.0,0.0,0.0,1.0,0,0,0,0,0,0,0,0,0,0,0,0,0,0,0,0,0,0,0,0,0,0,0,0,0,0,0,0,0,0,0,0,0,0,0,0
1777290949.4680185,9961,1777290943.8176808,1777290943.8146622,,0,0,3.018617630004883,,1,0,0.0,0.0,0.0,0.0,0.0,0.0,0.0,0.0,0.0,0.0,0.0,0.0,0.0,0.0,0.0,0.0,0.0,0.0,0.0,0.0,0.0,0.0,0.0,0.0,0.0,0.0,0.0,742.206298828125,597.2652587890625,1114.0782470703125,993.2590942382812,617.15478515625,1118.59814453125,783.055419921875,417.2957458496094,1140.9388427734375,943.9182739257812,410.173583984375,1144.7947998046875,673.8236694335938,536.7970581054688,853.3577270507812,695.4566040039062,582.7246704101562,602.9952392578125,686.447021484375,445.1790771484375,513.8262329101562,711.1674194335938,305.75738525390625,369.8580322265625,790.3156127929688,199.0577850341797,393.80828857421875,726.304443359375,362.3871154785156,186.89547729492188,1044.8419189453125,579.6214599609375,800.4342651367188,986.5135498046875,569.9815063476562,567.1209716796875,996.1765747070312,562.6218872070312,430.5116882324219,944.490234375,545.7085571289062,221.45062255859375,878.7315673828125,467.9896545410156,165.8734588623047,924.1242065429688,731.0637817382812,176.49032592773438,0.0,0.0,0.0,0.0,0.0,0.0,0.0,0.0,0.0,0.0,0.0,0.0,1.0,5.0292,8.1874,-1.3877,0.1831,-0.4883,-0.1221,99.6405,-31.2231,-159.906,0.2993,0.6943,-0.6477,-0.0941,0.0,0.0,0.0,0.0,0.0,0.0,0.0,0.0,0.0,0.0,0.0,0.0,1.0,0.0,0.0,0.0,0.0,0.0,0.0,0.0,0.0,0.0,0.0,0.0,0.0,1.0,0.0,0.0,0.0,0.0,0.0,0.0,0.0,0.0,0.0,0.0,0.0,0.0,1.0,0.0,0.0,0.0,0.0,0.0,0.0,0.0,0.0,0.0,0.0,0.0,0.0,1.0,0.0,0.0,0.0,0.0,0.0,0.0,0.0,0.0,0.0,0.0,0.0,0.0,1.0,0,0,0,0,0,0,0,0,0,0,0,0,0,0,0,0,0,0,0,0,0,0,0,0,0,0,0,0,0,0,0,0,0,0,0,0
1777290949.4680185,9962,1777290943.8314261,1777290943.8146622,,0,0,16.763925552368164,,1,0,0.0,0.0,0.0,0.0,0.0,0.0,0.0,0.0,0.0,0.0,0.0,0.0,0.0,0.0,0.0,0.0,0.0,0.0,0.0,0.0,0.0,0.0,0.0,0.0,0.0,0.0,0.0,743.01025390625,596.0435791015625,1115.15087890625,994.0030517578125,616.8997192382812,1119.4075927734375,784.5764770507812,416.2041931152344,1141.961181640625,945.4483032226562,409.83978271484375,1145.704833984375,673.6055908203125,540.091064453125,855.7478637695312,694.3341674804688,590.888671875,606.2572021484375,686.143798828125,453.88165283203125,516.87841796875,711.88916015625,315.0841369628906,372.6365051269531,792.4341430664062,207.89926147460938,393.4283447265625,724.062255859375,374.4785461425781,191.11207580566406,1045.678466796875,577.71337890625,800.2738647460938,986.9701538085938,565.6598510742188,567.0728149414062,996.4666748046875,557.2247314453125,430.52069091796875,944.5580444335938,538.4939575195312,221.72764587402344,878.8760375976562,460.492431640625,166.0720672607422,924.2733154296875,723.5459594726562,176.44659423828125,0.0,0.0,0.0,0.0,0.0,0.0,0.0,0.0,0.0,0.0,0.0,0.0,1.0,5.0292,8.1874,-1.3877,0.1831,-0.4883,-0.1221,99.6405,-31.2231,-159.906,0.2993,0.6943,-0.6477,-0.0941,0.0,0.0,0.0,0.0,0.0,0.0,0.0,0.0,0.0,0.0,0.0,0.0,1.0,0.0,0.0,0.0,0.0,0.0,0.0,0.0,0.0,0.0,0.0,0.0,0.0,1.0,0.0,0.0,0.0,0.0,0.0,0.0,0.0,0.0,0.0,0.0,0.0,0.0,1.0,0.0,0.0,0.0,0.0,0.0,0.0,0.0,0.0,0.0,0.0,0.0,0.0,1.0,0.0,0.0,0.0,0.0,0.0,0.0,0.0,0.0,0.0,0.0,0.0,0.0,1.0,0,0,0,0,0,0,0,0,0,0,0,0,0,0,0,0,0,0,0,0,0,0,0,0,0,0,0,0,0,0,0,0,0,0,0,0
1777290949.4680185,9963,1777290943.8481896,1777290943.8146622,,0,0,33.527374267578125,,1,0,0.0,0.0,0.0,0.0,0.0,0.0,0.0,0.0,0.0,0.0,0.0,0.0,0.0,0.0,0.0,0.0,0.0,0.0,0.0,0.0,0.0,0.0,0.0,0.0,0.0,0.0,0.0,743.792724609375,594.7732543945312,1116.208740234375,994.7351684570312,616.4971313476562,1120.161376953125,786.0126342773438,415.03692626953125,1142.985595703125,946.8924560546875,409.3890686035156,1146.585693359375,673.395751953125,543.0660400390625,858.2232055664062,693.360595703125,598.6156616210938,609.632568359375,685.9502563476562,462.3796691894531,519.4261474609375,712.645263671875,324.8091735839844,374.2732849121094,794.5258178710938,216.6836395263672,390.8569030761719,721.6890869140625,388.1738586425781,195.03440856933594,1046.3701171875,575.752197265625,800.1533813476562,987.3837890625,561.3058471679688,567.0679931640625,996.7411499023438,551.7991943359375,430.58599853515625,944.650146484375,531.2546997070312,222.04855346679688,879.0282592773438,452.96783447265625,166.29209899902344,924.4296264648438,715.9990234375,176.43310546875,0.0,0.0,0.0,0.0,0.0,0.0,0.0,0.0,0.0,0.0,0.0,0.0,1.0,5.0292,8.1874,-1.3877,0.1831,-0.4883,-0.1221,99.6405,-31.2231,-159.906,0.2993,0.6943,-0.6477,-0.0941,0.0,0.0,0.0,0.0,0.0,0.0,0.0,0.0,0.0,0.0,0.0,0.0,1.0,0.0,0.0,0.0,0.0,0.0,0.0,0.0,0.0,0.0,0.0,0.0,0.0,1.0,0.0,0.0,0.0,0.0,0.0,0.0,0.0,0.0,0.0,0.0,0.0,0.0,1.0,0.0,0.0,0.0,0.0,0.0,0.0,0.0,0.0,0.0,0.0,0.0,0.0,1.0,0.0,0.0,0.0,0.0,0.0,0.0,0.0,0.0,0.0,0.0,0.0,0.0,1.0,0,0,0,0,0,0,0,0,0,0,0,0,0,0,0,0,0,0,0,0,0,0,0,0,0,0,0,0,0,0,0,0,0,0,0,0
1777290949.4680185,9964,1777290943.8506994,1777290943.8146622,,0,0,36.03720664978027,,1,0,0.0,0.0,0.0,0.0,0.0,0.0,0.0,0.0,0.0,0.0,0.0,0.0,0.0,0.0,0.0,0.0,0.0,0.0,0.0,0.0,0.0,0.0,0.0,0.0,0.0,0.0,0.0,744.5521240234375,593.4666748046875,1117.249755859375,995.4549560546875,615.9599609375,1120.85986328125,787.3587036132812,413.80767822265625,1144.0064697265625,948.2452392578125,408.83233642578125,1147.4346923828125,673.2407836914062,545.6585693359375,860.741943359375,692.5468139648438,605.874267578125,613.0704345703125,685.8521118164062,470.66864013671875,521.4153442382812,713.3732299804688,334.94171142578125,374.72760009765625,796.457763671875,225.73587036132812,386.4753723144531,719.2247314453125,403.1822814941406,198.3752899169922,1046.923828125,573.7393188476562,800.0706787109375,987.7554321289062,556.919189453125,567.103759765625,996.9983520507812,546.3413696289062,430.70147705078125,944.7609252929688,523.9931030273438,222.40814208984375,879.1912841796875,445.4186706542969,166.53302001953125,924.593505859375,708.4295654296875,176.44137573242188,0.0,0.0,0.0,0.0,0.0,0.0,0.0,0.0,0.0,0.0,0.0,0.0,1.0,5.0292,8.1874,-1.3877,0.1831,-0.4883,-0.1221,99.6405,-31.2231,-159.906,0.2993,0.6943,-0.6477,-0.0941,0.0,0.0,0.0,0.0,0.0,0.0,0.0,0.0,0.0,0.0,0.0,0.0,1.0,0.0,0.0,0.0,0.0,0.0,0.0,0.0,0.0,0.0,0.0,0.0,0.0,1.0,0.0,0.0,0.0,0.0,0.0,0.0,0.0,0.0,0.0,0.0,0.0,0.0,1.0,0.0,0.0,0.0,0.0,0.0,0.0,0.0,0.0,0.0,0.0,0.0,0.0,1.0,0.0,0.0,0.0,0.0,0.0,0.0,0.0,0.0,0.0,0.0,0.0,0.0,1.0,0,0,0,0,0,0,0,0,0,0,0,0,0,0,0,0,0,0,0,0,0,0,0,0,0,0,0,0,0,0,0,0,0,0,0,0
1777290949.4680185,9965,1777290943.8664792,1777290943.8146622,,0,0,51.81694030761719,,1,0,0.0,0.0,0.0,0.0,0.0,0.0,0.0,0.0,0.0,0.0,0.0,0.0,0.0,0.0,0.0,0.0,0.0,0.0,0.0,0.0,0.0,0.0,0.0,0.0,0.0,0.0,0.0,745.28466796875,592.1340942382812,1118.270263671875,996.1590576171875,615.3032836914062,1121.50146484375,788.611083984375,412.5294189453125,1145.017333984375,949.5028076171875,408.1814270019531,1148.249267578125,673.1804809570312,547.8128662109375,863.2593994140625,691.899658203125,612.6375732421875,616.5177612304688,685.83203125,478.7494201660156,522.8040161132812,714.0130004882812,345.4912414550781,373.9917297363281,798.1143798828125,235.32247924804688,380.6044921875,716.709228515625,419.2438049316406,200.93914794921875,1047.3504638671875,571.6715087890625,800.0189819335938,988.086181640625,552.4945068359375,567.1742553710938,997.2356567382812,540.843994140625,430.8577575683594,944.8829345703125,516.7112426757812,222.7987518310547,879.366943359375,437.8489685058594,166.7936553955078,924.7649536132812,700.8438110351562,176.462890625,0.0,0.0,0.0,0.0,0.0,0.0,0.0,0.0,0.0,0.0,0.0,0.0,1.0,5.0292,8.1874,-1.3877,0.1831,-0.4883,-0.1221,99.6405,-31.2231,-159.906,0.2993,0.6943,-0.6477,-0.0941,0.0,0.0,0.0,0.0,0.0,0.0,0.0,0.0,0.0,0.0,0.0,0.0,1.0,0.0,0.0,0.0,0.0,0.0,0.0,0.0,0.0,0.0,0.0,0.0,0.0,1.0,0.0,0.0,0.0,0.0,0.0,0.0,0.0,0.0,0.0,0.0,0.0,0.0,1.0,0.0,0.0,0.0,0.0,0.0,0.0,0.0,0.0,0.0,0.0,0.0,0.0,1.0,0.0,0.0,0.0,0.0,0.0,0.0,0.0,0.0,0.0,0.0,0.0,0.0,1.0,0,0,0,0,0,0,0,0,0,0,0,0,0,0,0,0,0,0,0,0,0,0,0,0,0,0,0,0,0,0,0,0,0,0,0,0
1777290949.4680185,9966,1777290943.8684018,1777290943.8146622,,0,0,53.73954772949219,,1,0,0.0,0.0,0.0,0.0,0.0,0.0,0.0,0.0,0.0,0.0,0.0,0.0,0.0,0.0,0.0,0.0,0.0,0.0,0.0,0.0,0.0,0.0,0.0,0.0,0.0,0.0,0.0,745.9844970703125,590.783935546875,1119.264404296875,996.8414916992188,614.5437622070312,1122.0833740234375,789.7674560546875,411.2146301269531,1146.0113525390625,950.6622924804688,407.4488525390625,1149.0272216796875,673.2456665039062,549.4835205078125,865.7293090820312,691.421875,618.8818359375,619.9197998046875,685.8709106445312,486.62615966796875,523.5630493164062,714.5108642578125,356.4670104980469,372.08868408203125,799.40478515625,245.6225128173828,373.46929931640625,714.1769409179688,436.1600646972656,202.63697814941406,1047.6639404296875,569.5421752929688,799.9881591796875,988.3778076171875,548.0236206054688,567.2713623046875,997.4501342773438,535.2981567382812,431.04364013671875,945.0073852539062,509.4112243652344,223.21127319335938,879.55615234375,430.2637939453125,167.07174682617188,924.9429321289062,693.2474975585938,176.4894561767578,0.0,0.0,0.0,0.0,0.0,0.0,0.0,0.0,0.0,0.0,0.0,0.0,1.0,5.0292,8.1874,-1.3877,0.1831,-0.4883,-0.1221,99.6405,-31.2231,-159.906,0.2993,0.6943,-0.6477,-0.0941,0.0,0.0,0.0,0.0,0.0,0.0,0.0,0.0,0.0,0.0,0.0,0.0,1.0,0.0,0.0,0.0,0.0,0.0,0.0,0.0,0.0,0.0,0.0,0.0,0.0,1.0,0.0,0.0,0.0,0.0,0.0,0.0,0.0,0.0,0.0,0.0,0.0,0.0,1.0,0.0,0.0,0.0,0.0,0.0,0.0,0.0,0.0,0.0,0.0,0.0,0.0,1.0,0.0,0.0,0.0,0.0,0.0,0.0,0.0,0.0,0.0,0.0,0.0,0.0,1.0,0,0,0,0,0,0,0,0,0,0,0,0,0,0,0,0,0,0,0,0,0,0,0,0,0,0,0,0,0,0,0,0,0,0,0,0
1777290949.4680185,9967,1777290943.8863754,1777290943.8859262,,0,0,0.44918060302734375,,1,0,0.0,0.0,0.0,0.0,0.0,0.0,0.0,0.0,0.0,0.0,0.0,0.0,0.0,0.0,0.0,0.0,0.0,0.0,0.0,0.0,0.0,0.0,0.0,0.0,0.0,0.0,0.0,746.6447143554688,589.4234619140625,1120.22412109375,997.494384765625,613.6990356445312,1122.60107421875,790.8267822265625,409.8751220703125,1146.9810791015625,951.7223510742188,406.64776611328125,1149.7666015625,673.4566650390625,550.6380615234375,868.1056518554688,691.1124267578125,624.5864868164062,623.2219848632812,685.9495239257812,494.3048400878906,523.6765747070312,714.8228149414062,367.87884521484375,369.0686950683594,800.2654418945312,256.7298889160156,365.19683837890625,711.6521606445312,453.8037109375,203.47943115234375,1047.879150390625,567.3428344726562,799.9658813476562,988.632080078125,543.4970703125,567.3856811523438,997.6388549804688,529.6948852539062,431.24725341796875,945.1254272460938,502.0950622558594,223.63601684570312,879.7577514648438,422.6688537597656,167.36337280273438,925.1254272460938,685.6455078125,176.51356506347656,0.0,0.0,0.0,0.0,0.0,0.0,0.0,0.0,0.0,0.0,0.0,0.0,1.0,5.0292,8.1778,-1.3877,0.1831,-0.4272,-0.1221,99.6405,-31.2231,-159.906,0.2993,0.6943,-0.6477,-0.0941,0.0,0.0,0.0,0.0,0.0,0.0,0.0,0.0,0.0,0.0,0.0,0.0,1.0,0.0,0.0,0.0,0.0,0.0,0.0,0.0,0.0,0.0,0.0,0.0,0.0,1.0,0.0,0.0,0.0,0.0,0.0,0.0,0.0,0.0,0.0,0.0,0.0,0.0,1.0,0.0,0.0,0.0,0.0,0.0,0.0,0.0,0.0,0.0,0.0,0.0,0.0,1.0,0.0,0.0,0.0,0.0,0.0,0.0,0.0,0.0,0.0,0.0,0.0,0.0,1.0,0,0,0,0,0,0,0,0,0,0,0,0,0,0,0,0,0,0,0,0,0,0,0,0,0,0,0,0,0,0,0,0,0,0,0,0
1777290949.4680185,9968,1777290943.888384,1777290943.8859262,,0,0,2.457857131958008,,1,0,0.0,0.0,0.0,0.0,0.0,0.0,0.0,0.0,0.0,0.0,0.0,0.0,0.0,0.0,0.0,0.0,0.0,0.0,0.0,0.0,0.0,0.0,0.0,0.0,0.0,0.0,0.0,747.2578735351562,588.0590209960938,1121.13916015625,998.1090087890625,612.7872314453125,1123.048828125,791.7887573242188,408.5224914550781,1147.918701171875,952.6823120117188,405.7915344238281,1150.465087890625,673.8228149414062,551.2587280273438,870.3442993164062,690.9667358398438,629.7332763671875,626.3704833984375,686.0491333007812,501.79327392578125,523.1409912109375,714.9166870117188,379.7386474609375,365.004638671875,800.6608276367188,268.6770324707031,355.84136962890625,709.146728515625,472.10931396484375,203.55409240722656,1048.01171875,565.0653076171875,799.9390258789062,988.85107421875,538.9055786132812,567.5072631835938,997.7991333007812,524.0262451171875,431.45709228515625,945.2286376953125,494.7644348144531,224.0635528564453,879.9691162109375,415.07012939453125,167.662841796875,925.3099975585938,678.0413818359375,176.52877807617188,0.0,0.0,0.0,0.0,0.0,0.0,0.0,0.0,0.0,0.0,0.0,0.0,1.0,5.0292,8.1778,-1.3877,0.1831,-0.4272,-0.1221,99.6405,-31.2231,-159.906,0.2993,0.6943,-0.6477,-0.0941,0.0,0.0,0.0,0.0,0.0,0.0,0.0,0.0,0.0,0.0,0.0,0.0,1.0,0.0,0.0,0.0,0.0,0.0,0.0,0.0,0.0,0.0,0.0,0.0,0.0,1.0,0.0,0.0,0.0,0.0,0.0,0.0,0.0,0.0,0.0,0.0,0.0,0.0,1.0,0.0,0.0,0.0,0.0,0.0,0.0,0.0,0.0,0.0,0.0,0.0,0.0,1.0,0.0,0.0,0.0,0.0,0.0,0.0,0.0,0.0,0.0,0.0,0.0,0.0,1.0,0,0,0,0,0,0,0,0,0,0,0,0,0,0,0,0,0,0,0,0,0,0,0,0,0,0,0,0,0,0,0,0,0,0,0,0
1777290949.4680185,9969,1777290943.9020875,1777290943.8859262,,0,0,16.161203384399414,,1,0,0.0,0.0,0.0,0.0,0.0,0.0,0.0,0.0,0.0,0.0,0.0,0.0,0.0,0.0,0.0,0.0,0.0,0.0,0.0,0.0,0.0,0.0,0.0,0.0,0.0,0.0,0.0,747.8165893554688,586.69677734375,1121.998046875,998.6761474609375,611.8264770507812,1123.419921875,792.65380859375,407.1680603027344,1148.8160400390625,953.5422973632812,404.89361572265625,1151.120361328125,674.3418579101562,551.343505859375,872.4047241210938,690.9766235351562,634.3063354492188,629.3138427734375,686.1522827148438,509.1018981933594,521.9634399414062,714.7723999023438,392.06219482421875,359.9876708984375,800.5838623046875,281.4658508300781,345.42498779296875,706.6600341796875,491.05181884765625,202.99533081054688,1048.0765380859375,562.70263671875,799.8948364257812,989.0370483398438,534.2420654296875,567.6265258789062,997.9290161132812,518.2867431640625,431.6627502441406,945.31005859375,487.4210510253906,224.48533630371094,880.1858520507812,407.47314453125,167.96299743652344,925.4945068359375,670.4378051757812,176.53045654296875,0.0,0.0,0.0,0.0,0.0,0.0,0.0,0.0,0.0,0.0,0.0,0.0,1.0,5.0292,8.1778,-1.3877,0.1831,-0.4272,-0.1221,99.6405,-31.2231,-159.906,0.2993,0.6943,-0.6477,-0.0941,0.0,0.0,0.0,0.0,0.0,0.0,0.0,0.0,0.0,0.0,0.0,0.0,1.0,0.0,0.0,0.0,0.0,0.0,0.0,0.0,0.0,0.0,0.0,0.0,0.0,1.0,0.0,0.0,0.0,0.0,0.0,0.0,0.0,0.0,0.0,0.0,0.0,0.0,1.0,0.0,0.0,0.0,0.0,0.0,0.0,0.0,0.0,0.0,0.0,0.0,0.0,1.0,0.0,0.0,0.0,0.0,0.0,0.0,0.0,0.0,0.0,0.0,0.0,0.0,1.0,0,0,0,0,0,0,0,0,0,0,0,0,0,0,0,0,0,0,0,0,0,0,0,0,0,0,0,0,0,0,0,0,0,0,0,0
1777290949.4680185,9970,1777290943.9057844,1777290943.8859262,,0,0,19.858121871948242,,1,0,0.0,0.0,0.0,0.0,0.0,0.0,0.0,0.0,0.0,0.0,0.0,0.0,0.0,0.0,0.0,0.0,0.0,0.0,0.0,0.0,0.0,0.0,0.0,0.0,0.0,0.0,0.0,748.3143920898438,585.3429565429688,1122.78759765625,999.1871337890625,610.8342895507812,1123.7073974609375,793.4225463867188,405.8229064941406,1149.664794921875,954.302978515625,403.96734619140625,1151.72998046875,675.0006103515625,550.9064331054688,874.2516479492188,691.130859375,638.2921752929688,632.004150390625,686.2424926757812,516.24462890625,520.1602783203125,714.3819580078125,404.8702392578125,354.12371826171875,800.0576171875,295.09490966796875,333.98016357421875,704.1810913085938,510.6210632324219,201.9549102783203,1048.08740234375,560.2507934570312,799.82177734375,989.1925659179688,529.5023193359375,567.73486328125,998.0277099609375,512.47412109375,431.8555908203125,945.3648681640625,480.0663146972656,224.89437866210938,880.4025268554688,399.8821105957031,168.25608825683594,925.6775512695312,662.8359375,176.5164031982422,0.0,0.0,0.0,0.0,0.0,0.0,0.0,0.0,0.0,0.0,0.0,0.0,1.0,5.0292,8.1778,-1.3877,0.1831,-0.4272,-0.1221,99.6405,-31.2231,-159.906,0.2993,0.6943,-0.6477,-0.0941,0.0,0.0,0.0,0.0,0.0,0.0,0.0,0.0,0.0,0.0,0.0,0.0,1.0,0.0,0.0,0.0,0.0,0.0,0.0,0.0,0.0,0.0,0.0,0.0,0.0,1.0,0.0,0.0,0.0,0.0,0.0,0.0,0.0,0.0,0.0,0.0,0.0,0.0,1.0,0.0,0.0,0.0,0.0,0.0,0.0,0.0,0.0,0.0,0.0,0.0,0.0,1.0,0.0,0.0,0.0,0.0,0.0,0.0,0.0,0.0,0.0,0.0,0.0,0.0,1.0,0,0,0,0,0,0,0,0,0,0,0,0,0,0,0,0,0,0,0,0,0,0,0,0,0,0,0,0,0,0,0,0,0,0,0,0
1777290949.4680185,9971,1777290943.9202058,1777290943.8859262,,0,0,34.279584884643555,,1,0,0.0,0.0,0.0,0.0,0.0,0.0,0.0,0.0,0.0,0.0,0.0,0.0,0.0,0.0,0.0,0.0,0.0,0.0,0.0,0.0,0.0,0.0,0.0,0.0,0.0,0.0,0.0,748.7457275390625,584.0042724609375,1123.49462890625,999.6345825195312,609.8272705078125,1123.9044189453125,794.0956420898438,404.49798583984375,1150.456787109375,954.9651489257812,403.0257873535156,1152.2908935546875,675.7757568359375,549.97705078125,875.8560791015625,691.4151000976562,641.6800537109375,634.398193359375,686.3034057617188,523.23974609375,517.7559814453125,713.748291015625,418.18829345703125,347.5305480957031,799.1365356445312,309.5750732421875,321.5826416015625,701.6923828125,530.7996826171875,200.58001708984375,1048.056640625,557.7091674804688,799.7101440429688,989.3204956054688,524.6858520507812,567.824951171875,998.0958251953125,506.58990478515625,432.02899169921875,945.3909912109375,472.70147705078125,225.28555297851562,880.6135864257812,392.2993469238281,168.5347900390625,925.8592529296875,655.2357788085938,176.48724365234375,0.0,0.0,0.0,0.0,0.0,0.0,0.0,0.0,0.0,0.0,0.0,0.0,1.0,5.0292,8.1778,-1.3877,0.1831,-0.4272,-0.1221,99.6405,-31.2231,-159.906,0.2993,0.6943,-0.6477,-0.0941,0.0,0.0,0.0,0.0,0.0,0.0,0.0,0.0,0.0,0.0,0.0,0.0,1.0,0.0,0.0,0.0,0.0,0.0,0.0,0.0,0.0,0.0,0.0,0.0,0.0,1.0,0.0,0.0,0.0,0.0,0.0,0.0,0.0,0.0,0.0,0.0,0.0,0.0,1.0,0.0,0.0,0.0,0.0,0.0,0.0,0.0,0.0,0.0,0.0,0.0,0.0,1.0,0.0,0.0,0.0,0.0,0.0,0.0,0.0,0.0,0.0,0.0,0.0,0.0,1.0,0,0,0,0,0,0,0,0,0,0,0,0,0,0,0,0,0,0,0,0,0,0,0,0,0,0,0,0,0,0,0,0,0,0,0,0
1777290949.4685404,9972,1777290943.9398158,1777290943.8859262,,0,0,53.88951301574707,,1,0,0.0,0.0,0.0,0.0,0.0,0.0,0.0,0.0,0.0,0.0,0.0,0.0,0.0,0.0,0.0,0.0,0.0,0.0,0.0,0.0,0.0,0.0,0.0,0.0,0.0,0.0,0.0,749.1065673828125,582.6880493164062,1124.1060791015625,1000.0125122070312,608.8206787109375,1124.0047607421875,794.6737670898438,403.2040710449219,1151.1839599609375,955.5296630859375,402.0814208984375,1152.8001708984375,676.6351928710938,548.5991821289062,877.196533203125,691.812255859375,644.4622802734375,636.4588012695312,686.3185424804688,530.109619140625,514.783203125,712.8844604492188,432.0444641113281,340.33612060546875,797.904296875,324.9318542480469,308.368896484375,699.1762084960938,551.5494995117188,199.0021209716797,1047.9945068359375,555.081298828125,799.5526123046875,989.424072265625,519.79638671875,567.8910522460938,998.13525390625,500.6393127441406,432.17864990234375,945.3889770507812,465.3276672363281,225.65591430664062,880.813720703125,384.7248229980469,168.7931671142578,926.0408935546875,647.63623046875,176.44627380371094,0.0,0.0,0.0,0.0,0.0,0.0,0.0,0.0,0.0,0.0,0.0,0.0,1.0,5.0292,8.1778,-1.3877,0.1831,-0.4272,-0.1221,99.6405,-31.2231,-159.906,0.2993,0.6943,-0.6477,-0.0941,0.0,0.0,0.0,0.0,0.0,0.0,0.0,0.0,0.0,0.0,0.0,0.0,1.0,0.0,0.0,0.0,0.0,0.0,0.0,0.0,0.0,0.0,0.0,0.0,0.0,1.0,0.0,0.0,0.0,0.0,0.0,0.0,0.0,0.0,0.0,0.0,0.0,0.0,1.0,0.0,0.0,0.0,0.0,0.0,0.0,0.0,0.0,0.0,0.0,0.0,0.0,1.0,0.0,0.0,0.0,0.0,0.0,0.0,0.0,0.0,0.0,0.0,0.0,0.0,1.0,0,0,0,0,0,0,0,0,0,0,0,0,0,0,0,0,0,0,0,0,0,0,0,0,0,0,0,0,0,0,0,0,0,0,0,0
1777290949.4685404,9973,1777290943.9421334,1777290943.8859262,,0,0,56.20718002319336,,1,0,0.0,0.0,0.0,0.0,0.0,0.0,0.0,0.0,0.0,0.0,0.0,0.0,0.0,0.0,0.0,0.0,0.0,0.0,0.0,0.0,0.0,0.0,0.0,0.0,0.0,0.0,0.0,749.394287109375,581.40234375,1124.6102294921875,1000.316650390625,607.828125,1124.003662109375,795.157470703125,401.95166015625,1151.838623046875,955.9974975585938,401.14617919921875,1153.2542724609375,677.5397338867188,546.8286743164062,878.2590942382812,692.302978515625,646.634765625,638.15576171875,686.2710571289062,536.8793334960938,511.2832336425781,711.8125610351562,446.4654235839844,332.6773986816406,796.4660034179688,341.1971130371094,294.5365295410156,696.6216430664062,572.8084106445312,197.3369140625,1047.9090576171875,552.374755859375,799.344482421875,989.5067749023438,514.8414306640625,567.92919921875,998.1495361328125,494.63116455078125,432.30230712890625,945.3623657226562,457.94573974609375,226.00460815429688,880.9989013671875,377.1567687988281,169.0272979736328,926.224853515625,640.0359497070312,176.39854431152344,0.0,0.0,0.0,0.0,0.0,0.0,0.0,0.0,0.0,0.0,0.0,0.0,1.0,5.0292,8.1778,-1.3877,0.1831,-0.4272,-0.1221,99.6405,-31.2231,-159.906,0.2993,0.6943,-0.6477,-0.0941,0.0,0.0,0.0,0.0,0.0,0.0,0.0,0.0,0.0,0.0,0.0,0.0,1.0,0.0,0.0,0.0,0.0,0.0,0.0,0.0,0.0,0.0,0.0,0.0,0.0,1.0,0.0,0.0,0.0,0.0,0.0,0.0,0.0,0.0,0.0,0.0,0.0,0.0,1.0,0.0,0.0,0.0,0.0,0.0,0.0,0.0,0.0,0.0,0.0,0.0,0.0,1.0,0.0,0.0,0.0,0.0,0.0,0.0,0.0,0.0,0.0,0.0,0.0,0.0,1.0,0,0,0,0,0,0,0,0,0,0,0,0,0,0,0,0,0,0,0,0,0,0,0,0,0,0,0,0,0,0,0,0,0,0,0,0
1777290949.4685404,9974,1777290943.9563196,1777290943.8859262,,0,0,70.39332389831543,,1,0,0.0,0.0,0.0,0.0,0.0,0.0,0.0,0.0,0.0,0.0,0.0,0.0,0.0,0.0,0.0,0.0,0.0,0.0,0.0,0.0,0.0,0.0,0.0,0.0,0.0,0.0,0.0,749.6076049804688,580.1558227539062,1124.9967041015625,1000.5448608398438,606.861328125,1123.89794921875,795.5469360351562,400.7509765625,1152.413330078125,956.3694458007812,400.2310791015625,1153.6492919921875,678.4456787109375,544.730224609375,879.03759765625,692.8662109375,648.197998046875,639.4664916992188,686.144775390625,543.5741577148438,507.3075256347656,710.5625610351562,461.47088623046875,324.6995544433594,794.9347534179688,358.394287109375,280.3302917480469,694.032958984375,594.4945678710938,195.69305419921875,1047.8057861328125,549.6009521484375,799.0835571289062,989.5718994140625,509.8321838378906,567.9370727539062,998.1430053710938,488.5771179199219,432.39959716796875,945.316650390625,450.556640625,226.3327178955078,881.167724609375,369.59228515625,169.23602294921875,926.4138793945312,632.43359375,176.34982299804688,0.0,0.0,0.0,0.0,0.0,0.0,0.0,0.0,0.0,0.0,0.0,0.0,1.0,5.0292,8.1778,-1.3877,0.1831,-0.4272,-0.1221,99.6405,-31.2231,-159.906,0.2993,0.6943,-0.6477,-0.0941,0.0,0.0,0.0,0.0,0.0,0.0,0.0,0.0,0.0,0.0,0.0,0.0,1.0,0.0,0.0,0.0,0.0,0.0,0.0,0.0,0.0,0.0,0.0,0.0,0.0,1.0,0.0,0.0,0.0,0.0,0.0,0.0,0.0,0.0,0.0,0.0,0.0,0.0,1.0,0.0,0.0,0.0,0.0,0.0,0.0,0.0,0.0,0.0,0.0,0.0,0.0,1.0,0.0,0.0,0.0,0.0,0.0,0.0,0.0,0.0,0.0,0.0,0.0,0.0,1.0,0,0,0,0,0,0,0,0,0,0,0,0,0,0,0,0,0,0,0,0,0,0,0,0,0,0,0,0,0,0,0,0,0,0,0,0
1777290949.4685404,9975,1777290943.9599373,1777290943.8859262,,0,0,74.01108741760254,,1,0,0.0,0.0,0.0,0.0,0.0,0.0,0.0,0.0,0.0,0.0,0.0,0.0,0.0,0.0,0.0,0.0,0.0,0.0,0.0,0.0,0.0,0.0,0.0,0.0,0.0,0.0,0.0,749.7466430664062,578.9577026367188,1125.2574462890625,1000.6964111328125,605.930419921875,1123.6864013671875,795.84228515625,399.6116943359375,1152.9013671875,956.6461181640625,399.3464050292969,1153.981201171875,679.3076171875,542.3738403320312,879.5330810546875,693.4801025390625,649.1578979492188,640.376953125,685.9264526367188,550.2161254882812,502.91912841796875,709.171142578125,477.06695556640625,316.55487060546875,793.4132080078125,376.52386474609375,266.01849365234375,691.4375,616.5155029296875,194.1842803955078,1047.6875,546.7747192382812,798.769775390625,989.6227416992188,504.7825012207031,567.9135131835938,998.120849609375,482.49114990234375,432.4715881347656,945.2592163085938,443.1612854003906,226.6429901123047,881.3212890625,362.02783203125,169.421142578125,926.6107788085938,624.8281860351562,176.3055877685547,0.0,0.0,0.0,0.0,0.0,0.0,0.0,0.0,0.0,0.0,0.0,0.0,1.0,5.0292,8.1778,-1.3877,0.1831,-0.4272,-0.1221,99.6405,-31.2231,-159.906,0.2993,0.6943,-0.6477,-0.0941,0.0,0.0,0.0,0.0,0.0,0.0,0.0,0.0,0.0,0.0,0.0,0.0,1.0,0.0,0.0,0.0,0.0,0.0,0.0,0.0,0.0,0.0,0.0,0.0,0.0,1.0,0.0,0.0,0.0,0.0,0.0,0.0,0.0,0.0,0.0,0.0,0.0,0.0,1.0,0.0,0.0,0.0,0.0,0.0,0.0,0.0,0.0,0.0,0.0,0.0,0.0,1.0,0.0,0.0,0.0,0.0,0.0,0.0,0.0,0.0,0.0,0.0,0.0,0.0,1.0,0,0,0,0,0,0,0,0,0,0,0,0,0,0,0,0,0,0,0,0,0,0,0,0,0,0,0,0,0,0,0,0,0,0,0,0
1777290949.4685404,9976,1777290943.976964,1777290943.9763174,,0,0,0.6465911865234375,,1,0,0.0,0.0,0.0,0.0,0.0,0.0,0.0,0.0,0.0,0.0,0.0,0.0,0.0,0.0,0.0,0.0,0.0,0.0,0.0,0.0,0.0,0.0,0.0,0.0,0.0,0.0,0.0,749.812255859375,577.8174438476562,1125.386962890625,1000.772216796875,605.043701171875,1123.36962890625,796.0435180664062,398.54302978515625,1153.296630859375,956.828125,398.5014953613281,1154.2457275390625,680.0810546875,539.8308715820312,879.7528076171875,694.1231689453125,649.5267333984375,640.8818359375,685.6084594726562,556.820068359375,498.1934509277344,707.6802978515625,493.23944091796875,308.4006652832031,791.97607421875,395.5526123046875,251.86788940429688,688.890869140625,638.7769775390625,192.9396209716797,1047.554443359375,543.9133911132812,798.405029296875,989.6618041992188,499.7083435058594,567.8587646484375,998.0882568359375,476.3887023925781,432.5203552246094,945.1982421875,435.760986328125,226.93943786621094,881.4635620117188,354.4596252441406,169.5872039794922,926.8177490234375,617.2192993164062,176.26998901367188,0.0,0.0,0.0,0.0,0.0,0.0,0.0,0.0,0.0,0.0,0.0,0.0,1.0,5.0292,8.1874,-1.3925,0.1831,-0.4272,-0.1221,99.6405,-31.2231,-159.906,0.2993,0.6943,-0.6477,-0.0941,0.0,0.0,0.0,0.0,0.0,0.0,0.0,0.0,0.0,0.0,0.0,0.0,1.0,0.0,0.0,0.0,0.0,0.0,0.0,0.0,0.0,0.0,0.0,0.0,0.0,1.0,0.0,0.0,0.0,0.0,0.0,0.0,0.0,0.0,0.0,0.0,0.0,0.0,1.0,0.0,0.0,0.0,0.0,0.0,0.0,0.0,0.0,0.0,0.0,0.0,0.0,1.0,0.0,0.0,0.0,0.0,0.0,0.0,0.0,0.0,0.0,0.0,0.0,0.0,1.0,0,0,0,0,0,0,0,0,0,0,0,0,0,0,0,0,0,0,0,0,0,0,0,0,0,0,0,0,0,0,0,0,0,0,0,0
1777290949.4685404,9977,1777290943.979034,1777290943.9763174,,0,0,2.716541290283203,,1,0,0.0,0.0,0.0,0.0,0.0,0.0,0.0,0.0,0.0,0.0,0.0,0.0,0.0,0.0,0.0,0.0,0.0,0.0,0.0,0.0,0.0,0.0,0.0,0.0,0.0,0.0,0.0,749.8060913085938,576.7448120117188,1125.3824462890625,1000.7744140625,604.2078247070312,1122.9508056640625,796.1505737304688,397.5536193847656,1153.59326171875,956.916015625,397.7048034667969,1154.4383544921875,680.7256469726562,537.169921875,879.7091064453125,694.7750854492188,649.3245849609375,640.9847412109375,685.1912841796875,563.39013671875,493.2179870605469,706.135498046875,509.9476318359375,300.3962707519531,790.6578369140625,415.4083251953125,238.122314453125,686.479736328125,661.1876831054688,192.1071319580078,1047.404541015625,541.0361328125,797.9925537109375,989.6909790039062,494.62677001953125,567.7737426757812,998.050048828125,470.2858581542969,432.5484924316406,945.1417846679688,428.3573913574219,227.2270965576172,881.6006469726562,346.8840637207031,169.74072265625,927.0359497070312,609.6072998046875,176.2448272705078,0.0,0.0,0.0,0.0,0.0,0.0,0.0,0.0,0.0,0.0,0.0,0.0,1.0,5.0292,8.1874,-1.3925,0.1831,-0.4272,-0.1221,99.6405,-31.2231,-159.906,0.2993,0.6943,-0.6477,-0.0941,0.0,0.0,0.0,0.0,0.0,0.0,0.0,0.0,0.0,0.0,0.0,0.0,1.0,0.0,0.0,0.0,0.0,0.0,0.0,0.0,0.0,0.0,0.0,0.0,0.0,1.0,0.0,0.0,0.0,0.0,0.0,0.0,0.0,0.0,0.0,0.0,0.0,0.0,1.0,0.0,0.0,0.0,0.0,0.0,0.0,0.0,0.0,0.0,0.0,0.0,0.0,1.0,0.0,0.0,0.0,0.0,0.0,0.0,0.0,0.0,0.0,0.0,0.0,0.0,1.0,0,0,0,0,0,0,0,0,0,0,0,0,0,0,0,0,0,0,0,0,0,0,0,0,0,0,0,0,0,0,0,0,0,0,0,0
1777290949.4685404,9978,1777290943.9926436,1777290943.9763174,,0,0,16.326189041137695,,1,0,0.0,0.0,0.0,0.0,0.0,0.0,0.0,0.0,0.0,0.0,0.0,0.0,0.0,0.0,0.0,0.0,0.0,0.0,0.0,0.0,0.0,0.0,0.0,0.0,0.0,0.0,0.0,749.7302856445312,575.7493896484375,1125.2440185546875,1000.705810546875,603.4282836914062,1122.4344482421875,796.1632690429688,396.6513671875,1153.7867431640625,956.9103393554688,396.9638977050781,1154.5546875,681.2079467773438,534.4535522460938,879.4179077148438,695.4183349609375,648.580322265625,640.6979370117188,684.6847534179688,569.9174194335938,488.0905456542969,704.583251953125,527.119384765625,292.6984558105469,789.4480590820312,435.97918701171875,224.98939514160156,684.3201904296875,683.6576538085938,191.8496856689453,1047.234130859375,538.1631469726562,797.5363159179688,989.7108154296875,489.5550231933594,567.660400390625,998.009765625,464.1986083984375,432.5591125488281,945.0970458984375,420.9527893066406,227.51153564453125,881.7394409179688,339.2982482910156,169.88916015625,927.2648315429688,601.992919921875,176.2290496826172,0.0,0.0,0.0,0.0,0.0,0.0,0.0,0.0,0.0,0.0,0.0,0.0,1.0,5.0292,8.1874,-1.3925,0.1831,-0.4272,-0.1221,99.6405,-31.2231,-159.906,0.2993,0.6943,-0.6477,-0.0941,0.0,0.0,0.0,0.0,0.0,0.0,0.0,0.0,0.0,0.0,0.0,0.0,1.0,0.0,0.0,0.0,0.0,0.0,0.0,0.0,0.0,0.0,0.0,0.0,0.0,1.0,0.0,0.0,0.0,0.0,0.0,0.0,0.0,0.0,0.0,0.0,0.0,0.0,1.0,0.0,0.0,0.0,0.0,0.0,0.0,0.0,0.0,0.0,0.0,0.0,0.0,1.0,0.0,0.0,0.0,0.0,0.0,0.0,0.0,0.0,0.0,0.0,0.0,0.0,1.0,0,0,0,0,0,0,0,0,0,0,0,0,0,0,0,0,0,0,0,0,0,0,0,0,0,0,0,0,0,0,0,0,0,0,0,0
1777290949.4685404,9979,1777290943.9961903,1777290943.9763174,,0,0,19.87290382385254,,1,0,0.0,0.0,0.0,0.0,0.0,0.0,0.0,0.0,0.0,0.0,0.0,0.0,0.0,0.0,0.0,0.0,0.0,0.0,0.0,0.0,0.0,0.0,0.0,0.0,0.0,0.0,0.0,749.5870361328125,574.840576171875,1124.974365234375,1000.5698852539062,602.7093505859375,1121.8275146484375,796.0817260742188,395.84344482421875,1153.8726806640625,956.8115234375,396.2856750488281,1154.5904541015625,681.5032958984375,531.7363891601562,878.8974609375,696.0386962890625,647.3323974609375,640.0416870117188,684.1077270507812,576.3786010742188,482.9156494140625,703.0693969726562,544.647705078125,285.4555358886719,788.2967529296875,457.11572265625,212.63412475585938,682.5501708984375,706.0908813476562,192.33331298828125,1047.0382080078125,535.3146362304688,797.0408325195312,989.7208251953125,484.5097351074219,567.521240234375,997.969482421875,458.1419677734375,432.55548095703125,945.0694580078125,413.5499267578125,227.79872131347656,881.8865356445312,331.7002868652344,170.03952026367188,927.5018920898438,594.3770141601562,176.218994140625,0.0,0.0,0.0,0.0,0.0,0.0,0.0,0.0,0.0,0.0,0.0,0.0,1.0,5.0292,8.1874,-1.3925,0.1831,-0.4272,-0.1221,99.6405,-31.2231,-159.906,0.2993,0.6943,-0.6477,-0.0941,0.0,0.0,0.0,0.0,0.0,0.0,0.0,0.0,0.0,0.0,0.0,0.0,1.0,0.0,0.0,0.0,0.0,0.0,0.0,0.0,0.0,0.0,0.0,0.0,0.0,1.0,0.0,0.0,0.0,0.0,0.0,0.0,0.0,0.0,0.0,0.0,0.0,0.0,1.0,0.0,0.0,0.0,0.0,0.0,0.0,0.0,0.0,0.0,0.0,0.0,0.0,1.0,0.0,0.0,0.0,0.0,0.0,0.0,0.0,0.0,0.0,0.0,0.0,0.0,1.0,0,0,0,0,0,0,0,0,0,0,0,0,0,0,0,0,0,0,0,0,0,0,0,0,0,0,0,0,0,0,0,0,0,0,0,0
1777290949.4685404,9980,1777290944.0092173,1777290943.9763174,,0,0,32.89985656738281,,1,0,0.0,0.0,0.0,0.0,0.0,0.0,0.0,0.0,0.0,0.0,0.0,0.0,0.0,0.0,0.0,0.0,0.0,0.0,0.0,0.0,0.0,0.0,0.0,0.0,0.0,0.0,0.0,749.3786010742188,574.0274047851562,1124.57861328125,1000.3702392578125,602.0548095703125,1121.137939453125,795.9060668945312,395.1363830566406,1153.8480224609375,956.6202392578125,395.67620849609375,1154.54150390625,681.5972290039062,529.0648803710938,878.1675415039062,696.6262817382812,645.629638671875,639.0430908203125,683.4862060546875,582.7366943359375,477.7992248535156,701.636474609375,562.3896484375,278.8008117675781,787.12841796875,478.63299560546875,201.18003845214844,681.31494140625,728.3729248046875,193.70912170410156,1046.810791015625,532.5098876953125,796.5105590820312,989.7188110351562,479.5062561035156,567.359619140625,997.9293212890625,452.12945556640625,432.5411682128906,945.06201171875,406.1519470214844,228.09469604492188,882.046630859375,324.0893859863281,170.19729614257812,927.7429809570312,586.7601318359375,176.20944213867188,0.0,0.0,0.0,0.0,0.0,0.0,0.0,0.0,0.0,0.0,0.0,0.0,1.0,5.0292,8.1874,-1.3925,0.1831,-0.4272,-0.1221,99.6405,-31.2231,-159.906,0.2993,0.6943,-0.6477,-0.0941,0.0,0.0,0.0,0.0,0.0,0.0,0.0,0.0,0.0,0.0,0.0,0.0,1.0,0.0,0.0,0.0,0.0,0.0,0.0,0.0,0.0,0.0,0.0,0.0,0.0,1.0,0.0,0.0,0.0,0.0,0.0,0.0,0.0,0.0,0.0,0.0,0.0,0.0,1.0,0.0,0.0,0.0,0.0,0.0,0.0,0.0,0.0,0.0,0.0,0.0,0.0,1.0,0.0,0.0,0.0,0.0,0.0,0.0,0.0,0.0,0.0,0.0,0.0,0.0,1.0,0,0,0,0,0,0,0,0,0,0,0,0,0,0,0,0,0,0,0,0,0,0,0,0,0,0,0,0,0,0,0,0,0,0,0,0
1777290949.4685404,9981,1777290944.0266244,1777290943.9763174,,0,0,50.30703544616699,,1,0,0.0,0.0,0.0,0.0,0.0,0.0,0.0,0.0,0.0,0.0,0.0,0.0,0.0,0.0,0.0,0.0,0.0,0.0,0.0,0.0,0.0,0.0,0.0,0.0,0.0,0.0,0.0,749.1069946289062,573.318359375,1124.0640869140625,1000.1104736328125,601.4679565429688,1120.3751220703125,795.6366577148438,394.5360107421875,1153.7105712890625,956.3372192382812,395.1411437988281,1154.4041748046875,681.4856567382812,526.4785766601562,877.2486572265625,697.1755981445312,643.5311889648438,637.7352905273438,682.8505249023438,588.9422607421875,472.8425598144531,700.322265625,580.1664428710938,272.8454284667969,785.861572265625,500.30914306640625,190.71937561035156,680.7491455078125,750.3579711914062,196.09033203125,1046.5457763671875,529.7669067382812,795.949951171875,989.701416015625,474.5580749511719,567.1797485351562,997.8873291015625,446.1723937988281,432.52032470703125,945.0747680664062,398.7624206542969,228.40542602539062,882.221923828125,316.4654846191406,170.3661346435547,927.9830322265625,579.1422729492188,176.19517517089844,0.0,0.0,0.0,0.0,0.0,0.0,0.0,0.0,0.0,0.0,0.0,0.0,1.0,5.0292,8.1874,-1.3925,0.1831,-0.4272,-0.1221,99.6405,-31.2231,-159.906,0.2993,0.6943,-0.6477,-0.0941,0.0,0.0,0.0,0.0,0.0,0.0,0.0,0.0,0.0,0.0,0.0,0.0,1.0,0.0,0.0,0.0,0.0,0.0,0.0,0.0,0.0,0.0,0.0,0.0,0.0,1.0,0.0,0.0,0.0,0.0,0.0,0.0,0.0,0.0,0.0,0.0,0.0,0.0,1.0,0.0,0.0,0.0,0.0,0.0,0.0,0.0,0.0,0.0,0.0,0.0,0.0,1.0,0.0,0.0,0.0,0.0,0.0,0.0,0.0,0.0,0.0,0.0,0.0,0.0,1.0,0,0,0,0,0,0,0,0,0,0,0,0,0,0,0,0,0,0,0,0,0,0,0,0,0,0,0,0,0,0,0,0,0,0,0,0
1777290949.4685404,9982,1777290944.030841,1777290943.9763174,,0,0,54.52370643615723,,1,0,0.0,0.0,0.0,0.0,0.0,0.0,0.0,0.0,0.0,0.0,0.0,0.0,0.0,0.0,0.0,0.0,0.0,0.0,0.0,0.0,0.0,0.0,0.0,0.0,0.0,0.0,0.0,748.7739868164062,572.7215576171875,1123.4400634765625,999.7937622070312,600.9520263671875,1119.5489501953125,795.27392578125,394.0473937988281,1153.4593505859375,955.963134765625,394.6855163574219,1154.1756591796875,681.1747436523438,524.0123901367188,876.1618041992188,697.6857299804688,641.1060791015625,636.1557006835938,682.2328491210938,594.9359130859375,468.13525390625,699.1605834960938,597.7657470703125,267.6701965332031,784.4318237304688,521.8854370117188,181.32498168945312,680.956787109375,771.8593139648438,199.52902221679688,1046.236572265625,527.1016845703125,795.3630981445312,989.6636962890625,469.6766052246094,566.9864501953125,997.8397216796875,440.2796630859375,432.49774169921875,945.1051025390625,391.3850402832031,228.73670959472656,882.411865234375,308.8292236328125,170.5480499267578,928.216552734375,571.5228271484375,176.17202758789062,0.0,0.0,0.0,0.0,0.0,0.0,0.0,0.0,0.0,0.0,0.0,0.0,1.0,5.0292,8.1874,-1.3925,0.1831,-0.4272,-0.1221,99.6405,-31.2231,-159.906,0.2993,0.6943,-0.6477,-0.0941,0.0,0.0,0.0,0.0,0.0,0.0,0.0,0.0,0.0,0.0,0.0,0.0,1.0,0.0,0.0,0.0,0.0,0.0,0.0,0.0,0.0,0.0,0.0,0.0,0.0,1.0,0.0,0.0,0.0,0.0,0.0,0.0,0.0,0.0,0.0,0.0,0.0,0.0,1.0,0.0,0.0,0.0,0.0,0.0,0.0,0.0,0.0,0.0,0.0,0.0,0.0,1.0,0.0,0.0,0.0,0.0,0.0,0.0,0.0,0.0,0.0,0.0,0.0,0.0,1.0,0,0,0,0,0,0,0,0,0,0,0,0,0,0,0,0,0,0,0,0,0,0,0,0,0,0,0,0,0,0,0,0,0,0,0,0
1777290949.4685404,9983,1777290944.0435078,1777290943.9763174,,0,0,67.19040870666504,,1,0,0.0,0.0,0.0,0.0,0.0,0.0,0.0,0.0,0.0,0.0,0.0,0.0,0.0,0.0,0.0,0.0,0.0,0.0,0.0,0.0,0.0,0.0,0.0,0.0,0.0,0.0,0.0,748.381103515625,572.2444458007812,1122.71728515625,999.4231567382812,600.5105590820312,1118.6702880859375,794.8186645507812,393.6750183105469,1153.094482421875,955.4990844726562,394.3140563964844,1153.8538818359375,680.6798095703125,521.6986083984375,874.9282836914062,698.1595458984375,638.4319458007812,634.3450317382812,681.6652221679688,600.652099609375,463.7490539550781,698.18310546875,614.9462280273438,263.3183898925781,782.8136596679688,543.0699462890625,173.0561981201172,681.9945068359375,792.6460571289062,203.9974365234375,1045.876708984375,524.5281372070312,794.75390625,989.599853515625,464.8711853027344,566.7855224609375,997.7811279296875,434.457763671875,432.479248046875,945.147705078125,384.0235595703125,229.09422302246094,882.61328125,301.1817932128906,170.74349975585938,928.4383544921875,563.9008178710938,176.13748168945312,0.0,0.0,0.0,0.0,0.0,0.0,0.0,0.0,0.0,0.0,0.0,0.0,1.0,5.0292,8.1874,-1.3925,0.1831,-0.4272,-0.1221,99.6405,-31.2231,-159.906,0.2993,0.6943,-0.6477,-0.0941,0.0,0.0,0.0,0.0,0.0,0.0,0.0,0.0,0.0,0.0,0.0,0.0,1.0,0.0,0.0,0.0,0.0,0.0,0.0,0.0,0.0,0.0,0.0,0.0,0.0,1.0,0.0,0.0,0.0,0.0,0.0,0.0,0.0,0.0,0.0,0.0,0.0,0.0,1.0,0.0,0.0,0.0,0.0,0.0,0.0,0.0,0.0,0.0,0.0,0.0,0.0,1.0,0.0,0.0,0.0,0.0,0.0,0.0,0.0,0.0,0.0,0.0,0.0,0.0,1.0,0,0,0,0,0,0,0,0,0,0,0,0,0,0,0,0,0,0,0,0,0,0,0,0,0,0,0,0,0,0,0,0,0,0,0,0
1777290949.4685404,9984,1777290944.0455563,1777290943.9763174,,0,0,69.23890113830566,,1,0,0.0,0.0,0.0,0.0,0.0,0.0,0.0,0.0,0.0,0.0,0.0,0.0,0.0,0.0,0.0,0.0,0.0,0.0,0.0,0.0,0.0,0.0,0.0,0.0,0.0,0.0,0.0,747.929443359375,571.8939208984375,1121.9073486328125,999.0009155273438,600.1473999023438,1117.7498779296875,794.2716674804688,393.4227294921875,1152.6175537109375,954.946044921875,394.0311584472656,1153.4376220703125,680.024169921875,519.5687255859375,873.569580078125,698.6030883789062,635.5929565429688,632.3455810546875,681.177978515625,606.0227661132812,459.7328186035156,697.4204711914062,631.44580078125,259.7906494140625,781.03369140625,563.5426635742188,165.95668029785156,683.8612670898438,812.4485473632812,209.3777618408203,1045.4595947265625,522.0580444335938,794.1258544921875,989.5032348632812,460.1493225097656,566.5835571289062,997.7050170898438,428.7107849121094,432.4717102050781,945.1951293945312,376.6817932128906,229.4834442138672,882.8203735351562,293.5252380371094,170.9515838623047,928.64453125,556.2753295898438,176.0911102294922,0.0,0.0,0.0,0.0,0.0,0.0,0.0,0.0,0.0,0.0,0.0,0.0,1.0,5.0292,8.1874,-1.3925,0.1831,-0.4272,-0.1221,99.6405,-31.2231,-159.906,0.2993,0.6943,-0.6477,-0.0941,0.0,0.0,0.0,0.0,0.0,0.0,0.0,0.0,0.0,0.0,0.0,0.0,1.0,0.0,0.0,0.0,0.0,0.0,0.0,0.0,0.0,0.0,0.0,0.0,0.0,1.0,0.0,0.0,0.0,0.0,0.0,0.0,0.0,0.0,0.0,0.0,0.0,0.0,1.0,0.0,0.0,0.0,0.0,0.0,0.0,0.0,0.0,0.0,0.0,0.0,0.0,1.0,0.0,0.0,0.0,0.0,0.0,0.0,0.0,0.0,0.0,0.0,0.0,0.0,1.0,0,0,0,0,0,0,0,0,0,0,0,0,0,0,0,0,0,0,0,0,0,0,0,0,0,0,0,0,0,0,0,0,0,0,0,0
1777290949.4685404,9985,1777290944.0613036,1777290944.0613036,,0,0,0.0,,1,0,0.0,0.0,0.0,0.0,0.0,0.0,0.0,0.0,0.0,0.0,0.0,0.0,0.0,0.0,0.0,0.0,0.0,0.0,0.0,0.0,0.0,0.0,0.0,0.0,0.0,0.0,0.0,747.4197387695312,571.6761474609375,1121.0233154296875,998.5287475585938,599.8670043945312,1116.798828125,793.6340942382812,393.2937927246094,1152.031982421875,954.3052978515625,393.84088134765625,1152.92724609375,679.23779296875,517.6548461914062,872.1070556640625,699.0242919921875,632.677490234375,630.200439453125,680.7984619140625,610.9808349609375,456.11016845703125,696.9032592773438,646.9920654296875,257.0429382324219,779.1712036132812,582.9599609375,160.04505920410156,686.4983520507812,830.9720458984375,215.46072387695312,1044.9793701171875,519.7012939453125,793.482177734375,989.3667602539062,455.5173034667969,566.387451171875,997.6044921875,423.0410461425781,432.4829406738281,945.2384643554688,369.36334228515625,229.90980529785156,883.025634765625,285.8622131347656,171.17063903808594,928.8336791992188,548.6461181640625,176.03465270996094,0.0,0.0,0.0,0.0,0.0,0.0,0.0,0.0,0.0,0.0,0.0,0.0,1.0,5.0292,8.1826,-1.3877,0.1831,-0.4272,-0.1221,99.6405,-31.2231,-159.9005,0.2994,0.6942,-0.6477,-0.094,0.0,0.0,0.0,0.0,0.0,0.0,0.0,0.0,0.0,0.0,0.0,0.0,1.0,0.0,0.0,0.0,0.0,0.0,0.0,0.0,0.0,0.0,0.0,0.0,0.0,1.0,0.0,0.0,0.0,0.0,0.0,0.0,0.0,0.0,0.0,0.0,0.0,0.0,1.0,0.0,0.0,0.0,0.0,0.0,0.0,0.0,0.0,0.0,0.0,0.0,0.0,1.0,0.0,0.0,0.0,0.0,0.0,0.0,0.0,0.0,0.0,0.0,0.0,0.0,1.0,0,0,0,0,0,0,0,0,0,0,0,0,0,0,0,0,0,0,0,0,0,0,0,0,0,0,0,0,0,0,0,0,0,0,0,0
1777290949.4685404,9986,1777290944.0774355,1777290944.0613036,,0,0,16.131877899169922,,1,0,0.0,0.0,0.0,0.0,0.0,0.0,0.0,0.0,0.0,0.0,0.0,0.0,0.0,0.0,0.0,0.0,0.0,0.0,0.0,0.0,0.0,0.0,0.0,0.0,0.0,0.0,0.0,746.8525390625,571.5968627929688,1120.078125,998.0076293945312,599.6744384765625,1115.8277587890625,792.9072875976562,393.29083251953125,1151.3424072265625,953.578369140625,393.7469177246094,1152.3243408203125,678.3551025390625,515.9896850585938,870.5621337890625,699.431884765625,629.7749633789062,627.9517211914062,680.5502319335938,615.4642333984375,452.8792724609375,696.6611938476562,661.3162841796875,254.98826599121094,777.3465576171875,600.9630126953125,155.30079650878906,689.7981567382812,847.916015625,221.9545440673828,1044.4306640625,517.4663696289062,792.8258666992188,989.1832275390625,450.9808044433594,566.2044677734375,997.4722900390625,417.44952392578125,432.5215148925781,945.2677612304688,362.071533203125,230.3787384033203,883.219970703125,278.1962585449219,171.3992156982422,929.0075073242188,541.0137939453125,175.97169494628906,0.0,0.0,0.0,0.0,0.0,0.0,0.0,0.0,0.0,0.0,0.0,0.0,1.0,5.0292,8.1826,-1.3877,0.1831,-0.4272,-0.1221,99.6405,-31.2231,-159.9005,0.2994,0.6942,-0.6477,-0.094,0.0,0.0,0.0,0.0,0.0,0.0,0.0,0.0,0.0,0.0,0.0,0.0,1.0,0.0,0.0,0.0,0.0,0.0,0.0,0.0,0.0,0.0,0.0,0.0,0.0,1.0,0.0,0.0,0.0,0.0,0.0,0.0,0.0,0.0,0.0,0.0,0.0,0.0,1.0,0.0,0.0,0.0,0.0,0.0,0.0,0.0,0.0,0.0,0.0,0.0,0.0,1.0,0.0,0.0,0.0,0.0,0.0,0.0,0.0,0.0,0.0,0.0,0.0,0.0,1.0,0,0,0,0,0,0,0,0,0,0,0,0,0,0,0,0,0,0,0,0,0,0,0,0,0,0,0,0,0,0,0,0,0,0,0,0
1777290949.4685404,9987,1777290944.0795918,1777290944.0613036,,0,0,18.288135528564453,,1,0,0.0,0.0,0.0,0.0,0.0,0.0,0.0,0.0,0.0,0.0,0.0,0.0,0.0,0.0,0.0,0.0,0.0,0.0,0.0,0.0,0.0,0.0,0.0,0.0,0.0,0.0,0.0,746.2277221679688,571.6608276367188,1119.0855712890625,997.437744140625,599.5751953125,1114.847412109375,792.0927734375,393.4158020019531,1150.5555419921875,952.7669677734375,393.7525634765625,1151.6322021484375,677.412841796875,514.606201171875,868.955810546875,699.8344116210938,626.9723510742188,625.6397705078125,680.4524536132812,619.4189453125,450.0150146484375,696.7210693359375,674.1680297851562,253.50274658203125,775.70263671875,617.1919555664062,151.65115356445312,693.6202392578125,862.9986572265625,228.5032501220703,1043.809326171875,515.3610229492188,792.1593017578125,988.945556640625,446.5459899902344,566.0415649414062,997.3016357421875,411.93658447265625,432.5963134765625,945.2732543945312,354.80908203125,230.89576721191406,883.3937377929688,270.5314636230469,171.63717651367188,929.1703491210938,533.3807373046875,175.9058380126953,0.0,0.0,0.0,0.0,0.0,0.0,0.0,0.0,0.0,0.0,0.0,0.0,1.0,5.0292,8.1826,-1.3877,0.1831,-0.4272,-0.1221,99.6405,-31.2231,-159.9005,0.2994,0.6942,-0.6477,-0.094,0.0,0.0,0.0,0.0,0.0,0.0,0.0,0.0,0.0,0.0,0.0,0.0,1.0,0.0,0.0,0.0,0.0,0.0,0.0,0.0,0.0,0.0,0.0,0.0,0.0,1.0,0.0,0.0,0.0,0.0,0.0,0.0,0.0,0.0,0.0,0.0,0.0,0.0,1.0,0.0,0.0,0.0,0.0,0.0,0.0,0.0,0.0,0.0,0.0,0.0,0.0,1.0,0.0,0.0,0.0,0.0,0.0,0.0,0.0,0.0,0.0,0.0,0.0,0.0,1.0,0,0,0,0,0,0,0,0,0,0,0,0,0,0,0,0,0,0,0,0,0,0,0,0,0,0,0,0,0,0,0,0,0,0,0,0
1777290949.4685404,9988,1777290944.0954862,1777290944.0613036,,0,0,34.18254852294922,,1,0,0.0,0.0,0.0,0.0,0.0,0.0,0.0,0.0,0.0,0.0,0.0,0.0,0.0,0.0,0.0,0.0,0.0,0.0,0.0,0.0,0.0,0.0,0.0,0.0,0.0,0.0,0.0,745.5451049804688,571.8719482421875,1118.0595703125,996.8185424804688,599.5750732421875,1113.8681640625,791.1924438476562,393.6700134277344,1149.6798095703125,951.8731079101562,393.8604736328125,1150.8558349609375,676.447998046875,513.5362548828125,867.3087768554688,700.2391357421875,624.3507080078125,623.3017578125,680.5203247070312,622.8020629882812,447.4732360839844,697.1029052734375,685.3311767578125,252.43560791015625,774.3810424804688,631.3056030273438,148.96871948242188,697.8110961914062,875.9810180664062,234.71231079101562,1043.112548828125,513.392822265625,791.4844360351562,988.647216796875,442.22064208984375,565.9049072265625,997.086181640625,406.5028076171875,432.7161560058594,945.24609375,347.5782165527344,231.46694946289062,883.5372314453125,262.87249755859375,171.88706970214844,929.3273315429688,525.75048828125,175.83901977539062,0.0,0.0,0.0,0.0,0.0,0.0,0.0,0.0,0.0,0.0,0.0,0.0,1.0,5.0292,8.1826,-1.3877,0.1831,-0.4272,-0.1221,99.6405,-31.2231,-159.9005,0.2994,0.6942,-0.6477,-0.094,0.0,0.0,0.0,0.0,0.0,0.0,0.0,0.0,0.0,0.0,0.0,0.0,1.0,0.0,0.0,0.0,0.0,0.0,0.0,0.0,0.0,0.0,0.0,0.0,0.0,1.0,0.0,0.0,0.0,0.0,0.0,0.0,0.0,0.0,0.0,0.0,0.0,0.0,1.0,0.0,0.0,0.0,0.0,0.0,0.0,0.0,0.0,0.0,0.0,0.0,0.0,1.0,0.0,0.0,0.0,0.0,0.0,0.0,0.0,0.0,0.0,0.0,0.0,0.0,1.0,0,0,0,0,0,0,0,0,0,0,0,0,0,0,0,0,0,0,0,0,0,0,0,0,0,0,0,0,0,0,0,0,0,0,0,0
1777290949.4685404,9989,1777290944.0974853,1777290944.0613036,,0,0,36.18168830871582,,1,0,0.0,0.0,0.0,0.0,0.0,0.0,0.0,0.0,0.0,0.0,0.0,0.0,0.0,0.0,0.0,0.0,0.0,0.0,0.0,0.0,0.0,0.0,0.0,0.0,0.0,0.0,0.0,744.803955078125,572.233154296875,1117.0140380859375,996.1487426757812,599.6798095703125,1112.89990234375,790.20849609375,394.0538635253906,1148.7257080078125,950.899169921875,394.0726013183594,1150.00146484375,675.4953002929688,512.80859375,865.6412963867188,700.6510620117188,621.9814453125,620.9710083007812,680.7644653320312,625.5840454101562,445.19635009765625,697.8154296875,694.6392211914062,251.622802734375,773.4985961914062,643.0049438476562,147.08741760253906,702.22216796875,886.6904296875,240.17868041992188,1042.3392333984375,511.5700378417969,790.8027954101562,988.2821655273438,438.0154113769531,565.799560546875,996.820556640625,401.14990234375,432.8893737792969,945.1792602539062,340.3804931640625,232.09930419921875,883.6419677734375,255.2248992919922,172.15557861328125,929.48388671875,518.1278076171875,175.77101135253906,0.0,0.0,0.0,0.0,0.0,0.0,0.0,0.0,0.0,0.0,0.0,0.0,1.0,5.0292,8.1826,-1.3877,0.1831,-0.4272,-0.1221,99.6405,-31.2231,-159.9005,0.2994,0.6942,-0.6477,-0.094,0.0,0.0,0.0,0.0,0.0,0.0,0.0,0.0,0.0,0.0,0.0,0.0,1.0,0.0,0.0,0.0,0.0,0.0,0.0,0.0,0.0,0.0,0.0,0.0,0.0,1.0,0.0,0.0,0.0,0.0,0.0,0.0,0.0,0.0,0.0,0.0,0.0,0.0,1.0,0.0,0.0,0.0,0.0,0.0,0.0,0.0,0.0,0.0,0.0,0.0,0.0,1.0,0.0,0.0,0.0,0.0,0.0,0.0,0.0,0.0,0.0,0.0,0.0,0.0,1.0,0,0,0,0,0,0,0,0,0,0,0,0,0,0,0,0,0,0,0,0,0,0,0,0,0,0,0,0,0,0,0,0,0,0,0,0
1777290949.4685404,9990,1777290944.1121724,1777290944.0613036,,0,0,50.86874961853027,,1,0,0.0,0.0,0.0,0.0,0.0,0.0,0.0,0.0,0.0,0.0,0.0,0.0,0.0,0.0,0.0,0.0,0.0,0.0,0.0,0.0,0.0,0.0,0.0,0.0,0.0,0.0,0.0,744.0033569335938,572.745849609375,1115.9627685546875,995.4263305664062,599.894775390625,1111.9522705078125,789.1435546875,394.56671142578125,1147.7052001953125,949.8478393554688,394.3898620605469,1149.0777587890625,674.5848999023438,512.4465942382812,863.972900390625,701.0723876953125,619.9232177734375,618.6766357421875,681.1905517578125,627.7508544921875,443.1202087402344,698.8508911132812,701.98828125,250.90257263183594,773.1248168945312,652.0576171875,145.83189392089844,706.7225952148438,895.0387573242188,244.5230255126953,1041.4896240234375,509.9019775390625,790.1152954101562,987.845458984375,433.9452819824219,565.7289428710938,996.5003662109375,395.88177490234375,433.1234436035156,945.068603515625,333.2170715332031,232.8013153076172,883.7018432617188,247.59495544433594,172.45506286621094,929.6449584960938,510.5175476074219,175.69956970214844,0.0,0.0,0.0,0.0,0.0,0.0,0.0,0.0,0.0,0.0,0.0,0.0,1.0,5.0292,8.1826,-1.3877,0.1831,-0.4272,-0.1221,99.6405,-31.2231,-159.9005,0.2994,0.6942,-0.6477,-0.094,0.0,0.0,0.0,0.0,0.0,0.0,0.0,0.0,0.0,0.0,0.0,0.0,1.0,0.0,0.0,0.0,0.0,0.0,0.0,0.0,0.0,0.0,0.0,0.0,0.0,1.0,0.0,0.0,0.0,0.0,0.0,0.0,0.0,0.0,0.0,0.0,0.0,0.0,1.0,0.0,0.0,0.0,0.0,0.0,0.0,0.0,0.0,0.0,0.0,0.0,0.0,1.0,0.0,0.0,0.0,0.0,0.0,0.0,0.0,0.0,0.0,0.0,0.0,0.0,1.0,0,0,0,0,0,0,0,0,0,0,0,0,0,0,0,0,0,0,0,0,0,0,0,0,0,0,0,0,0,0,0,0,0,0,0,0
1777290949.4685404,9991,1777290944.129428,1777290944.0613036,,0,0,68.12429428100586,,1,0,0.0,0.0,0.0,0.0,0.0,0.0,0.0,0.0,0.0,0.0,0.0,0.0,0.0,0.0,0.0,0.0,0.0,0.0,0.0,0.0,0.0,0.0,0.0,0.0,0.0,0.0,0.0,743.1422119140625,573.4100341796875,1114.9195556640625,994.6485595703125,600.224609375,1111.034912109375,788.0006103515625,395.206787109375,1146.6324462890625,948.7223510742188,394.8119201660156,1148.094482421875,673.7409057617188,512.4658813476562,862.322509765625,701.501953125,618.2195434570312,616.443359375,681.7979125976562,629.3056640625,441.1816101074219,700.1819458007812,707.3475952148438,250.13134765625,773.2662963867188,658.3245849609375,145.0460968017578,711.2044067382812,901.0341796875,247.42274475097656,1040.5660400390625,508.39996337890625,789.4224853515625,987.3331298828125,430.03118896484375,565.6944580078125,996.12255859375,390.7059020996094,433.42486572265625,944.9130249023438,326.089111328125,233.58299255371094,883.7153930664062,239.9897003173828,172.80535888671875,929.81494140625,502.923828125,175.62106323242188,0.0,0.0,0.0,0.0,0.0,0.0,0.0,0.0,0.0,0.0,0.0,0.0,1.0,5.0292,8.1826,-1.3877,0.1831,-0.4272,-0.1221,99.6405,-31.2231,-159.9005,0.2994,0.6942,-0.6477,-0.094,0.0,0.0,0.0,0.0,0.0,0.0,0.0,0.0,0.0,0.0,0.0,0.0,1.0,0.0,0.0,0.0,0.0,0.0,0.0,0.0,0.0,0.0,0.0,0.0,0.0,1.0,0.0,0.0,0.0,0.0,0.0,0.0,0.0,0.0,0.0,0.0,0.0,0.0,1.0,0.0,0.0,0.0,0.0,0.0,0.0,0.0,0.0,0.0,0.0,0.0,0.0,1.0,0.0,0.0,0.0,0.0,0.0,0.0,0.0,0.0,0.0,0.0,0.0,0.0,1.0,0,0,0,0,0,0,0,0,0,0,0,0,0,0,0,0,0,0,0,0,0,0,0,0,0,0,0,0,0,0,0,0,0,0,0,0
1777290949.4685404,9992,1777290944.1342099,1777290944.0613036,,0,0,72.9062557220459,,1,0,0.0,0.0,0.0,0.0,0.0,0.0,0.0,0.0,0.0,0.0,0.0,0.0,0.0,0.0,0.0,0.0,0.0,0.0,0.0,0.0,0.0,0.0,0.0,0.0,0.0,0.0,0.0,742.2191162109375,574.2236328125,1113.8983154296875,993.8123779296875,600.6723022460938,1110.1568603515625,786.7833251953125,395.97076416015625,1145.5230712890625,947.5261840820312,395.3370056152344,1147.0631103515625,672.9793701171875,512.872314453125,860.708251953125,701.934814453125,616.8975219726562,614.2921752929688,682.5779418945312,630.2702026367188,439.32525634765625,701.760498046875,710.76416015625,249.19764709472656,773.8629760742188,661.785888671875,144.6117401123047,715.5806884765625,904.7830200195312,248.6439666748047,1039.5721435546875,507.07769775390625,788.7244873046875,986.742919921875,426.3013000488281,565.6952514648438,995.685791015625,385.6346740722656,433.79925537109375,944.7145385742188,318.99853515625,234.4558563232422,883.6876220703125,232.41650390625,173.23529052734375,929.9974975585938,495.3492736816406,175.53135681152344,0.0,0.0,0.0,0.0,0.0,0.0,0.0,0.0,0.0,0.0,0.0,0.0,1.0,5.0292,8.1826,-1.3877,0.1831,-0.4272,-0.1221,99.6405,-31.2231,-159.9005,0.2994,0.6942,-0.6477,-0.094,0.0,0.0,0.0,0.0,0.0,0.0,0.0,0.0,0.0,0.0,0.0,0.0,1.0,0.0,0.0,0.0,0.0,0.0,0.0,0.0,0.0,0.0,0.0,0.0,0.0,1.0,0.0,0.0,0.0,0.0,0.0,0.0,0.0,0.0,0.0,0.0,0.0,0.0,1.0,0.0,0.0,0.0,0.0,0.0,0.0,0.0,0.0,0.0,0.0,0.0,0.0,1.0,0.0,0.0,0.0,0.0,0.0,0.0,0.0,0.0,0.0,0.0,0.0,0.0,1.0,0,0,0,0,0,0,0,0,0,0,0,0,0,0,0,0,0,0,0,0,0,0,0,0,0,0,0,0,0,0,0,0,0,0,0,0
1777290949.4685404,9993,1777290944.149055,1777290944.1481571,,0,0,0.8978843688964844,,1,0,0.0,0.0,0.0,0.0,0.0,0.0,0.0,0.0,0.0,0.0,0.0,0.0,0.0,0.0,0.0,0.0,0.0,0.0,0.0,0.0,0.0,0.0,0.0,0.0,0.0,0.0,0.0,741.2329711914062,575.1824951171875,1112.91259765625,992.914306640625,601.2391357421875,1109.327392578125,785.4957885742188,396.85369873046875,1144.3941650390625,946.2634887695312,395.9615783691406,1145.996826171875,672.30810546875,513.66015625,859.1476440429688,702.3621826171875,615.9674072265625,612.2412109375,683.5117797851562,630.6862182617188,437.5098876953125,703.5189819335938,712.3624267578125,248.03170776367188,774.7997436523438,662.56103515625,144.45391845703125,719.7803344726562,906.482421875,248.06935119628906,1038.5133056640625,505.9516906738281,788.0216674804688,986.0746459960938,422.7926940917969,565.7284545898438,995.1911010742188,380.687255859375,434.2514953613281,944.4784545898438,311.9491882324219,235.433349609375,883.6307373046875,224.88287353515625,173.78302001953125,930.195068359375,487.7945556640625,175.42657470703125,0.0,0.0,0.0,0.0,0.0,0.0,0.0,0.0,0.0,0.0,0.0,0.0,1.0,5.034,8.1826,-1.3877,0.1831,-0.3662,-0.1221,99.6405,-31.2231,-159.906,0.2993,0.6943,-0.6477,-0.0941,0.0,0.0,0.0,0.0,0.0,0.0,0.0,0.0,0.0,0.0,0.0,0.0,1.0,0.0,0.0,0.0,0.0,0.0,0.0,0.0,0.0,0.0,0.0,0.0,0.0,1.0,0.0,0.0,0.0,0.0,0.0,0.0,0.0,0.0,0.0,0.0,0.0,0.0,1.0,0.0,0.0,0.0,0.0,0.0,0.0,0.0,0.0,0.0,0.0,0.0,0.0,1.0,0.0,0.0,0.0,0.0,0.0,0.0,0.0,0.0,0.0,0.0,0.0,0.0,1.0,0,0,0,0,0,0,0,0,0,0,0,0,0,0,0,0,0,0,0,0,0,0,0,0,0,0,0,0,0,0,0,0,0,0,0,0
1777290949.4685404,9994,1777290944.150158,1777290944.1481571,,0,0,2.0008087158203125,,1,0,0.0,0.0,0.0,0.0,0.0,0.0,0.0,0.0,0.0,0.0,0.0,0.0,0.0,0.0,0.0,0.0,0.0,0.0,0.0,0.0,0.0,0.0,0.0,0.0,0.0,0.0,0.0,740.1827392578125,576.2799072265625,1111.9759521484375,991.9507446289062,601.923828125,1108.555419921875,784.1426391601562,397.8487854003906,1143.2637939453125,944.938720703125,396.6800537109375,1144.9095458984375,671.7261352539062,514.8115234375,857.6576538085938,702.7711791992188,615.4242553710938,610.3072509765625,684.5682373046875,630.6151733398438,435.7121276855469,705.3751831054688,712.3362426757812,246.6094970703125,775.9306640625,660.9140014648438,144.53529357910156,723.7412109375,906.4010620117188,245.7171173095703,1037.39599609375,505.04180908203125,787.3143920898438,985.3303833007812,419.5522155761719,565.7888793945312,994.64208984375,375.8910827636719,434.7862854003906,944.213623046875,304.94873046875,236.53134155273438,883.56396484375,217.39633178710938,174.49537658691406,930.408447265625,480.25811767578125,175.3040008544922,0.0,0.0,0.0,0.0,0.0,0.0,0.0,0.0,0.0,0.0,0.0,0.0,1.0,5.034,8.1826,-1.3877,0.1831,-0.3662,-0.1221,99.6405,-31.2231,-159.906,0.2993,0.6943,-0.6477,-0.0941,0.0,0.0,0.0,0.0,0.0,0.0,0.0,0.0,0.0,0.0,0.0,0.0,1.0,0.0,0.0,0.0,0.0,0.0,0.0,0.0,0.0,0.0,0.0,0.0,0.0,1.0,0.0,0.0,0.0,0.0,0.0,0.0,0.0,0.0,0.0,0.0,0.0,0.0,1.0,0.0,0.0,0.0,0.0,0.0,0.0,0.0,0.0,0.0,0.0,0.0,0.0,1.0,0.0,0.0,0.0,0.0,0.0,0.0,0.0,0.0,0.0,0.0,0.0,0.0,1.0,0,0,0,0,0,0,0,0,0,0,0,0,0,0,0,0,0,0,0,0,0,0,0,0,0,0,0,0,0,0,0,0,0,0,0,0
1777290949.4685404,9995,1777290944.1652718,1777290944.1481571,,0,0,17.114639282226562,,1,0,0.0,0.0,0.0,0.0,0.0,0.0,0.0,0.0,0.0,0.0,0.0,0.0,0.0,0.0,0.0,0.0,0.0,0.0,0.0,0.0,0.0,0.0,0.0,0.0,0.0,0.0,0.0,739.0678100585938,577.5062866210938,1111.102294921875,990.9185791015625,602.7220458984375,1107.8499755859375,782.7290649414062,398.94720458984375,1142.1512451171875,943.5567016601562,397.48480224609375,1143.816650390625,671.2246704101562,516.296142578125,856.255126953125,703.1453247070312,615.2491455078125,608.5064697265625,685.7020874023438,630.1365356445312,433.9283142089844,707.23828125,710.933349609375,244.9505615234375,777.1077270507812,657.2347412109375,144.84385681152344,727.4053344726562,904.8507690429688,241.74563598632812,1036.22802734375,504.3712158203125,786.6038208007812,984.5155029296875,416.6371154785156,565.8697509765625,994.0455322265625,371.2835388183594,435.40863037109375,943.9323120117188,298.0104675292969,237.76905822753906,883.5114135742188,209.9645538330078,175.42584228515625,930.636474609375,472.73651123046875,175.16275024414062,0.0,0.0,0.0,0.0,0.0,0.0,0.0,0.0,0.0,0.0,0.0,0.0,1.0,5.034,8.1826,-1.3877,0.1831,-0.3662,-0.1221,99.6405,-31.2231,-159.906,0.2993,0.6943,-0.6477,-0.0941,0.0,0.0,0.0,0.0,0.0,0.0,0.0,0.0,0.0,0.0,0.0,0.0,1.0,0.0,0.0,0.0,0.0,0.0,0.0,0.0,0.0,0.0,0.0,0.0,0.0,1.0,0.0,0.0,0.0,0.0,0.0,0.0,0.0,0.0,0.0,0.0,0.0,0.0,1.0,0.0,0.0,0.0,0.0,0.0,0.0,0.0,0.0,0.0,0.0,0.0,0.0,1.0,0.0,0.0,0.0,0.0,0.0,0.0,0.0,0.0,0.0,0.0,0.0,0.0,1.0,0,0,0,0,0,0,0,0,0,0,0,0,0,0,0,0,0,0,0,0,0,0,0,0,0,0,0,0,0,0,0,0,0,0,0,0
1777290949.4685404,9996,1777290944.16789,1777290944.1481571,,0,0,19.732952117919922,,1,0,0.0,0.0,0.0,0.0,0.0,0.0,0.0,0.0,0.0,0.0,0.0,0.0,0.0,0.0,0.0,0.0,0.0,0.0,0.0,0.0,0.0,0.0,0.0,0.0,0.0,0.0,0.0,737.8883056640625,578.8492431640625,1110.3048095703125,989.8150024414062,603.6263427734375,1107.219970703125,781.2608642578125,400.137939453125,1141.075927734375,942.1227416992188,398.3658752441406,1142.7337646484375,670.7881469726562,518.072509765625,854.9571533203125,703.4653930664062,615.412109375,606.85546875,686.85400390625,629.3430786132812,432.1740417480469,709.0159301757812,708.43310546875,243.1105499267578,778.2052612304688,651.9940185546875,145.37850952148438,730.7185668945312,902.1505126953125,236.4392547607422,1035.017822265625,503.96630859375,785.8920288085938,983.6385498046875,414.11492919921875,565.9633178710938,993.4112548828125,366.9129638671875,436.12457275390625,943.6503295898438,291.1557312011719,239.16993713378906,883.4984130859375,202.59567260742188,176.63124084472656,930.87548828125,465.22503662109375,175.00457763671875,0.0,0.0,0.0,0.0,0.0,0.0,0.0,0.0,0.0,0.0,0.0,0.0,1.0,5.034,8.1826,-1.3877,0.1831,-0.3662,-0.1221,99.6405,-31.2231,-159.906,0.2993,0.6943,-0.6477,-0.0941,0.0,0.0,0.0,0.0,0.0,0.0,0.0,0.0,0.0,0.0,0.0,0.0,1.0,0.0,0.0,0.0,0.0,0.0,0.0,0.0,0.0,0.0,0.0,0.0,0.0,1.0,0.0,0.0,0.0,0.0,0.0,0.0,0.0,0.0,0.0,0.0,0.0,0.0,1.0,0.0,0.0,0.0,0.0,0.0,0.0,0.0,0.0,0.0,0.0,0.0,0.0,1.0,0.0,0.0,0.0,0.0,0.0,0.0,0.0,0.0,0.0,0.0,0.0,0.0,1.0,0,0,0,0,0,0,0,0,0,0,0,0,0,0,0,0,0,0,0,0,0,0,0,0,0,0,0,0,0,0,0,0,0,0,0,0
1777290949.4685404,9997,1777290944.1824958,1777290944.1481571,,0,0,34.33871269226074,,1,0,0.0,0.0,0.0,0.0,0.0,0.0,0.0,0.0,0.0,0.0,0.0,0.0,0.0,0.0,0.0,0.0,0.0,0.0,0.0,0.0,0.0,0.0,0.0,0.0,0.0,0.0,0.0,736.64501953125,580.2935791015625,1109.5970458984375,988.6382446289062,604.6253662109375,1106.674072265625,779.7442016601562,401.4078369140625,1140.0574951171875,940.6422729492188,399.3110046386719,1141.67724609375,670.3963623046875,520.0890502929688,853.7810668945312,703.7109985351562,615.8743896484375,605.3713989257812,687.9525146484375,628.3336181640625,430.4815368652344,710.621826171875,705.1194458007812,241.16964721679688,779.1337890625,645.6777954101562,146.1347198486328,733.6342163085938,898.5901489257812,230.17471313476562,1033.77490234375,503.8560485839844,785.1823120117188,982.7118530273438,412.0624694824219,566.0612182617188,992.7525634765625,362.83917236328125,436.9418640136719,943.38671875,284.416015625,240.76229858398438,883.546875,195.29966735839844,178.16798400878906,931.1199951171875,457.71881103515625,174.83444213867188,0.0,0.0,0.0,0.0,0.0,0.0,0.0,0.0,0.0,0.0,0.0,0.0,1.0,5.034,8.1826,-1.3877,0.1831,-0.3662,-0.1221,99.6405,-31.2231,-159.906,0.2993,0.6943,-0.6477,-0.0941,0.0,0.0,0.0,0.0,0.0,0.0,0.0,0.0,0.0,0.0,0.0,0.0,1.0,0.0,0.0,0.0,0.0,0.0,0.0,0.0,0.0,0.0,0.0,0.0,0.0,1.0,0.0,0.0,0.0,0.0,0.0,0.0,0.0,0.0,0.0,0.0,0.0,0.0,1.0,0.0,0.0,0.0,0.0,0.0,0.0,0.0,0.0,0.0,0.0,0.0,0.0,1.0,0.0,0.0,0.0,0.0,0.0,0.0,0.0,0.0,0.0,0.0,0.0,0.0,1.0,0,0,0,0,0,0,0,0,0,0,0,0,0,0,0,0,0,0,0,0,0,0,0,0,0,0,0,0,0,0,0,0,0,0,0,0
1777290949.4685404,9998,1777290944.1851285,1777290944.1481571,,0,0,36.971330642700195,,1,0,0.0,0.0,0.0,0.0,0.0,0.0,0.0,0.0,0.0,0.0,0.0,0.0,0.0,0.0,0.0,0.0,0.0,0.0,0.0,0.0,0.0,0.0,0.0,0.0,0.0,0.0,0.0,735.3397827148438,581.8212280273438,1108.99169921875,987.3878784179688,605.7041625976562,1106.2210693359375,778.185546875,402.74176025390625,1139.114990234375,939.1209106445312,400.3057861328125,1140.6629638671875,670.0258178710938,522.2869873046875,852.7445068359375,703.8624877929688,616.5903930664062,604.0714111328125,688.9188232421875,627.2042236328125,428.8952331542969,711.9827880859375,701.2522583007812,239.2191619873047,779.8429565429688,638.7225952148438,147.09225463867188,736.1207275390625,894.4016723632812,223.37457275390625,1032.5093994140625,504.0710144042969,784.4794921875,981.7515869140625,410.5639343261719,566.15576171875,992.0857543945312,359.13323974609375,437.8705749511719,943.1629638671875,277.8348388671875,242.57980346679688,883.6708374023438,188.0906982421875,180.0896453857422,931.3631591796875,450.21441650390625,174.66043090820312,0.0,0.0,0.0,0.0,0.0,0.0,0.0,0.0,0.0,0.0,0.0,0.0,1.0,5.034,8.1826,-1.3877,0.1831,-0.3662,-0.1221,99.6405,-31.2231,-159.906,0.2993,0.6943,-0.6477,-0.0941,0.0,0.0,0.0,0.0,0.0,0.0,0.0,0.0,0.0,0.0,0.0,0.0,1.0,0.0,0.0,0.0,0.0,0.0,0.0,0.0,0.0,0.0,0.0,0.0,0.0,1.0,0.0,0.0,0.0,0.0,0.0,0.0,0.0,0.0,0.0,0.0,0.0,0.0,1.0,0.0,0.0,0.0,0.0,0.0,0.0,0.0,0.0,0.0,0.0,0.0,0.0,1.0,0.0,0.0,0.0,0.0,0.0,0.0,0.0,0.0,0.0,0.0,0.0,0.0,1.0,0,0,0,0,0,0,0,0,0,0,0,0,0,0,0,0,0,0,0,0,0,0,0,0,0,0,0,0,0,0,0,0,0,0,0,0
1777290949.4685404,9999,1777290944.2006936,1777290944.1481571,,0,0,52.5364875793457,,1,0,0.0,0.0,0.0,0.0,0.0,0.0,0.0,0.0,0.0,0.0,0.0,0.0,0.0,0.0,0.0,0.0,0.0,0.0,0.0,0.0,0.0,0.0,0.0,0.0,0.0,0.0,0.0,733.9756469726562,583.41162109375,1108.500732421875,986.0648803710938,606.8438720703125,1105.8687744140625,776.5916137695312,404.12261962890625,1138.26611328125,937.5643310546875,401.333740234375,1139.7066650390625,669.6522216796875,524.6024169921875,851.8649291992188,703.9033813476562,617.5094604492188,602.9712524414062,689.6741333007812,626.0374145507812,427.4659118652344,713.045654296875,697.0431518554688,237.3486328125,780.3187255859375,631.4696655273438,148.2078857421875,738.1681518554688,889.74560546875,216.4591064453125,1031.2318115234375,504.641845703125,783.790283203125,980.777587890625,409.70794677734375,566.2406616210938,991.4297485351562,355.8760986328125,438.92364501953125,943.0023803710938,271.4690246582031,244.66127014160156,883.8732299804688,180.99102783203125,182.447998046875,931.5982055664062,442.71173095703125,174.49267578125,0.0,0.0,0.0,0.0,0.0,0.0,0.0,0.0,0.0,0.0,0.0,0.0,1.0,5.034,8.1826,-1.3877,0.1831,-0.3662,-0.1221,99.6405,-31.2231,-159.906,0.2993,0.6943,-0.6477,-0.0941,0.0,0.0,0.0,0.0,0.0,0.0,0.0,0.0,0.0,0.0,0.0,0.0,1.0,0.0,0.0,0.0,0.0,0.0,0.0,0.0,0.0,0.0,0.0,0.0,0.0,1.0,0.0,0.0,0.0,0.0,0.0,0.0,0.0,0.0,0.0,0.0,0.0,0.0,1.0,0.0,0.0,0.0,0.0,0.0,0.0,0.0,0.0,0.0,0.0,0.0,0.0,1.0,0.0,0.0,0.0,0.0,0.0,0.0,0.0,0.0,0.0,0.0,0.0,0.0,1.0,0,0,0,0,0,0,0,0,0,0,0,0,0,0,0,0,0,0,0,0,0,0,0,0,0,0,0,0,0,0,0,0,0,0,0,0
1777290949.4685404,10000,1777290944.2042947,1777290944.1481571,,0,0,56.1375617980957,,1,0,0.0,0.0,0.0,0.0,0.0,0.0,0.0,0.0,0.0,0.0,0.0,0.0,0.0,0.0,0.0,0.0,0.0,0.0,0.0,0.0,0.0,0.0,0.0,0.0,0.0,0.0,0.0,732.5567016601562,585.042236328125,1108.1351318359375,984.6721801757812,608.0223999023438,1105.624755859375,774.968994140625,405.5317687988281,1137.5272216796875,935.9778442382812,402.37677001953125,1138.822998046875,669.2518310546875,526.969482421875,851.1586303710938,703.82275390625,618.5764770507812,602.0835571289062,690.1489868164062,624.8931884765625,426.2437438964844,713.7822265625,692.6409912109375,235.63583374023438,780.5757446289062,624.1464233398438,149.41635131835938,739.7921752929688,884.7133178710938,209.80642700195312,1029.953369140625,505.5970153808594,783.1234130859375,979.8128662109375,409.5837097167969,566.3121337890625,990.805419921875,353.1565246582031,440.11700439453125,942.9284057617188,265.3892822265625,247.0498046875,884.1460571289062,174.03604125976562,185.29830932617188,931.8202514648438,435.2163391113281,174.34085083007812,0.0,0.0,0.0,0.0,0.0,0.0,0.0,0.0,0.0,0.0,0.0,0.0,1.0,5.034,8.1826,-1.3877,0.1831,-0.3662,-0.1221,99.6405,-31.2231,-159.906,0.2993,0.6943,-0.6477,-0.0941,0.0,0.0,0.0,0.0,0.0,0.0,0.0,0.0,0.0,0.0,0.0,0.0,1.0,0.0,0.0,0.0,0.0,0.0,0.0,0.0,0.0,0.0,0.0,0.0,0.0,1.0,0.0,0.0,0.0,0.0,0.0,0.0,0.0,0.0,0.0,0.0,0.0,0.0,1.0,0.0,0.0,0.0,0.0,0.0,0.0,0.0,0.0,0.0,0.0,0.0,0.0,1.0,0.0,0.0,0.0,0.0,0.0,0.0,0.0,0.0,0.0,0.0,0.0,0.0,1.0,0,0,0,0,0,0,0,0,0,0,0,0,0,0,0,0,0,0,0,0,0,0,0,0,0,0,0,0,0,0,0,0,0,0,0,0
1777290949.4685404,10001,1777290944.2191627,1777290944.1481571,,0,0,71.00558280944824,,1,0,0.0,0.0,0.0,0.0,0.0,0.0,0.0,0.0,0.0,0.0,0.0,0.0,0.0,0.0,0.0,0.0,0.0,0.0,0.0,0.0,0.0,0.0,0.0,0.0,0.0,0.0,0.0,731.08837890625,586.689208984375,1107.9036865234375,983.2147827148438,609.2144775390625,1105.494873046875,773.3241577148438,406.949462890625,1136.9119873046875,934.3666381835938,403.41546630859375,1138.0250244140625,668.8027954101562,529.3233642578125,850.6395263671875,703.6165161132812,619.731689453125,601.4151611328125,690.2936401367188,623.8023071289062,425.271240234375,714.192138671875,688.130859375,234.14097595214844,780.649169921875,616.8731079101562,150.6394805908203,741.0330200195312,879.3422241210938,203.724853515625,1028.6856689453125,506.9606018066406,782.4896850585938,978.8829345703125,410.2762451171875,566.369873046875,990.2350463867188,351.0675964355469,441.4693908691406,942.9637451171875,259.6795349121094,249.791259765625,884.4720458984375,167.2799835205078,188.70603942871094,932.0284423828125,427.7418518066406,174.21102905273438,0.0,0.0,0.0,0.0,0.0,0.0,0.0,0.0,0.0,0.0,0.0,0.0,1.0,5.034,8.1826,-1.3877,0.1831,-0.3662,-0.1221,99.6405,-31.2231,-159.906,0.2993,0.6943,-0.6477,-0.0941,0.0,0.0,0.0,0.0,0.0,0.0,0.0,0.0,0.0,0.0,0.0,0.0,1.0,0.0,0.0,0.0,0.0,0.0,0.0,0.0,0.0,0.0,0.0,0.0,0.0,1.0,0.0,0.0,0.0,0.0,0.0,0.0,0.0,0.0,0.0,0.0,0.0,0.0,1.0,0.0,0.0,0.0,0.0,0.0,0.0,0.0,0.0,0.0,0.0,0.0,0.0,1.0,0.0,0.0,0.0,0.0,0.0,0.0,0.0,0.0,0.0,0.0,0.0,0.0,1.0,0,0,0,0,0,0,0,0,0,0,0,0,0,0,0,0,0,0,0,0,0,0,0,0,0,0,0,0,0,0,0,0,0,0,0,0
1777290949.4685404,10002,1777290944.2367773,1777290944.1481571,,0,0,88.62018585205078,,1,0,0.0,0.0,0.0,0.0,0.0,0.0,0.0,0.0,0.0,0.0,0.0,0.0,0.0,0.0,0.0,0.0,0.0,0.0,0.0,0.0,0.0,0.0,0.0,0.0,0.0,0.0,0.0,729.5775146484375,588.3278198242188,1107.8133544921875,981.69970703125,610.3926391601562,1105.4840087890625,771.6630249023438,408.35528564453125,1136.4315185546875,932.7354125976562,404.4295654296875,1137.324462890625,668.2857055664062,531.6023559570312,850.3176879882812,703.2886352539062,620.9103393554688,600.96533203125,690.0872802734375,622.763427734375,424.5769958496094,714.3021240234375,683.5431518554688,232.904296875,780.5853271484375,609.6859130859375,151.7998504638672,741.9495849609375,873.637451171875,198.43618774414062,1027.4410400390625,508.74945068359375,781.90185546875,978.0150146484375,411.8612976074219,566.4179077148438,989.7412109375,349.7026672363281,443.00189208984375,943.1283569335938,254.4347686767578,252.93209838867188,884.8282470703125,160.80149841308594,192.75274658203125,932.2279052734375,420.3118591308594,174.1025390625,0.0,0.0,0.0,0.0,0.0,0.0,0.0,0.0,0.0,0.0,0.0,0.0,1.0,5.034,8.1826,-1.3877,0.1831,-0.3662,-0.1221,99.6405,-31.2231,-159.906,0.2993,0.6943,-0.6477,-0.0941,0.0,0.0,0.0,0.0,0.0,0.0,0.0,0.0,0.0,0.0,0.0,0.0,1.0,0.0,0.0,0.0,0.0,0.0,0.0,0.0,0.0,0.0,0.0,0.0,0.0,1.0,0.0,0.0,0.0,0.0,0.0,0.0,0.0,0.0,0.0,0.0,0.0,0.0,1.0,0.0,0.0,0.0,0.0,0.0,0.0,0.0,0.0,0.0,0.0,0.0,0.0,1.0,0.0,0.0,0.0,0.0,0.0,0.0,0.0,0.0,0.0,0.0,0.0,0.0,1.0,0,0,0,0,0,0,0,0,0,0,0,0,0,0,0,0,0,0,0,0,0,0,0,0,0,0,0,0,0,0,0,0,0,0,0,0
1777290949.4685404,10003,1777290944.240978,1777290944.2402434,,0,0,0.7345676422119141,,1,0,0.0,0.0,0.0,0.0,0.0,0.0,0.0,0.0,0.0,0.0,0.0,0.0,0.0,0.0,0.0,0.0,0.0,0.0,0.0,0.0,0.0,0.0,0.0,0.0,0.0,0.0,0.0,728.0319213867188,589.9335327148438,1107.8677978515625,980.1360473632812,611.5280151367188,1105.5948486328125,769.9911499023438,409.7286682128906,1136.0933837890625,931.08837890625,405.3986511230469,1136.730712890625,667.6840209960938,533.7503662109375,850.1979370117188,702.8500366210938,622.0418701171875,600.72412109375,689.5439453125,621.7447509765625,424.17156982421875,714.1614990234375,678.86865234375,231.9453887939453,780.4337768554688,602.56787109375,152.83444213867188,742.6113891601562,867.5946044921875,194.06723022460938,1026.232421875,510.9706115722656,781.3746337890625,977.2368774414062,414.3996276855469,566.46533203125,989.3460083007812,349.15020751953125,444.73681640625,943.438232421875,249.757568359375,256.51654052734375,885.1903076171875,154.70797729492188,197.53945922851562,932.4314575195312,412.9610290527344,174.0054931640625,0.0,0.0,0.0,0.0,0.0,0.0,0.0,0.0,0.0,0.0,0.0,0.0,1.0,5.0292,8.1826,-1.3829,0.1831,-0.3662,-0.061,99.6405,-31.2231,-159.9005,0.2994,0.6942,-0.6477,-0.094,0.0,0.0,0.0,0.0,0.0,0.0,0.0,0.0,0.0,0.0,0.0,0.0,1.0,0.0,0.0,0.0,0.0,0.0,0.0,0.0,0.0,0.0,0.0,0.0,0.0,1.0,0.0,0.0,0.0,0.0,0.0,0.0,0.0,0.0,0.0,0.0,0.0,0.0,1.0,0.0,0.0,0.0,0.0,0.0,0.0,0.0,0.0,0.0,0.0,0.0,0.0,1.0,0.0,0.0,0.0,0.0,0.0,0.0,0.0,0.0,0.0,0.0,0.0,0.0,1.0,0,0,0,0,0,0,0,0,0,0,0,0,0,0,0,0,0,0,0,0,0,0,0,0,0,0,0,0,0,0,0,0,0,0,0,0
1777290949.4685404,10004,1777290944.253292,1777290944.2402434,,0,0,13.048648834228516,,1,0,0.0,0.0,0.0,0.0,0.0,0.0,0.0,0.0,0.0,0.0,0.0,0.0,0.0,0.0,0.0,0.0,0.0,0.0,0.0,0.0,0.0,0.0,0.0,0.0,0.0,0.0,0.0,726.4608764648438,591.4824829101562,1108.0677490234375,978.534912109375,612.5914306640625,1105.8280029296875,768.3131103515625,411.049560546875,1135.901611328125,929.4292602539062,406.30267333984375,1136.2506103515625,666.984130859375,535.7183227539062,850.2783813476562,702.3170776367188,623.0510864257812,600.6720581054688,688.7125244140625,620.6882934570312,424.04559326171875,713.8347778320312,674.07421875,231.26382446289062,780.24072265625,595.478271484375,153.70382690429688,743.0899658203125,861.218505859375,190.64952087402344,1025.0732421875,513.6189575195312,780.92431640625,976.5752563476562,417.9317321777344,566.5267944335938,989.0699462890625,349.4880065917969,446.6963806152344,943.9031982421875,245.7527618408203,260.5833435058594,885.5363159179688,149.13735961914062,203.18585205078125,932.6599731445312,405.7355651855469,173.89926147460938,0.0,0.0,0.0,0.0,0.0,0.0,0.0,0.0,0.0,0.0,0.0,0.0,1.0,5.0292,8.1826,-1.3829,0.1831,-0.3662,-0.061,99.6405,-31.2231,-159.9005,0.2994,0.6942,-0.6477,-0.094,0.0,0.0,0.0,0.0,0.0,0.0,0.0,0.0,0.0,0.0,0.0,0.0,1.0,0.0,0.0,0.0,0.0,0.0,0.0,0.0,0.0,0.0,0.0,0.0,0.0,1.0,0.0,0.0,0.0,0.0,0.0,0.0,0.0,0.0,0.0,0.0,0.0,0.0,1.0,0.0,0.0,0.0,0.0,0.0,0.0,0.0,0.0,0.0,0.0,0.0,0.0,1.0,0.0,0.0,0.0,0.0,0.0,0.0,0.0,0.0,0.0,0.0,0.0,0.0,1.0,0,0,0,0,0,0,0,0,0,0,0,0,0,0,0,0,0,0,0,0,0,0,0,0,0,0,0,0,0,0,0,0,0,0,0,0
1777290949.4685404,10005,1777290944.25629,1777290944.2402434,,0,0,16.046524047851562,,1,0,0.0,0.0,0.0,0.0,0.0,0.0,0.0,0.0,0.0,0.0,0.0,0.0,0.0,0.0,0.0,0.0,0.0,0.0,0.0,0.0,0.0,0.0,0.0,0.0,0.0,0.0,0.0,724.87451171875,592.9525756835938,1108.409912109375,976.908935546875,613.5545043945312,1106.181396484375,766.6329956054688,412.2988586425781,1135.8564453125,927.7611083984375,407.12249755859375,1135.888671875,666.1749267578125,537.464599609375,850.5498657226562,701.7091064453125,623.8594970703125,600.781005859375,687.6702270507812,619.515625,424.1703796386719,713.3927001953125,669.11669921875,230.84075927734375,780.0450439453125,588.3749389648438,154.394287109375,743.4514770507812,854.5330810546875,188.13055419921875,1023.977294921875,516.6753540039062,780.5681762695312,976.0546875,422.4729919433594,566.622802734375,988.930419921875,350.7770690917969,448.90106201171875,944.5250244140625,242.5209197998047,265.162109375,885.8508911132812,144.25645446777344,209.82421875,932.9404296875,398.69232177734375,173.75221252441406,0.0,0.0,0.0,0.0,0.0,0.0,0.0,0.0,0.0,0.0,0.0,0.0,1.0,5.0292,8.1826,-1.3829,0.1831,-0.3662,-0.061,99.6405,-31.2231,-159.9005,0.2994,0.6942,-0.6477,-0.094,0.0,0.0,0.0,0.0,0.0,0.0,0.0,0.0,0.0,0.0,0.0,0.0,1.0,0.0,0.0,0.0,0.0,0.0,0.0,0.0,0.0,0.0,0.0,0.0,0.0,1.0,0.0,0.0,0.0,0.0,0.0,0.0,0.0,0.0,0.0,0.0,0.0,0.0,1.0,0.0,0.0,0.0,0.0,0.0,0.0,0.0,0.0,0.0,0.0,0.0,0.0,1.0,0.0,0.0,0.0,0.0,0.0,0.0,0.0,0.0,0.0,0.0,0.0,0.0,1.0,0,0,0,0,0,0,0,0,0,0,0,0,0,0,0,0,0,0,0,0,0,0,0,0,0,0,0,0,0,0,0,0,0,0,0,0
1777290949.4685404,10006,1777290944.27129,1777290944.2402434,,0,0,31.046628952026367,,1,0,0.0,0.0,0.0,0.0,0.0,0.0,0.0,0.0,0.0,0.0,0.0,0.0,0.0,0.0,0.0,0.0,0.0,0.0,0.0,0.0,0.0,0.0,0.0,0.0,0.0,0.0,0.0,723.2837524414062,594.3236694335938,1108.886962890625,975.272216796875,614.390869140625,1106.650634765625,764.9541625976562,413.458984375,1135.95458984375,926.0868530273438,407.84063720703125,1135.646728515625,665.2484741210938,538.9555053710938,850.9955444335938,701.0453491210938,624.38916015625,601.0160522460938,686.5110473632812,618.1351928710938,424.500732421875,712.9047241210938,663.9534301757812,230.64193725585938,779.87646484375,581.2274169921875,154.91334533691406,743.7505493164062,847.5816040039062,186.3961181640625,1022.958251953125,520.1057739257812,780.3239135742188,975.6958618164062,428.01019287109375,566.779296875,988.9404296875,353.0555725097656,451.36785888671875,945.2954711914062,240.15101623535156,270.26953125,886.1271362304688,140.2545623779297,217.58767700195312,933.302734375,391.897216796875,173.52365112304688,0.0,0.0,0.0,0.0,0.0,0.0,0.0,0.0,0.0,0.0,0.0,0.0,1.0,5.0292,8.1826,-1.3829,0.1831,-0.3662,-0.061,99.6405,-31.2231,-159.9005,0.2994,0.6942,-0.6477,-0.094,0.0,0.0,0.0,0.0,0.0,0.0,0.0,0.0,0.0,0.0,0.0,0.0,1.0,0.0,0.0,0.0,0.0,0.0,0.0,0.0,0.0,0.0,0.0,0.0,0.0,1.0,0.0,0.0,0.0,0.0,0.0,0.0,0.0,0.0,0.0,0.0,0.0,0.0,1.0,0.0,0.0,0.0,0.0,0.0,0.0,0.0,0.0,0.0,0.0,0.0,0.0,1.0,0.0,0.0,0.0,0.0,0.0,0.0,0.0,0.0,0.0,0.0,0.0,0.0,1.0,0,0,0,0,0,0,0,0,0,0,0,0,0,0,0,0,0,0,0,0,0,0,0,0,0,0,0,0,0,0,0,0,0,0,0,0
1777290949.4685404,10007,1777290944.2897189,1777290944.2402434,,0,0,49.47543144226074,,1,0,0.0,0.0,0.0,0.0,0.0,0.0,0.0,0.0,0.0,0.0,0.0,0.0,0.0,0.0,0.0,0.0,0.0,0.0,0.0,0.0,0.0,0.0,0.0,0.0,0.0,0.0,0.0,721.7001953125,595.5784301757812,1109.48779296875,973.6396484375,615.0772094726562,1107.228515625,763.2794799804688,414.51422119140625,1136.189208984375,924.4090576171875,408.4416809082031,1135.5240478515625,664.199951171875,540.1644287109375,851.5914306640625,700.3431396484375,624.5663452148438,601.3380126953125,685.3326416015625,616.4508056640625,424.9796447753906,712.4320068359375,658.5493774414062,230.62191772460938,779.7550659179688,574.021240234375,155.2823028564453,744.0259399414062,840.4205322265625,185.29632568359375,1022.0288696289062,523.8615112304688,780.208984375,975.5140380859375,434.49932861328125,567.02685546875,989.106689453125,356.3337707519531,454.1085205078125,946.1944580078125,238.7132110595703,275.9059753417969,886.3680419921875,137.3318328857422,226.59237670898438,933.7750244140625,385.42236328125,173.1693572998047,0.0,0.0,0.0,0.0,0.0,0.0,0.0,0.0,0.0,0.0,0.0,0.0,1.0,5.0292,8.1826,-1.3829,0.1831,-0.3662,-0.061,99.6405,-31.2231,-159.9005,0.2994,0.6942,-0.6477,-0.094,0.0,0.0,0.0,0.0,0.0,0.0,0.0,0.0,0.0,0.0,0.0,0.0,1.0,0.0,0.0,0.0,0.0,0.0,0.0,0.0,0.0,0.0,0.0,0.0,0.0,1.0,0.0,0.0,0.0,0.0,0.0,0.0,0.0,0.0,0.0,0.0,0.0,0.0,1.0,0.0,0.0,0.0,0.0,0.0,0.0,0.0,0.0,0.0,0.0,0.0,0.0,1.0,0.0,0.0,0.0,0.0,0.0,0.0,0.0,0.0,0.0,0.0,0.0,0.0,1.0,0,0,0,0,0,0,0,0,0,0,0,0,0,0,0,0,0,0,0,0,0,0,0,0,0,0,0,0,0,0,0,0,0,0,0,0
