Recv_Timestamp,Device_Name,Acc_X,Acc_Y,Acc_Z,Gyro_X,Gyro_Y,Gyro_Z,Roll,Pitch,Yaw,Quat_x,Quat_y,Quat_z,Quat_w
1777530055.7161222,Trunk,0.0,0.0,0.0,0.0,0.0,0.0,0.0,0.0,0.0,0.0,0.0,0.0,1.0
1777530055.7161222,L_Femur,0.0,0.0,0.0,0.0,0.0,0.0,0.0,0.0,0.0,0.0,0.0,0.0,1.0
1777530055.7161222,L_Tibia,-0.2297,-8.7521,-4.1439,-0.2441,-0.2441,0.4883,-115.2905,1.3403,-72.6361,-0.6843,-0.4952,-0.3249,0.4253
1777530055.7161222,L_Foot,0.0,0.0,0.0,0.0,0.0,0.0,0.0,0.0,0.0,0.0,0.0,0.0,1.0
1777530055.7161222,R_Femur,0.0,0.0,0.0,0.0,0.0,0.0,0.0,0.0,0.0,0.0,0.0,0.0,1.0
1777530055.7161222,R_Tibia,0.0,0.0,0.0,0.0,0.0,0.0,0.0,0.0,0.0,0.0,0.0,0.0,1.0
1777530055.7161222,R_Foot,0.0,0.0,0.0,0.0,0.0,0.0,0.0,0.0,0.0,0.0,0.0,0.0,1.0
1777530055.717128,Trunk,0.0,0.0,0.0,0.0,0.0,0.0,0.0,0.0,0.0,0.0,0.0,0.0,1.0
1777530055.717128,L_Femur,0.0,0.0,0.0,0.0,0.0,0.0,0.0,0.0,0.0,0.0,0.0,0.0,1.0
1777530055.717128,L_Tibia,-0.2297,-8.7521,-4.1439,-0.2441,-0.2441,0.4883,-115.2905,1.3403,-72.6361,-0.6843,-0.4952,-0.3249,0.4253
1777530055.717128,L_Foot,-1.0288,-0.1148,10.001,-0.6714,-0.3052,0.3052,-0.5878,5.8337,113.8788,0.0399,0.0321,0.8369,0.545
1777530055.717128,R_Femur,0.0,0.0,0.0,0.0,0.0,0.0,0.0,0.0,0.0,0.0,0.0,0.0,1.0
1777530055.717128,R_Tibia,0.0,0.0,0.0,0.0,0.0,0.0,0.0,0.0,0.0,0.0,0.0,0.0,1.0
1777530055.717128,R_Foot,0.0,0.0,0.0,0.0,0.0,0.0,0.0,0.0,0.0,0.0,0.0,0.0,1.0
1777530055.717128,Trunk,0.0,0.0,0.0,0.0,0.0,0.0,0.0,0.0,0.0,0.0,0.0,0.0,1.0
1777530055.717128,L_Femur,0.0,0.0,0.0,0.0,0.0,0.0,0.0,0.0,0.0,0.0,0.0,0.0,1.0
1777530055.717128,L_Tibia,-0.2297,-8.7521,-4.1439,-0.2441,-0.2441,0.4883,-115.2905,1.3403,-72.6361,-0.6843,-0.4952,-0.3249,0.4253
1777530055.717128,L_Foot,-1.0288,-0.1148,10.001,-0.6714,-0.3052,0.3052,-0.5878,5.8337,113.8788,0.0399,0.0321,0.8369,0.545
1777530055.717128,R_Femur,0.0,0.0,0.0,0.0,0.0,0.0,0.0,0.0,0.0,0.0,0.0,0.0,1.0
1777530055.717128,R_Tibia,-0.0957,-9.4746,2.4931,0.3052,-0.2441,0.3662,-75.2728,0.5603,-112.7472,-0.3414,-0.5063,-0.661,0.436
1777530055.717128,R_Foot,0.0,0.0,0.0,0.0,0.0,0.0,0.0,0.0,0.0,0.0,0.0,0.0,1.0
1777530055.717128,Trunk,0.0,0.0,0.0,0.0,0.0,0.0,0.0,0.0,0.0,0.0,0.0,0.0,1.0
1777530055.717128,L_Femur,0.0,0.0,0.0,0.0,0.0,0.0,0.0,0.0,0.0,0.0,0.0,0.0,1.0
1777530055.717128,L_Tibia,-0.2297,-8.7521,-4.1439,-0.2441,-0.2441,0.4883,-115.2905,1.3403,-72.6361,-0.6843,-0.4952,-0.3249,0.4253
1777530055.717128,L_Foot,-1.0288,-0.1148,10.001,-0.6714,-0.3052,0.3052,-0.5878,5.8337,113.8788,0.0399,0.0321,0.8369,0.545
1777530055.717128,R_Femur,0.0,0.0,0.0,0.0,0.0,0.0,0.0,0.0,0.0,0.0,0.0,0.0,1.0
1777530055.717128,R_Tibia,-0.0957,-9.4746,2.4931,0.3052,-0.2441,0.3662,-75.2728,0.5603,-112.7472,-0.3414,-0.5063,-0.661,0.436
1777530055.717128,R_Foot,0.8613,1.2298,9.8909,0.4883,0.061,-0.1221,7.0752,-4.9109,5.1746,0.0597,-0.0455,0.0424,0.9963
1777530055.717128,Trunk,-7.1729,-0.6269,-6.4695,0.9766,-0.061,-0.6104,-174.3146,47.8619,65.2039,-0.7582,0.5088,-0.3169,0.2565
1777530055.717128,L_Femur,0.0,0.0,0.0,0.0,0.0,0.0,0.0,0.0,0.0,0.0,0.0,0.0,1.0
1777530055.717128,L_Tibia,-0.2297,-8.7521,-4.1439,-0.2441,-0.2441,0.4883,-115.2905,1.3403,-72.6361,-0.6843,-0.4952,-0.3249,0.4253
1777530055.717128,L_Foot,-1.0288,-0.1148,10.001,-0.6714,-0.3052,0.3052,-0.5878,5.8337,113.8788,0.0399,0.0321,0.8369,0.545
1777530055.717128,R_Femur,0.0,0.0,0.0,0.0,0.0,0.0,0.0,0.0,0.0,0.0,0.0,0.0,1.0
1777530055.717128,R_Tibia,-0.0957,-9.4746,2.4931,0.3052,-0.2441,0.3662,-75.2728,0.5603,-112.7472,-0.3414,-0.5063,-0.661,0.436
1777530055.717128,R_Foot,0.8613,1.2298,9.8909,0.4883,0.061,-0.1221,7.0752,-4.9109,5.1746,0.0597,-0.0455,0.0424,0.9963
1777530055.717128,Trunk,-7.1729,-0.6269,-6.4695,0.9766,-0.061,-0.6104,-174.3146,47.8619,65.2039,-0.7582,0.5088,-0.3169,0.2565
1777530055.717128,L_Femur,0.5934,9.6852,-0.6125,0.2441,-0.4272,-0.1221,93.598,-3.5046,35.9692,0.6866,-0.2449,0.1901,0.6577
1777530055.717128,L_Tibia,-0.2297,-8.7521,-4.1439,-0.2441,-0.2441,0.4883,-115.2905,1.3403,-72.6361,-0.6843,-0.4952,-0.3249,0.4253
1777530055.717128,L_Foot,-1.0288,-0.1148,10.001,-0.6714,-0.3052,0.3052,-0.5878,5.8337,113.8788,0.0399,0.0321,0.8369,0.545
1777530055.717128,R_Femur,0.0,0.0,0.0,0.0,0.0,0.0,0.0,0.0,0.0,0.0,0.0,0.0,1.0
1777530055.717128,R_Tibia,-0.0957,-9.4746,2.4931,0.3052,-0.2441,0.3662,-75.2728,0.5603,-112.7472,-0.3414,-0.5063,-0.661,0.436
1777530055.717128,R_Foot,0.8613,1.2298,9.8909,0.4883,0.061,-0.1221,7.0752,-4.9109,5.1746,0.0597,-0.0455,0.0424,0.9963
1777530055.717128,Trunk,-7.1729,-0.6269,-6.4695,0.9766,-0.061,-0.6104,-174.3146,47.8619,65.2039,-0.7582,0.5088,-0.3169,0.2565
1777530055.717128,L_Femur,0.5934,9.6852,-0.6125,0.2441,-0.4272,-0.1221,93.598,-3.5046,35.9692,0.6866,-0.2449,0.1901,0.6577
1777530055.717128,L_Tibia,-0.2297,-8.7568,-4.1439,-0.3052,-0.3052,0.4272,-115.2905,1.3403,-72.6361,-0.6843,-0.4952,-0.3249,0.4253
1777530055.717128,L_Foot,-1.0288,-0.1148,10.001,-0.6714,-0.3052,0.3052,-0.5878,5.8337,113.8788,0.0399,0.0321,0.8369,0.545
1777530055.717128,R_Femur,0.0,0.0,0.0,0.0,0.0,0.0,0.0,0.0,0.0,0.0,0.0,0.0,1.0
1777530055.717128,R_Tibia,-0.0957,-9.4746,2.4931,0.3052,-0.2441,0.3662,-75.2728,0.5603,-112.7472,-0.3414,-0.5063,-0.661,0.436
1777530055.717128,R_Foot,0.8613,1.2298,9.8909,0.4883,0.061,-0.1221,7.0752,-4.9109,5.1746,0.0597,-0.0455,0.0424,0.9963
1777530055.717128,Trunk,-7.1729,-0.6269,-6.4695,0.9766,-0.061,-0.6104,-174.3146,47.8619,65.2039,-0.7582,0.5088,-0.3169,0.2565
1777530055.717128,L_Femur,0.5934,9.6852,-0.6125,0.2441,-0.4272,-0.1221,93.598,-3.5046,35.9692,0.6866,-0.2449,0.1901,0.6577
1777530055.717128,L_Tibia,-0.2297,-8.7568,-4.1439,-0.3052,-0.3052,0.4272,-115.2905,1.3403,-72.6361,-0.6843,-0.4952,-0.3249,0.4253
1777530055.717128,L_Foot,-1.0288,-0.1196,10.001,-0.7324,-0.2441,0.3052,-0.5878,5.8337,113.8788,0.0399,0.0321,0.8369,0.545
1777530055.717128,R_Femur,0.0,0.0,0.0,0.0,0.0,0.0,0.0,0.0,0.0,0.0,0.0,0.0,1.0
1777530055.717128,R_Tibia,-0.0957,-9.4746,2.4931,0.3052,-0.2441,0.3662,-75.2728,0.5603,-112.7472,-0.3414,-0.5063,-0.661,0.436
1777530055.717128,R_Foot,0.8613,1.2298,9.8909,0.4883,0.061,-0.1221,7.0752,-4.9109,5.1746,0.0597,-0.0455,0.0424,0.9963
1777530055.7186377,Trunk,-7.1682,-0.6364,-6.4743,0.9766,-0.1831,-0.6104,-174.3146,47.8619,65.2039,-0.7582,0.5088,-0.3169,0.2565
1777530055.7186377,L_Femur,0.5934,9.6852,-0.6125,0.2441,-0.4272,-0.1221,93.598,-3.5046,35.9692,0.6866,-0.2449,0.1901,0.6577
1777530055.7186377,L_Tibia,-0.2297,-8.7568,-4.1439,-0.3052,-0.3052,0.4272,-115.2905,1.3403,-72.6361,-0.6843,-0.4952,-0.3249,0.4253
1777530055.7186377,L_Foot,-1.0288,-0.1196,10.001,-0.7324,-0.2441,0.3052,-0.5878,5.8337,113.8788,0.0399,0.0321,0.8369,0.545
1777530055.7186377,R_Femur,0.0,0.0,0.0,0.0,0.0,0.0,0.0,0.0,0.0,0.0,0.0,0.0,1.0
1777530055.7186377,R_Tibia,-0.0957,-9.4746,2.4931,0.3052,-0.2441,0.3662,-75.2728,0.5603,-112.7472,-0.3414,-0.5063,-0.661,0.436
1777530055.7186377,R_Foot,0.8613,1.2298,9.8909,0.4883,0.061,-0.1221,7.0752,-4.9109,5.1746,0.0597,-0.0455,0.0424,0.9963
1777530055.7186377,Trunk,-7.1682,-0.6364,-6.4743,0.9766,-0.1831,-0.6104,-174.3146,47.8619,65.2039,-0.7582,0.5088,-0.3169,0.2565
1777530055.7186377,L_Femur,0.5886,9.6804,-0.6125,0.2441,-0.4272,-0.1221,93.598,-3.5046,35.9692,0.6866,-0.2449,0.1901,0.6577
1777530055.7186377,L_Tibia,-0.2297,-8.7568,-4.1439,-0.3052,-0.3052,0.4272,-115.2905,1.3403,-72.6361,-0.6843,-0.4952,-0.3249,0.4253
1777530055.7186377,L_Foot,-1.0288,-0.1196,10.001,-0.7324,-0.2441,0.3052,-0.5878,5.8337,113.8788,0.0399,0.0321,0.8369,0.545
1777530055.7186377,R_Femur,0.0,0.0,0.0,0.0,0.0,0.0,0.0,0.0,0.0,0.0,0.0,0.0,1.0
1777530055.7186377,R_Tibia,-0.0957,-9.4746,2.4931,0.3052,-0.2441,0.3662,-75.2728,0.5603,-112.7472,-0.3414,-0.5063,-0.661,0.436
1777530055.7186377,R_Foot,0.8613,1.2298,9.8909,0.4883,0.061,-0.1221,7.0752,-4.9109,5.1746,0.0597,-0.0455,0.0424,0.9963
1777530055.7186377,Trunk,-7.1682,-0.6364,-6.4743,0.9766,-0.1831,-0.6104,-174.3146,47.8619,65.2039,-0.7582,0.5088,-0.3169,0.2565
1777530055.7186377,L_Femur,0.5886,9.6804,-0.6125,0.2441,-0.4272,-0.1221,93.598,-3.5046,35.9692,0.6866,-0.2449,0.1901,0.6577
1777530055.7186377,L_Tibia,-0.2249,-8.7568,-4.1344,-0.2441,-0.3052,0.4272,-115.2905,1.3403,-72.6416,-0.6843,-0.4953,-0.3249,0.4253
1777530055.7186377,L_Foot,-1.0288,-0.1196,10.001,-0.7324,-0.2441,0.3052,-0.5878,5.8337,113.8788,0.0399,0.0321,0.8369,0.545
1777530055.7186377,R_Femur,0.0,0.0,0.0,0.0,0.0,0.0,0.0,0.0,0.0,0.0,0.0,0.0,1.0
1777530055.7186377,R_Tibia,-0.0957,-9.4746,2.4931,0.3052,-0.2441,0.3662,-75.2728,0.5603,-112.7472,-0.3414,-0.5063,-0.661,0.436
1777530055.7186377,R_Foot,0.8613,1.2298,9.8909,0.4883,0.061,-0.1221,7.0752,-4.9109,5.1746,0.0597,-0.0455,0.0424,0.9963
1777530055.7186377,Trunk,-7.1682,-0.6364,-6.4743,0.9766,-0.1831,-0.6104,-174.3146,47.8619,65.2039,-0.7582,0.5088,-0.3169,0.2565
1777530055.7186377,L_Femur,0.5886,9.6804,-0.6125,0.2441,-0.4272,-0.1221,93.598,-3.5046,35.9692,0.6866,-0.2449,0.1901,0.6577
1777530055.7186377,L_Tibia,-0.2249,-8.7568,-4.1344,-0.2441,-0.3052,0.4272,-115.2905,1.3403,-72.6416,-0.6843,-0.4953,-0.3249,0.4253
1777530055.7186377,L_Foot,-1.0288,-0.1148,10.001,-0.6714,-0.2441,0.3052,-0.5878,5.8337,113.8788,0.0399,0.0321,0.8369,0.545
1777530055.7186377,R_Femur,0.0,0.0,0.0,0.0,0.0,0.0,0.0,0.0,0.0,0.0,0.0,0.0,1.0
1777530055.7186377,R_Tibia,-0.0957,-9.4746,2.4931,0.3052,-0.2441,0.3662,-75.2728,0.5603,-112.7472,-0.3414,-0.5063,-0.661,0.436
1777530055.7186377,R_Foot,0.8613,1.2298,9.8909,0.4883,0.061,-0.1221,7.0752,-4.9109,5.1746,0.0597,-0.0455,0.0424,0.9963
1777530055.7186377,Trunk,-7.1682,-0.6364,-6.4743,0.9766,-0.1831,-0.6104,-174.3146,47.8619,65.2039,-0.7582,0.5088,-0.3169,0.2565
1777530055.7186377,L_Femur,0.5886,9.6804,-0.6125,0.2441,-0.4272,-0.1221,93.598,-3.5046,35.9692,0.6866,-0.2449,0.1901,0.6577
1777530055.7186377,L_Tibia,-0.2249,-8.7568,-4.1344,-0.2441,-0.3052,0.4272,-115.2905,1.3403,-72.6416,-0.6843,-0.4953,-0.3249,0.4253
1777530055.7186377,L_Foot,-1.0288,-0.1148,10.001,-0.6714,-0.2441,0.3052,-0.5878,5.8337,113.8788,0.0399,0.0321,0.8369,0.545
1777530055.7186377,R_Femur,0.0,0.0,0.0,0.0,0.0,0.0,0.0,0.0,0.0,0.0,0.0,0.0,1.0
1777530055.7186377,R_Tibia,-0.1005,-9.4746,2.4883,0.3052,-0.2441,0.3662,-75.2728,0.5603,-112.7472,-0.3414,-0.5063,-0.661,0.436
1777530055.7186377,R_Foot,0.8613,1.2298,9.8909,0.4883,0.061,-0.1221,7.0752,-4.9109,5.1746,0.0597,-0.0455,0.0424,0.9963
1777530055.7196527,Trunk,-7.1682,-0.6364,-6.4743,0.9766,-0.1831,-0.6104,-174.3146,47.8619,65.2039,-0.7582,0.5088,-0.3169,0.2565
1777530055.7196527,L_Femur,0.5886,9.6804,-0.6125,0.2441,-0.4272,-0.1221,93.598,-3.5046,35.9692,0.6866,-0.2449,0.1901,0.6577
1777530055.7196527,L_Tibia,-0.2249,-8.7568,-4.1344,-0.2441,-0.3052,0.4272,-115.2905,1.3403,-72.6416,-0.6843,-0.4953,-0.3249,0.4253
1777530055.7196527,L_Foot,-1.0288,-0.1148,10.001,-0.6714,-0.2441,0.3052,-0.5878,5.8337,113.8788,0.0399,0.0321,0.8369,0.545
1777530055.7196527,R_Femur,0.0,0.0,0.0,0.0,0.0,0.0,0.0,0.0,0.0,0.0,0.0,0.0,1.0
1777530055.7196527,R_Tibia,-0.1005,-9.4746,2.4883,0.3052,-0.2441,0.3662,-75.2728,0.5603,-112.7472,-0.3414,-0.5063,-0.661,0.436
1777530055.7196527,R_Foot,0.8613,1.225,9.8957,0.4272,0.0,-0.061,7.0752,-4.9109,5.1746,0.0597,-0.0455,0.0424,0.9963
1777530055.7196527,Trunk,-7.1634,-0.6508,-6.4647,0.9766,-0.061,-0.5493,-174.3146,47.8619,65.2039,-0.7582,0.5088,-0.3169,0.2565
1777530055.7196527,L_Femur,0.5886,9.6804,-0.6125,0.2441,-0.4272,-0.1221,93.598,-3.5046,35.9692,0.6866,-0.2449,0.1901,0.6577
1777530055.7196527,L_Tibia,-0.2249,-8.7568,-4.1344,-0.2441,-0.3052,0.4272,-115.2905,1.3403,-72.6416,-0.6843,-0.4953,-0.3249,0.4253
1777530055.7196527,L_Foot,-1.0288,-0.1148,10.001,-0.6714,-0.2441,0.3052,-0.5878,5.8337,113.8788,0.0399,0.0321,0.8369,0.545
1777530055.7196527,R_Femur,0.0,0.0,0.0,0.0,0.0,0.0,0.0,0.0,0.0,0.0,0.0,0.0,1.0
1777530055.7196527,R_Tibia,-0.1005,-9.4746,2.4883,0.3052,-0.2441,0.3662,-75.2728,0.5603,-112.7472,-0.3414,-0.5063,-0.661,0.436
1777530055.7196527,R_Foot,0.8613,1.225,9.8957,0.4272,0.0,-0.061,7.0752,-4.9109,5.1746,0.0597,-0.0455,0.0424,0.9963
1777530055.7196527,Trunk,-7.1634,-0.6508,-6.4647,0.9766,-0.061,-0.5493,-174.3146,47.8619,65.2039,-0.7582,0.5088,-0.3169,0.2565
1777530055.7196527,L_Femur,0.5886,9.6804,-0.6173,0.2441,-0.4272,-0.1221,93.598,-3.5046,35.9637,0.6866,-0.2448,0.19,0.6577
1777530055.7196527,L_Tibia,-0.2249,-8.7568,-4.1344,-0.2441,-0.3052,0.4272,-115.2905,1.3403,-72.6416,-0.6843,-0.4953,-0.3249,0.4253
1777530055.7196527,L_Foot,-1.0288,-0.1148,10.001,-0.6714,-0.2441,0.3052,-0.5878,5.8337,113.8788,0.0399,0.0321,0.8369,0.545
1777530055.7196527,R_Femur,0.0,0.0,0.0,0.0,0.0,0.0,0.0,0.0,0.0,0.0,0.0,0.0,1.0
1777530055.7196527,R_Tibia,-0.1005,-9.4746,2.4883,0.3052,-0.2441,0.3662,-75.2728,0.5603,-112.7472,-0.3414,-0.5063,-0.661,0.436
1777530055.7196527,R_Foot,0.8613,1.225,9.8957,0.4272,0.0,-0.061,7.0752,-4.9109,5.1746,0.0597,-0.0455,0.0424,0.9963
1777530055.7196527,Trunk,-7.1634,-0.6508,-6.4647,0.9766,-0.061,-0.5493,-174.3146,47.8619,65.2039,-0.7582,0.5088,-0.3169,0.2565
1777530055.7196527,L_Femur,0.5886,9.6804,-0.6173,0.2441,-0.4272,-0.1221,93.598,-3.5046,35.9637,0.6866,-0.2448,0.19,0.6577
1777530055.7196527,L_Tibia,-0.2249,-8.7568,-4.1392,-0.2441,-0.3052,0.4883,-115.2905,1.3403,-72.6471,-0.6843,-0.4953,-0.3249,0.4253
1777530055.7196527,L_Foot,-1.0288,-0.1148,10.001,-0.6714,-0.2441,0.3052,-0.5878,5.8337,113.8788,0.0399,0.0321,0.8369,0.545
1777530055.7196527,R_Femur,0.0,0.0,0.0,0.0,0.0,0.0,0.0,0.0,0.0,0.0,0.0,0.0,1.0
1777530055.7196527,R_Tibia,-0.1005,-9.4746,2.4883,0.3052,-0.2441,0.3662,-75.2728,0.5603,-112.7472,-0.3414,-0.5063,-0.661,0.436
1777530055.7196527,R_Foot,0.8613,1.225,9.8957,0.4272,0.0,-0.061,7.0752,-4.9109,5.1746,0.0597,-0.0455,0.0424,0.9963
1777530055.7196527,Trunk,-7.1634,-0.6508,-6.4647,0.9766,-0.061,-0.5493,-174.3146,47.8619,65.2039,-0.7582,0.5088,-0.3169,0.2565
1777530055.7196527,L_Femur,0.5886,9.6804,-0.6173,0.2441,-0.4272,-0.1221,93.598,-3.5046,35.9637,0.6866,-0.2448,0.19,0.6577
1777530055.7196527,L_Tibia,-0.2249,-8.7568,-4.1392,-0.2441,-0.3052,0.4883,-115.2905,1.3403,-72.6471,-0.6843,-0.4953,-0.3249,0.4253
1777530055.7196527,L_Foot,-1.0288,-0.1148,9.9962,-0.6714,-0.2441,0.3052,-0.5878,5.8337,113.8788,0.0399,0.0321,0.8369,0.545
1777530055.7196527,R_Femur,0.0,0.0,0.0,0.0,0.0,0.0,0.0,0.0,0.0,0.0,0.0,0.0,1.0
1777530055.7196527,R_Tibia,-0.1005,-9.4746,2.4883,0.3052,-0.2441,0.3662,-75.2728,0.5603,-112.7472,-0.3414,-0.5063,-0.661,0.436
1777530055.7196527,R_Foot,0.8613,1.225,9.8957,0.4272,0.0,-0.061,7.0752,-4.9109,5.1746,0.0597,-0.0455,0.0424,0.9963
1777530055.7206447,Trunk,-7.1586,-0.6556,-6.4743,0.9766,-0.061,-0.5493,-174.3146,47.8619,65.2039,-0.7582,0.5088,-0.3169,0.2565
1777530055.7206447,L_Femur,0.5886,9.6804,-0.6173,0.2441,-0.4272,-0.1221,93.598,-3.5046,35.9637,0.6866,-0.2448,0.19,0.6577
1777530055.7206447,L_Tibia,-0.2249,-8.7568,-4.1392,-0.2441,-0.3052,0.4883,-115.2905,1.3403,-72.6471,-0.6843,-0.4953,-0.3249,0.4253
1777530055.7206447,L_Foot,-1.0288,-0.1148,9.9962,-0.6714,-0.2441,0.3052,-0.5878,5.8337,113.8788,0.0399,0.0321,0.8369,0.545
1777530055.7206447,R_Femur,0.0,0.0,0.0,0.0,0.0,0.0,0.0,0.0,0.0,0.0,0.0,0.0,1.0
1777530055.7206447,R_Tibia,-0.1005,-9.4746,2.4883,0.3052,-0.2441,0.3662,-75.2728,0.5603,-112.7472,-0.3414,-0.5063,-0.661,0.436
1777530055.7206447,R_Foot,0.8613,1.225,9.8957,0.4272,0.0,-0.061,7.0752,-4.9109,5.1746,0.0597,-0.0455,0.0424,0.9963
1777530055.7206447,Trunk,-7.1586,-0.6556,-6.4743,0.9766,-0.061,-0.5493,-174.3146,47.8619,65.2039,-0.7582,0.5088,-0.3169,0.2565
1777530055.7206447,L_Femur,0.5886,9.6899,-0.6173,0.3052,-0.4272,-0.1221,93.598,-3.5046,35.9637,0.6866,-0.2448,0.19,0.6577
1777530055.7206447,L_Tibia,-0.2249,-8.7568,-4.1392,-0.2441,-0.3052,0.4883,-115.2905,1.3403,-72.6471,-0.6843,-0.4953,-0.3249,0.4253
1777530055.7206447,L_Foot,-1.0288,-0.1148,9.9962,-0.6714,-0.2441,0.3052,-0.5878,5.8337,113.8788,0.0399,0.0321,0.8369,0.545
1777530055.7206447,R_Femur,0.0,0.0,0.0,0.0,0.0,0.0,0.0,0.0,0.0,0.0,0.0,0.0,1.0
1777530055.7206447,R_Tibia,-0.1005,-9.4746,2.4883,0.3052,-0.2441,0.3662,-75.2728,0.5603,-112.7472,-0.3414,-0.5063,-0.661,0.436
1777530055.7206447,R_Foot,0.8613,1.225,9.8957,0.4272,0.0,-0.061,7.0752,-4.9109,5.1746,0.0597,-0.0455,0.0424,0.9963
1777530055.7206447,Trunk,-7.1586,-0.6556,-6.4743,0.9766,-0.061,-0.5493,-174.3146,47.8619,65.2039,-0.7582,0.5088,-0.3169,0.2565
1777530055.7206447,L_Femur,0.5886,9.6899,-0.6173,0.3052,-0.4272,-0.1221,93.598,-3.5046,35.9637,0.6866,-0.2448,0.19,0.6577
1777530055.7206447,L_Tibia,-0.2249,-8.7568,-4.1392,-0.2441,-0.3052,0.4883,-115.2905,1.3403,-72.6471,-0.6843,-0.4953,-0.3249,0.4253
1777530055.7206447,L_Foot,-1.0288,-0.1196,9.9962,-0.6714,-0.2441,0.3052,-0.5878,5.8337,113.8788,0.0399,0.0321,0.8369,0.545
1777530055.7206447,R_Femur,0.0,0.0,0.0,0.0,0.0,0.0,0.0,0.0,0.0,0.0,0.0,0.0,1.0
1777530055.7206447,R_Tibia,-0.1005,-9.4746,2.4883,0.3052,-0.2441,0.3662,-75.2728,0.5603,-112.7472,-0.3414,-0.5063,-0.661,0.436
1777530055.7206447,R_Foot,0.8613,1.225,9.8957,0.4272,0.0,-0.061,7.0752,-4.9109,5.1746,0.0597,-0.0455,0.0424,0.9963
1777530055.7206447,Trunk,-7.1586,-0.6556,-6.4743,0.9766,-0.061,-0.5493,-174.3146,47.8619,65.2039,-0.7582,0.5088,-0.3169,0.2565
1777530055.7206447,L_Femur,0.5886,9.6899,-0.6173,0.3052,-0.4272,-0.1221,93.598,-3.5046,35.9637,0.6866,-0.2448,0.19,0.6577
1777530055.7206447,L_Tibia,-0.2249,-8.7568,-4.1392,-0.2441,-0.3052,0.4883,-115.2905,1.3403,-72.6471,-0.6843,-0.4953,-0.3249,0.4253
1777530055.7206447,L_Foot,-1.0288,-0.1196,9.9962,-0.6714,-0.2441,0.3052,-0.5878,5.8337,113.8788,0.0399,0.0321,0.8369,0.545
1777530055.7206447,R_Femur,0.0,0.0,0.0,0.0,0.0,0.0,0.0,0.0,0.0,0.0,0.0,0.0,1.0
1777530055.7206447,R_Tibia,-0.0909,-9.4746,2.4979,0.3052,-0.2441,0.3052,-75.2728,0.5603,-112.7472,-0.3414,-0.5063,-0.661,0.436
1777530055.7206447,R_Foot,0.8613,1.225,9.8957,0.4272,0.0,-0.061,7.0752,-4.9109,5.1746,0.0597,-0.0455,0.0424,0.9963
1777530055.7206447,Trunk,-7.1586,-0.6556,-6.4743,0.9766,-0.061,-0.5493,-174.3146,47.8619,65.2039,-0.7582,0.5088,-0.3169,0.2565
1777530055.7206447,L_Femur,0.5886,9.6899,-0.6173,0.3052,-0.4272,-0.1221,93.598,-3.5046,35.9637,0.6866,-0.2448,0.19,0.6577
1777530055.7206447,L_Tibia,-0.2249,-8.7568,-4.1392,-0.2441,-0.3052,0.4883,-115.2905,1.3403,-72.6471,-0.6843,-0.4953,-0.3249,0.4253
1777530055.7206447,L_Foot,-1.0288,-0.1196,9.9962,-0.6714,-0.2441,0.3052,-0.5878,5.8337,113.8788,0.0399,0.0321,0.8369,0.545
1777530055.7206447,R_Femur,0.0,0.0,0.0,0.0,0.0,0.0,0.0,0.0,0.0,0.0,0.0,0.0,1.0
1777530055.7206447,R_Tibia,-0.0909,-9.4746,2.4979,0.3052,-0.2441,0.3052,-75.2728,0.5603,-112.7472,-0.3414,-0.5063,-0.661,0.436
1777530055.7206447,R_Foot,0.8565,1.2202,9.8909,0.4883,0.0,-0.1221,7.0752,-4.9109,5.1746,0.0597,-0.0455,0.0424,0.9963
1777530055.7216492,Trunk,-7.1682,-0.6699,-6.4743,0.9766,-0.1221,-0.5493,-174.3146,47.8619,65.2039,-0.7582,0.5088,-0.3169,0.2565
1777530055.7216492,L_Femur,0.5886,9.6899,-0.6173,0.3052,-0.4272,-0.1221,93.598,-3.5046,35.9637,0.6866,-0.2448,0.19,0.6577
1777530055.7216492,L_Tibia,-0.2249,-8.7568,-4.1392,-0.2441,-0.3052,0.4883,-115.2905,1.3403,-72.6471,-0.6843,-0.4953,-0.3249,0.4253
1777530055.7216492,L_Foot,-1.0288,-0.1196,9.9962,-0.6714,-0.2441,0.3052,-0.5878,5.8337,113.8788,0.0399,0.0321,0.8369,0.545
1777530055.7216492,R_Femur,0.0,0.0,0.0,0.0,0.0,0.0,0.0,0.0,0.0,0.0,0.0,0.0,1.0
1777530055.7216492,R_Tibia,-0.0909,-9.4746,2.4979,0.3052,-0.2441,0.3052,-75.2728,0.5603,-112.7472,-0.3414,-0.5063,-0.661,0.436
1777530055.7216492,R_Foot,0.8565,1.2202,9.8909,0.4883,0.0,-0.1221,7.0752,-4.9109,5.1746,0.0597,-0.0455,0.0424,0.9963
1777530055.7216492,Trunk,-7.1682,-0.6699,-6.4743,0.9766,-0.1221,-0.5493,-174.3146,47.8619,65.2039,-0.7582,0.5088,-0.3169,0.2565
1777530055.7216492,L_Femur,0.5886,9.6899,-0.6173,0.2441,-0.4272,-0.1221,93.598,-3.5046,35.9637,0.6866,-0.2448,0.19,0.6577
1777530055.7216492,L_Tibia,-0.2249,-8.7568,-4.1392,-0.2441,-0.3052,0.4883,-115.2905,1.3403,-72.6471,-0.6843,-0.4953,-0.3249,0.4253
1777530055.7216492,L_Foot,-1.0288,-0.1196,9.9962,-0.6714,-0.2441,0.3052,-0.5878,5.8337,113.8788,0.0399,0.0321,0.8369,0.545
1777530055.7216492,R_Femur,0.0,0.0,0.0,0.0,0.0,0.0,0.0,0.0,0.0,0.0,0.0,0.0,1.0
1777530055.7216492,R_Tibia,-0.0909,-9.4746,2.4979,0.3052,-0.2441,0.3052,-75.2728,0.5603,-112.7472,-0.3414,-0.5063,-0.661,0.436
1777530055.7216492,R_Foot,0.8565,1.2202,9.8909,0.4883,0.0,-0.1221,7.0752,-4.9109,5.1746,0.0597,-0.0455,0.0424,0.9963
1777530055.7216492,Trunk,-7.1682,-0.6699,-6.4743,0.9766,-0.1221,-0.5493,-174.3146,47.8619,65.2039,-0.7582,0.5088,-0.3169,0.2565
1777530055.7216492,L_Femur,0.5886,9.6899,-0.6173,0.2441,-0.4272,-0.1221,93.598,-3.5046,35.9637,0.6866,-0.2448,0.19,0.6577
1777530055.7216492,L_Tibia,-0.2249,-8.7616,-4.1392,-0.2441,-0.3052,0.4883,-115.2905,1.3403,-72.6526,-0.6842,-0.4953,-0.325,0.4253
1777530055.7216492,L_Foot,-1.0288,-0.1196,9.9962,-0.6714,-0.2441,0.3052,-0.5878,5.8337,113.8788,0.0399,0.0321,0.8369,0.545
1777530055.7216492,R_Femur,0.0,0.0,0.0,0.0,0.0,0.0,0.0,0.0,0.0,0.0,0.0,0.0,1.0
1777530055.7216492,R_Tibia,-0.0909,-9.4746,2.4979,0.3052,-0.2441,0.3052,-75.2728,0.5603,-112.7472,-0.3414,-0.5063,-0.661,0.436
1777530055.7216492,R_Foot,0.8565,1.2202,9.8909,0.4883,0.0,-0.1221,7.0752,-4.9109,5.1746,0.0597,-0.0455,0.0424,0.9963
1777530055.7216492,Trunk,-7.1682,-0.6699,-6.4743,0.9766,-0.1221,-0.5493,-174.3146,47.8619,65.2039,-0.7582,0.5088,-0.3169,0.2565
1777530055.7216492,L_Femur,0.5886,9.6899,-0.6173,0.2441,-0.4272,-0.1221,93.598,-3.5046,35.9637,0.6866,-0.2448,0.19,0.6577
1777530055.7216492,L_Tibia,-0.2249,-8.7616,-4.1392,-0.2441,-0.3052,0.4883,-115.2905,1.3403,-72.6526,-0.6842,-0.4953,-0.325,0.4253
1777530055.7216492,L_Foot,-1.0288,-0.1148,9.9962,-0.6104,-0.2441,0.3052,-0.5878,5.8337,113.8788,0.0399,0.0321,0.8369,0.545
1777530055.7216492,R_Femur,0.0,0.0,0.0,0.0,0.0,0.0,0.0,0.0,0.0,0.0,0.0,0.0,1.0
1777530055.7216492,R_Tibia,-0.0909,-9.4746,2.4979,0.3052,-0.2441,0.3052,-75.2728,0.5603,-112.7472,-0.3414,-0.5063,-0.661,0.436
1777530055.7216492,R_Foot,0.8565,1.2202,9.8909,0.4883,0.0,-0.1221,7.0752,-4.9109,5.1746,0.0597,-0.0455,0.0424,0.9963
1777530055.7216492,Trunk,-7.1729,-0.6604,-6.4552,0.9155,-0.1221,-0.6104,-174.3146,47.8619,65.2039,-0.7582,0.5088,-0.3169,0.2565
1777530055.7216492,L_Femur,0.5886,9.6899,-0.6173,0.2441,-0.4272,-0.1221,93.598,-3.5046,35.9637,0.6866,-0.2448,0.19,0.6577
1777530055.7216492,L_Tibia,-0.2249,-8.7616,-4.1392,-0.2441,-0.3052,0.4883,-115.2905,1.3403,-72.6526,-0.6842,-0.4953,-0.325,0.4253
1777530055.7216492,L_Foot,-1.0288,-0.1148,9.9962,-0.6104,-0.2441,0.3052,-0.5878,5.8337,113.8788,0.0399,0.0321,0.8369,0.545
1777530055.7216492,R_Femur,0.0,0.0,0.0,0.0,0.0,0.0,0.0,0.0,0.0,0.0,0.0,0.0,1.0
1777530055.7216492,R_Tibia,-0.0909,-9.4746,2.4979,0.3052,-0.2441,0.3052,-75.2728,0.5603,-112.7472,-0.3414,-0.5063,-0.661,0.436
1777530055.7216492,R_Foot,0.8565,1.2202,9.8909,0.4883,0.0,-0.1221,7.0752,-4.9109,5.1746,0.0597,-0.0455,0.0424,0.9963
1777530055.7226496,Trunk,-7.1729,-0.6604,-6.4552,0.9155,-0.1221,-0.6104,-174.3146,47.8619,65.2039,-0.7582,0.5088,-0.3169,0.2565
1777530055.7226496,L_Femur,0.5886,9.6852,-0.6125,0.2441,-0.4272,-0.1221,93.598,-3.5046,35.9583,0.6866,-0.2448,0.19,0.6577
1777530055.7226496,L_Tibia,-0.2249,-8.7616,-4.1392,-0.2441,-0.3052,0.4883,-115.2905,1.3403,-72.6526,-0.6842,-0.4953,-0.325,0.4253
1777530055.7226496,L_Foot,-1.0288,-0.1148,9.9962,-0.6104,-0.2441,0.3052,-0.5878,5.8337,113.8788,0.0399,0.0321,0.8369,0.545
1777530055.7226496,R_Femur,0.0,0.0,0.0,0.0,0.0,0.0,0.0,0.0,0.0,0.0,0.0,0.0,1.0
1777530055.7226496,R_Tibia,-0.0909,-9.4746,2.4979,0.3052,-0.2441,0.3052,-75.2728,0.5603,-112.7472,-0.3414,-0.5063,-0.661,0.436
1777530055.7226496,R_Foot,0.8565,1.2202,9.8909,0.4883,0.0,-0.1221,7.0752,-4.9109,5.1746,0.0597,-0.0455,0.0424,0.9963
1777530055.7226496,Trunk,-7.1729,-0.6604,-6.4552,0.9155,-0.1221,-0.6104,-174.3146,47.8619,65.2039,-0.7582,0.5088,-0.3169,0.2565
1777530055.7226496,L_Femur,0.5886,9.6852,-0.6125,0.2441,-0.4272,-0.1221,93.598,-3.5046,35.9583,0.6866,-0.2448,0.19,0.6577
1777530055.7226496,L_Tibia,-0.2249,-8.7568,-4.1392,-0.2441,-0.3052,0.4883,-115.2905,1.3403,-72.6581,-0.6842,-0.4954,-0.325,0.4253
1777530055.7226496,L_Foot,-1.0288,-0.1148,9.9962,-0.6104,-0.2441,0.3052,-0.5878,5.8337,113.8788,0.0399,0.0321,0.8369,0.545
1777530055.7226496,R_Femur,0.0,0.0,0.0,0.0,0.0,0.0,0.0,0.0,0.0,0.0,0.0,0.0,1.0
1777530055.7226496,R_Tibia,-0.0909,-9.4746,2.4979,0.3052,-0.2441,0.3052,-75.2728,0.5603,-112.7472,-0.3414,-0.5063,-0.661,0.436
1777530055.7226496,R_Foot,0.8565,1.2202,9.8909,0.4883,0.0,-0.1221,7.0752,-4.9109,5.1746,0.0597,-0.0455,0.0424,0.9963
1777530055.7231548,Trunk,-7.1729,-0.6604,-6.4552,0.9155,-0.1221,-0.6104,-174.3146,47.8619,65.2039,-0.7582,0.5088,-0.3169,0.2565
1777530055.7231548,L_Femur,0.5886,9.6852,-0.6125,0.2441,-0.4272,-0.1221,93.598,-3.5046,35.9583,0.6866,-0.2448,0.19,0.6577
1777530055.7231548,L_Tibia,-0.2249,-8.7568,-4.1392,-0.2441,-0.3052,0.4883,-115.2905,1.3403,-72.6581,-0.6842,-0.4954,-0.325,0.4253
1777530055.7231548,L_Foot,-1.0288,-0.1148,9.9962,-0.6104,-0.3052,0.3052,-0.5878,5.8337,113.8788,0.0399,0.0321,0.8369,0.545
1777530055.7231548,R_Femur,0.0,0.0,0.0,0.0,0.0,0.0,0.0,0.0,0.0,0.0,0.0,0.0,1.0
1777530055.7231548,R_Tibia,-0.0909,-9.4746,2.4979,0.3052,-0.2441,0.3052,-75.2728,0.5603,-112.7472,-0.3414,-0.5063,-0.661,0.436
1777530055.7231548,R_Foot,0.8565,1.2202,9.8909,0.4883,0.0,-0.1221,7.0752,-4.9109,5.1746,0.0597,-0.0455,0.0424,0.9963
1777530055.7231548,Trunk,-7.1729,-0.6604,-6.4552,0.9155,-0.1221,-0.6104,-174.3146,47.8619,65.2039,-0.7582,0.5088,-0.3169,0.2565
1777530055.7231548,L_Femur,0.5886,9.6852,-0.6125,0.2441,-0.4272,-0.1221,93.598,-3.5046,35.9583,0.6866,-0.2448,0.19,0.6577
1777530055.7231548,L_Tibia,-0.2249,-8.7568,-4.1392,-0.2441,-0.3052,0.4883,-115.2905,1.3403,-72.6581,-0.6842,-0.4954,-0.325,0.4253
1777530055.7231548,L_Foot,-1.0288,-0.1148,9.9962,-0.6104,-0.3052,0.3052,-0.5878,5.8337,113.8788,0.0399,0.0321,0.8369,0.545
1777530055.7231548,R_Femur,0.0,0.0,0.0,0.0,0.0,0.0,0.0,0.0,0.0,0.0,0.0,0.0,1.0
1777530055.7231548,R_Tibia,-0.0957,-9.4794,2.4931,0.3052,-0.1831,0.3662,-75.2728,0.5603,-112.7472,-0.3414,-0.5063,-0.661,0.436
1777530055.7231548,R_Foot,0.8565,1.2202,9.8909,0.4883,0.0,-0.1221,7.0752,-4.9109,5.1746,0.0597,-0.0455,0.0424,0.9963
1777530055.7231548,Trunk,-7.1729,-0.6604,-6.4552,0.9155,-0.1221,-0.6104,-174.3146,47.8619,65.2039,-0.7582,0.5088,-0.3169,0.2565
1777530055.7231548,L_Femur,0.5886,9.6852,-0.6125,0.2441,-0.4272,-0.1221,93.598,-3.5046,35.9583,0.6866,-0.2448,0.19,0.6577
1777530055.7231548,L_Tibia,-0.2249,-8.7568,-4.1392,-0.2441,-0.3052,0.4883,-115.2905,1.3403,-72.6581,-0.6842,-0.4954,-0.325,0.4253
1777530055.7231548,L_Foot,-1.0288,-0.1148,9.9962,-0.6104,-0.3052,0.3052,-0.5878,5.8337,113.8788,0.0399,0.0321,0.8369,0.545
1777530055.7231548,R_Femur,0.0,0.0,0.0,0.0,0.0,0.0,0.0,0.0,0.0,0.0,0.0,0.0,1.0
1777530055.7231548,R_Tibia,-0.0957,-9.4794,2.4931,0.3052,-0.1831,0.3662,-75.2728,0.5603,-112.7472,-0.3414,-0.5063,-0.661,0.436
1777530055.7231548,R_Foot,0.8518,1.2346,9.8909,0.4272,0.0,-0.1221,7.0752,-4.9109,5.1746,0.0597,-0.0455,0.0424,0.9963
1777530055.7241564,Trunk,-7.1729,-0.6604,-6.4552,0.9155,-0.1221,-0.6104,-174.3146,47.8619,65.2039,-0.7582,0.5088,-0.3169,0.2565
1777530055.7241564,L_Femur,0.5886,9.6947,-0.6125,0.2441,-0.3662,-0.1221,93.598,-3.5046,35.9583,0.6866,-0.2448,0.19,0.6577
1777530055.7241564,L_Tibia,-0.2249,-8.7568,-4.1392,-0.2441,-0.3052,0.4883,-115.2905,1.3403,-72.6581,-0.6842,-0.4954,-0.325,0.4253
1777530055.7241564,L_Foot,-1.0288,-0.1148,9.9962,-0.6104,-0.3052,0.3052,-0.5878,5.8337,113.8788,0.0399,0.0321,0.8369,0.545
1777530055.7241564,R_Femur,0.0,0.0,0.0,0.0,0.0,0.0,0.0,0.0,0.0,0.0,0.0,0.0,1.0
1777530055.7241564,R_Tibia,-0.0957,-9.4794,2.4931,0.3052,-0.1831,0.3662,-75.2728,0.5603,-112.7472,-0.3414,-0.5063,-0.661,0.436
1777530055.7241564,R_Foot,0.8518,1.2346,9.8909,0.4272,0.0,-0.1221,7.0752,-4.9109,5.1746,0.0597,-0.0455,0.0424,0.9963
1777530060.7565699,Trunk,-7.1729,-0.6604,-6.4552,0.9155,-0.1221,-0.6104,-174.3146,47.8619,65.2039,-0.7582,0.5088,-0.3169,0.2565
1777530060.7565699,L_Femur,0.5934,9.6899,-0.6125,0.2441,-0.4272,-0.1221,93.62,-3.4827,35.6726,0.6874,-0.243,0.1884,0.658
1777530060.7565699,L_Tibia,-0.2249,-8.7568,-4.1392,-0.2441,-0.3052,0.4883,-115.2905,1.3403,-72.6581,-0.6842,-0.4954,-0.325,0.4253
1777530060.7565699,L_Foot,-1.0288,-0.1148,9.9962,-0.6104,-0.3052,0.3052,-0.5878,5.8337,113.8788,0.0399,0.0321,0.8369,0.545
1777530060.7565699,R_Femur,0.0,0.0,0.0,0.0,0.0,0.0,0.0,0.0,0.0,0.0,0.0,0.0,1.0
1777530060.7565699,R_Tibia,-0.0957,-9.4794,2.4931,0.3052,-0.1831,0.3662,-75.2728,0.5603,-112.7472,-0.3414,-0.5063,-0.661,0.436
1777530060.7565699,R_Foot,0.8518,1.2346,9.8909,0.4272,0.0,-0.1221,7.0752,-4.9109,5.1746,0.0597,-0.0455,0.0424,0.9963
1777530060.757571,Trunk,-7.1729,-0.6604,-6.4552,0.9155,-0.1221,-0.6104,-174.3146,47.8619,65.2039,-0.7582,0.5088,-0.3169,0.2565
1777530060.757571,L_Femur,0.5934,9.6899,-0.6125,0.2441,-0.4272,-0.1221,93.62,-3.4827,35.6726,0.6874,-0.243,0.1884,0.658
1777530060.757571,L_Tibia,-0.2249,-8.7568,-4.1392,-0.2441,-0.3052,0.4272,-115.2905,1.3403,-73.4711,-0.6807,-0.5002,-0.328,0.4229
1777530060.757571,L_Foot,-1.0288,-0.1148,9.9962,-0.6104,-0.3052,0.3052,-0.5878,5.8337,113.8788,0.0399,0.0321,0.8369,0.545
1777530060.757571,R_Femur,0.0,0.0,0.0,0.0,0.0,0.0,0.0,0.0,0.0,0.0,0.0,0.0,1.0
1777530060.757571,R_Tibia,-0.0957,-9.4794,2.4931,0.3052,-0.1831,0.3662,-75.2728,0.5603,-112.7472,-0.3414,-0.5063,-0.661,0.436
1777530060.757571,R_Foot,0.8518,1.2346,9.8909,0.4272,0.0,-0.1221,7.0752,-4.9109,5.1746,0.0597,-0.0455,0.0424,0.9963
1777530060.757571,Trunk,-7.1729,-0.6604,-6.4552,0.9155,-0.1221,-0.6104,-174.3146,47.8619,65.2039,-0.7582,0.5088,-0.3169,0.2565
1777530060.757571,L_Femur,0.5934,9.6899,-0.6125,0.2441,-0.4272,-0.1221,93.62,-3.4827,35.6726,0.6874,-0.243,0.1884,0.658
1777530060.757571,L_Tibia,-0.2249,-8.7568,-4.1392,-0.2441,-0.3052,0.4272,-115.2905,1.3403,-73.4711,-0.6807,-0.5002,-0.328,0.4229
1777530060.757571,L_Foot,-1.0288,-0.1148,9.9962,-0.6714,-0.2441,0.3662,-0.6152,5.8447,113.9832,0.0398,0.0323,0.8373,0.5443
1777530060.757571,R_Femur,0.0,0.0,0.0,0.0,0.0,0.0,0.0,0.0,0.0,0.0,0.0,0.0,1.0
1777530060.757571,R_Tibia,-0.0957,-9.4794,2.4931,0.3052,-0.1831,0.3662,-75.2728,0.5603,-112.7472,-0.3414,-0.5063,-0.661,0.436
1777530060.757571,R_Foot,0.8518,1.2346,9.8909,0.4272,0.0,-0.1221,7.0752,-4.9109,5.1746,0.0597,-0.0455,0.0424,0.9963
1777530060.757571,Trunk,-7.1729,-0.646,-6.46,0.9766,-0.061,-0.6104,-174.3091,47.8619,65.2368,-0.7581,0.5091,-0.3168,0.2566
1777530060.757571,L_Femur,0.5934,9.6899,-0.6125,0.2441,-0.4272,-0.1221,93.62,-3.4827,35.6726,0.6874,-0.243,0.1884,0.658
1777530060.757571,L_Tibia,-0.2249,-8.7568,-4.1392,-0.2441,-0.3052,0.4272,-115.2905,1.3403,-73.4711,-0.6807,-0.5002,-0.328,0.4229
1777530060.757571,L_Foot,-1.0288,-0.1148,9.9962,-0.6714,-0.2441,0.3662,-0.6152,5.8447,113.9832,0.0398,0.0323,0.8373,0.5443
1777530060.757571,R_Femur,0.0,0.0,0.0,0.0,0.0,0.0,0.0,0.0,0.0,0.0,0.0,0.0,1.0
1777530060.757571,R_Tibia,-0.0957,-9.4794,2.4931,0.3052,-0.1831,0.3662,-75.2728,0.5603,-112.7472,-0.3414,-0.5063,-0.661,0.436
1777530060.757571,R_Foot,0.8518,1.2346,9.8909,0.4272,0.0,-0.1221,7.0752,-4.9109,5.1746,0.0597,-0.0455,0.0424,0.9963
1777530060.757571,Trunk,-7.1729,-0.646,-6.46,0.9766,-0.061,-0.6104,-174.3091,47.8619,65.2368,-0.7581,0.5091,-0.3168,0.2566
1777530060.757571,L_Femur,0.5934,9.6899,-0.6125,0.2441,-0.3662,-0.1221,93.62,-3.4827,35.6726,0.6874,-0.243,0.1884,0.658
1777530060.757571,L_Tibia,-0.2249,-8.7568,-4.1392,-0.2441,-0.3052,0.4272,-115.2905,1.3403,-73.4711,-0.6807,-0.5002,-0.328,0.4229
1777530060.757571,L_Foot,-1.0288,-0.1148,9.9962,-0.6714,-0.2441,0.3662,-0.6152,5.8447,113.9832,0.0398,0.0323,0.8373,0.5443
1777530060.757571,R_Femur,0.0,0.0,0.0,0.0,0.0,0.0,0.0,0.0,0.0,0.0,0.0,0.0,1.0
1777530060.757571,R_Tibia,-0.0957,-9.4794,2.4931,0.3052,-0.1831,0.3662,-75.2728,0.5603,-112.7472,-0.3414,-0.5063,-0.661,0.436
1777530060.757571,R_Foot,0.8518,1.2346,9.8909,0.4272,0.0,-0.1221,7.0752,-4.9109,5.1746,0.0597,-0.0455,0.0424,0.9963
1777530060.757571,Trunk,-7.1729,-0.646,-6.46,0.9766,-0.061,-0.6104,-174.3091,47.8619,65.2368,-0.7581,0.5091,-0.3168,0.2566
1777530060.757571,L_Femur,0.5934,9.6899,-0.6125,0.2441,-0.3662,-0.1221,93.62,-3.4827,35.6726,0.6874,-0.243,0.1884,0.658
1777530060.757571,L_Tibia,-0.2249,-8.7568,-4.1392,-0.3052,-0.3052,0.4883,-115.2905,1.3403,-73.4711,-0.6807,-0.5002,-0.328,0.4229
1777530060.757571,L_Foot,-1.0288,-0.1148,9.9962,-0.6714,-0.2441,0.3662,-0.6152,5.8447,113.9832,0.0398,0.0323,0.8373,0.5443
1777530060.757571,R_Femur,0.0,0.0,0.0,0.0,0.0,0.0,0.0,0.0,0.0,0.0,0.0,0.0,1.0
1777530060.757571,R_Tibia,-0.0957,-9.4794,2.4931,0.3052,-0.1831,0.3662,-75.2728,0.5603,-112.7472,-0.3414,-0.5063,-0.661,0.436
1777530060.757571,R_Foot,0.8518,1.2346,9.8909,0.4272,0.0,-0.1221,7.0752,-4.9109,5.1746,0.0597,-0.0455,0.0424,0.9963
1777530060.7585711,Trunk,-7.1729,-0.646,-6.46,0.9766,-0.061,-0.6104,-174.3091,47.8619,65.2368,-0.7581,0.5091,-0.3168,0.2566
1777530060.7585711,L_Femur,0.5934,9.6899,-0.6125,0.2441,-0.3662,-0.1221,93.62,-3.4827,35.6726,0.6874,-0.243,0.1884,0.658
1777530060.7585711,L_Tibia,-0.2249,-8.7568,-4.1392,-0.3052,-0.3052,0.4883,-115.2905,1.3403,-73.4711,-0.6807,-0.5002,-0.328,0.4229
1777530060.7585711,L_Foot,-1.0288,-0.1148,9.9962,-0.6714,-0.2441,0.3662,-0.6152,5.8447,113.9832,0.0398,0.0323,0.8373,0.5443
1777530060.7585711,R_Femur,0.0,0.0,0.0,0.0,0.0,0.0,0.0,0.0,0.0,0.0,0.0,0.0,1.0
1777530060.7585711,R_Tibia,-0.0957,-9.4794,2.4883,0.3052,-0.1831,0.4272,-75.2728,0.5603,-112.7472,-0.3414,-0.5063,-0.661,0.436
1777530060.7585711,R_Foot,0.8518,1.2346,9.8909,0.4272,0.0,-0.1221,7.0752,-4.9109,5.1746,0.0597,-0.0455,0.0424,0.9963
1777530060.7585711,Trunk,-7.1729,-0.646,-6.46,0.9766,-0.061,-0.6104,-174.3091,47.8619,65.2368,-0.7581,0.5091,-0.3168,0.2566
1777530060.7585711,L_Femur,0.5934,9.6899,-0.6125,0.2441,-0.3662,-0.1221,93.62,-3.4827,35.6726,0.6874,-0.243,0.1884,0.658
1777530060.7585711,L_Tibia,-0.2249,-8.7568,-4.1392,-0.3052,-0.3052,0.4883,-115.2905,1.3403,-73.4711,-0.6807,-0.5002,-0.328,0.4229
1777530060.7585711,L_Foot,-1.0288,-0.1148,9.9962,-0.6714,-0.2441,0.3662,-0.6152,5.8447,113.9832,0.0398,0.0323,0.8373,0.5443
1777530060.7585711,R_Femur,0.0,0.0,0.0,0.0,0.0,0.0,0.0,0.0,0.0,0.0,0.0,0.0,1.0
1777530060.7585711,R_Tibia,-0.0957,-9.4794,2.4883,0.3052,-0.1831,0.4272,-75.2728,0.5603,-112.7472,-0.3414,-0.5063,-0.661,0.436
1777530060.7585711,R_Foot,0.8565,1.2298,9.8909,0.4883,0.061,-0.1221,7.0752,-4.9109,5.1801,0.0597,-0.0455,0.0424,0.9963
1777530060.7585711,Trunk,-7.1777,-0.6508,-6.4552,0.9766,0.0,-0.4883,-174.3091,47.8619,65.2368,-0.7581,0.5091,-0.3168,0.2566
1777530060.7585711,L_Femur,0.5934,9.6899,-0.6125,0.2441,-0.3662,-0.1221,93.62,-3.4827,35.6726,0.6874,-0.243,0.1884,0.658
1777530060.7585711,L_Tibia,-0.2249,-8.7568,-4.1392,-0.3052,-0.3052,0.4883,-115.2905,1.3403,-73.4711,-0.6807,-0.5002,-0.328,0.4229
1777530060.7585711,L_Foot,-1.0288,-0.1148,9.9962,-0.6714,-0.2441,0.3662,-0.6152,5.8447,113.9832,0.0398,0.0323,0.8373,0.5443
1777530060.7585711,R_Femur,0.0,0.0,0.0,0.0,0.0,0.0,0.0,0.0,0.0,0.0,0.0,0.0,1.0
1777530060.7585711,R_Tibia,-0.0957,-9.4794,2.4883,0.3052,-0.1831,0.4272,-75.2728,0.5603,-112.7472,-0.3414,-0.5063,-0.661,0.436
1777530060.7585711,R_Foot,0.8565,1.2298,9.8909,0.4883,0.061,-0.1221,7.0752,-4.9109,5.1801,0.0597,-0.0455,0.0424,0.9963
1777530060.7585711,Trunk,-7.1777,-0.6508,-6.4552,0.9766,0.0,-0.4883,-174.3091,47.8619,65.2368,-0.7581,0.5091,-0.3168,0.2566
1777530060.7585711,L_Femur,0.5934,9.6899,-0.6125,0.2441,-0.3662,-0.1221,93.62,-3.4827,35.6726,0.6874,-0.243,0.1884,0.658
1777530060.7585711,L_Tibia,-0.2249,-8.7521,-4.1392,-0.3052,-0.3052,0.4272,-115.2905,1.3403,-73.4766,-0.6807,-0.5002,-0.328,0.4229
1777530060.7585711,L_Foot,-1.0288,-0.1148,9.9962,-0.6714,-0.2441,0.3662,-0.6152,5.8447,113.9832,0.0398,0.0323,0.8373,0.5443
1777530060.7585711,R_Femur,0.0,0.0,0.0,0.0,0.0,0.0,0.0,0.0,0.0,0.0,0.0,0.0,1.0
1777530060.7585711,R_Tibia,-0.0957,-9.4794,2.4883,0.3052,-0.1831,0.4272,-75.2728,0.5603,-112.7472,-0.3414,-0.5063,-0.661,0.436
1777530060.7585711,R_Foot,0.8565,1.2298,9.8909,0.4883,0.061,-0.1221,7.0752,-4.9109,5.1801,0.0597,-0.0455,0.0424,0.9963
1777530060.7585711,Trunk,-7.1777,-0.6508,-6.4552,0.9766,0.0,-0.4883,-174.3091,47.8619,65.2368,-0.7581,0.5091,-0.3168,0.2566
1777530060.7585711,L_Femur,0.5934,9.6899,-0.6125,0.2441,-0.3662,-0.1221,93.62,-3.4827,35.6726,0.6874,-0.243,0.1884,0.658
1777530060.7585711,L_Tibia,-0.2249,-8.7521,-4.1392,-0.3052,-0.3052,0.4272,-115.2905,1.3403,-73.4766,-0.6807,-0.5002,-0.328,0.4229
1777530060.7585711,L_Foot,-1.0288,-0.1148,9.9962,-0.7324,-0.2441,0.3052,-0.6152,5.8502,113.9832,0.0399,0.0323,0.8373,0.5443
1777530060.7585711,R_Femur,0.0,0.0,0.0,0.0,0.0,0.0,0.0,0.0,0.0,0.0,0.0,0.0,1.0
1777530060.7585711,R_Tibia,-0.0957,-9.4794,2.4883,0.3052,-0.1831,0.4272,-75.2728,0.5603,-112.7472,-0.3414,-0.5063,-0.661,0.436
1777530060.7585711,R_Foot,0.8565,1.2298,9.8909,0.4883,0.061,-0.1221,7.0752,-4.9109,5.1801,0.0597,-0.0455,0.0424,0.9963
1777530060.7595713,Trunk,-7.1777,-0.646,-6.46,0.9766,-0.1221,-0.5493,-174.3091,47.8619,65.2368,-0.7581,0.5091,-0.3168,0.2566
1777530060.7595713,L_Femur,0.5934,9.6899,-0.6125,0.2441,-0.3662,-0.1221,93.62,-3.4827,35.6726,0.6874,-0.243,0.1884,0.658
1777530060.7595713,L_Tibia,-0.2249,-8.7521,-4.1392,-0.3052,-0.3052,0.4272,-115.2905,1.3403,-73.4766,-0.6807,-0.5002,-0.328,0.4229
1777530060.7595713,L_Foot,-1.0288,-0.1148,9.9962,-0.7324,-0.2441,0.3052,-0.6152,5.8502,113.9832,0.0399,0.0323,0.8373,0.5443
1777530060.7595713,R_Femur,0.0,0.0,0.0,0.0,0.0,0.0,0.0,0.0,0.0,0.0,0.0,0.0,1.0
1777530060.7595713,R_Tibia,-0.0957,-9.4794,2.4883,0.3052,-0.1831,0.4272,-75.2728,0.5603,-112.7472,-0.3414,-0.5063,-0.661,0.436
1777530060.7595713,R_Foot,0.8565,1.2298,9.8909,0.4883,0.061,-0.1221,7.0752,-4.9109,5.1801,0.0597,-0.0455,0.0424,0.9963
1777530060.7595713,Trunk,-7.1777,-0.646,-6.46,0.9766,-0.1221,-0.5493,-174.3091,47.8619,65.2368,-0.7581,0.5091,-0.3168,0.2566
1777530060.7595713,L_Femur,0.5886,9.6899,-0.6125,0.2441,-0.4272,-0.1221,93.62,-3.4827,35.6671,0.6874,-0.243,0.1884,0.658
1777530060.7595713,L_Tibia,-0.2249,-8.7521,-4.1392,-0.3052,-0.3052,0.4272,-115.2905,1.3403,-73.4766,-0.6807,-0.5002,-0.328,0.4229
1777530060.7595713,L_Foot,-1.0288,-0.1148,9.9962,-0.7324,-0.2441,0.3052,-0.6152,5.8502,113.9832,0.0399,0.0323,0.8373,0.5443
1777530060.7595713,R_Femur,0.0,0.0,0.0,0.0,0.0,0.0,0.0,0.0,0.0,0.0,0.0,0.0,1.0
1777530060.7595713,R_Tibia,-0.0957,-9.4794,2.4883,0.3052,-0.1831,0.4272,-75.2728,0.5603,-112.7472,-0.3414,-0.5063,-0.661,0.436
1777530060.7595713,R_Foot,0.8565,1.2298,9.8909,0.4883,0.061,-0.1221,7.0752,-4.9109,5.1801,0.0597,-0.0455,0.0424,0.9963
1777530060.7595713,Trunk,-7.1777,-0.646,-6.46,0.9766,-0.1221,-0.5493,-174.3091,47.8619,65.2368,-0.7581,0.5091,-0.3168,0.2566
1777530060.7595713,L_Femur,0.5886,9.6899,-0.6125,0.2441,-0.4272,-0.1221,93.62,-3.4827,35.6671,0.6874,-0.243,0.1884,0.658
1777530060.7595713,L_Tibia,-0.2249,-8.7568,-4.1439,-0.2441,-0.3052,0.4883,-115.2905,1.3403,-73.4766,-0.6807,-0.5002,-0.328,0.4229
1777530060.7595713,L_Foot,-1.0288,-0.1148,9.9962,-0.7324,-0.2441,0.3052,-0.6152,5.8502,113.9832,0.0399,0.0323,0.8373,0.5443
1777530060.7595713,R_Femur,0.0,0.0,0.0,0.0,0.0,0.0,0.0,0.0,0.0,0.0,0.0,0.0,1.0
1777530060.7595713,R_Tibia,-0.0957,-9.4794,2.4883,0.3052,-0.1831,0.4272,-75.2728,0.5603,-112.7472,-0.3414,-0.5063,-0.661,0.436
1777530060.7595713,R_Foot,0.8565,1.2298,9.8909,0.4883,0.061,-0.1221,7.0752,-4.9109,5.1801,0.0597,-0.0455,0.0424,0.9963
1777530060.7595713,Trunk,-7.1777,-0.646,-6.46,0.9766,-0.1221,-0.5493,-174.3091,47.8619,65.2368,-0.7581,0.5091,-0.3168,0.2566
1777530060.7595713,L_Femur,0.5886,9.6899,-0.6125,0.2441,-0.4272,-0.1221,93.62,-3.4827,35.6671,0.6874,-0.243,0.1884,0.658
1777530060.7595713,L_Tibia,-0.2249,-8.7568,-4.1439,-0.2441,-0.3052,0.4883,-115.2905,1.3403,-73.4766,-0.6807,-0.5002,-0.328,0.4229
1777530060.7595713,L_Foot,-1.0288,-0.1148,9.9962,-0.6714,-0.3052,0.3052,-0.6207,5.8502,113.9832,0.0398,0.0323,0.8373,0.5443
1777530060.7595713,R_Femur,0.0,0.0,0.0,0.0,0.0,0.0,0.0,0.0,0.0,0.0,0.0,0.0,1.0
1777530060.7595713,R_Tibia,-0.0957,-9.4794,2.4883,0.3052,-0.1831,0.4272,-75.2728,0.5603,-112.7472,-0.3414,-0.5063,-0.661,0.436
1777530060.7595713,R_Foot,0.8565,1.2298,9.8909,0.4883,0.061,-0.1221,7.0752,-4.9109,5.1801,0.0597,-0.0455,0.0424,0.9963
1777530060.7605705,Trunk,-7.1777,-0.646,-6.46,0.9766,-0.1221,-0.5493,-174.3091,47.8619,65.2368,-0.7581,0.5091,-0.3168,0.2566
1777530060.7605705,L_Femur,0.5886,9.6899,-0.6125,0.2441,-0.4272,-0.1221,93.62,-3.4827,35.6671,0.6874,-0.243,0.1884,0.658
1777530060.7605705,L_Tibia,-0.2249,-8.7568,-4.1439,-0.2441,-0.3052,0.4883,-115.2905,1.3403,-73.4766,-0.6807,-0.5002,-0.328,0.4229
1777530060.7605705,L_Foot,-1.0288,-0.1148,9.9962,-0.6714,-0.3052,0.3052,-0.6207,5.8502,113.9832,0.0398,0.0323,0.8373,0.5443
1777530060.7605705,R_Femur,0.0,0.0,0.0,0.0,0.0,0.0,0.0,0.0,0.0,0.0,0.0,0.0,1.0
1777530060.7605705,R_Tibia,-0.0957,-9.4746,2.4883,0.3052,-0.1831,0.3662,-75.2728,0.5603,-112.7472,-0.3414,-0.5063,-0.661,0.436
1777530060.7605705,R_Foot,0.8565,1.2298,9.8909,0.4883,0.061,-0.1221,7.0752,-4.9109,5.1801,0.0597,-0.0455,0.0424,0.9963
1777530060.7605705,Trunk,-7.1777,-0.646,-6.46,0.9766,-0.1221,-0.5493,-174.3091,47.8619,65.2368,-0.7581,0.5091,-0.3168,0.2566
1777530060.7605705,L_Femur,0.5886,9.6899,-0.6125,0.2441,-0.4272,-0.1221,93.62,-3.4827,35.6671,0.6874,-0.243,0.1884,0.658
1777530060.7605705,L_Tibia,-0.2249,-8.7568,-4.1439,-0.2441,-0.3052,0.4883,-115.2905,1.3403,-73.4766,-0.6807,-0.5002,-0.328,0.4229
1777530060.7605705,L_Foot,-1.0288,-0.1148,9.9962,-0.6714,-0.3052,0.3052,-0.6207,5.8502,113.9832,0.0398,0.0323,0.8373,0.5443
1777530060.7605705,R_Femur,0.0,0.0,0.0,0.0,0.0,0.0,0.0,0.0,0.0,0.0,0.0,0.0,1.0
1777530060.7605705,R_Tibia,-0.0957,-9.4746,2.4883,0.3052,-0.1831,0.3662,-75.2728,0.5603,-112.7472,-0.3414,-0.5063,-0.661,0.436
1777530060.7605705,R_Foot,0.8565,1.2298,9.8909,0.4883,0.061,-0.1221,7.0752,-4.9109,5.1801,0.0597,-0.0455,0.0424,0.9963
1777530060.7605705,Trunk,-7.1729,-0.646,-6.4552,0.9766,-0.061,-0.6104,-174.3036,47.8619,65.2368,-0.7581,0.5091,-0.3168,0.2566
1777530060.7605705,L_Femur,0.5886,9.6899,-0.6125,0.2441,-0.4272,-0.1221,93.62,-3.4827,35.6671,0.6874,-0.243,0.1884,0.658
1777530060.7605705,L_Tibia,-0.2249,-8.7568,-4.1439,-0.2441,-0.3052,0.4883,-115.2905,1.3403,-73.4766,-0.6807,-0.5002,-0.328,0.4229
1777530060.7605705,L_Foot,-1.0288,-0.1148,9.9962,-0.6714,-0.3052,0.3052,-0.6207,5.8502,113.9832,0.0398,0.0323,0.8373,0.5443
1777530060.7605705,R_Femur,0.0,0.0,0.0,0.0,0.0,0.0,0.0,0.0,0.0,0.0,0.0,0.0,1.0
1777530060.7605705,R_Tibia,-0.0957,-9.4746,2.4883,0.3052,-0.1831,0.3662,-75.2728,0.5603,-112.7472,-0.3414,-0.5063,-0.661,0.436
1777530060.7605705,R_Foot,0.8565,1.2298,9.8909,0.4883,0.061,-0.1221,7.0752,-4.9109,5.1801,0.0597,-0.0455,0.0424,0.9963
1777530060.7605705,Trunk,-7.1729,-0.646,-6.4552,0.9766,-0.061,-0.6104,-174.3036,47.8619,65.2368,-0.7581,0.5091,-0.3168,0.2566
1777530060.7605705,L_Femur,0.5934,9.6852,-0.6173,0.2441,-0.3662,-0.1221,93.62,-3.4827,35.6671,0.6874,-0.243,0.1884,0.658
1777530060.7605705,L_Tibia,-0.2249,-8.7568,-4.1439,-0.2441,-0.3052,0.4883,-115.2905,1.3403,-73.4766,-0.6807,-0.5002,-0.328,0.4229
1777530060.7605705,L_Foot,-1.0288,-0.1148,9.9962,-0.6714,-0.3052,0.3052,-0.6207,5.8502,113.9832,0.0398,0.0323,0.8373,0.5443
1777530060.7605705,R_Femur,0.0,0.0,0.0,0.0,0.0,0.0,0.0,0.0,0.0,0.0,0.0,0.0,1.0
1777530060.7605705,R_Tibia,-0.0957,-9.4746,2.4883,0.3052,-0.1831,0.3662,-75.2728,0.5603,-112.7472,-0.3414,-0.5063,-0.661,0.436
1777530060.7605705,R_Foot,0.8565,1.2298,9.8909,0.4883,0.061,-0.1221,7.0752,-4.9109,5.1801,0.0597,-0.0455,0.0424,0.9963
1777530060.761571,Trunk,-7.1729,-0.646,-6.4552,0.9766,-0.061,-0.6104,-174.3036,47.8619,65.2368,-0.7581,0.5091,-0.3168,0.2566
1777530060.761571,L_Femur,0.5934,9.6852,-0.6173,0.2441,-0.3662,-0.1221,93.62,-3.4827,35.6671,0.6874,-0.243,0.1884,0.658
1777530060.761571,L_Tibia,-0.2297,-8.7568,-4.1392,-0.2441,-0.3052,0.4272,-115.2905,1.3403,-73.4821,-0.6806,-0.5003,-0.328,0.4229
1777530060.761571,L_Foot,-1.0288,-0.1148,9.9962,-0.6714,-0.3052,0.3052,-0.6207,5.8502,113.9832,0.0398,0.0323,0.8373,0.5443
1777530060.761571,R_Femur,0.0,0.0,0.0,0.0,0.0,0.0,0.0,0.0,0.0,0.0,0.0,0.0,1.0
1777530060.761571,R_Tibia,-0.0957,-9.4746,2.4883,0.3052,-0.1831,0.3662,-75.2728,0.5603,-112.7472,-0.3414,-0.5063,-0.661,0.436
1777530060.761571,R_Foot,0.8565,1.2298,9.8909,0.4883,0.061,-0.1221,7.0752,-4.9109,5.1801,0.0597,-0.0455,0.0424,0.9963
1777530060.761571,Trunk,-7.1729,-0.646,-6.4552,0.9766,-0.061,-0.6104,-174.3036,47.8619,65.2368,-0.7581,0.5091,-0.3168,0.2566
1777530060.761571,L_Femur,0.5934,9.6852,-0.6173,0.2441,-0.3662,-0.1221,93.62,-3.4827,35.6671,0.6874,-0.243,0.1884,0.658
1777530060.761571,L_Tibia,-0.2297,-8.7568,-4.1392,-0.2441,-0.3052,0.4272,-115.2905,1.3403,-73.4821,-0.6806,-0.5003,-0.328,0.4229
1777530060.761571,L_Foot,-1.024,-0.1148,9.9962,-0.6714,-0.3052,0.3052,-0.6152,5.8502,113.9832,0.0399,0.0323,0.8373,0.5443
1777530060.761571,R_Femur,0.0,0.0,0.0,0.0,0.0,0.0,0.0,0.0,0.0,0.0,0.0,0.0,1.0
1777530060.761571,R_Tibia,-0.0957,-9.4746,2.4883,0.3052,-0.1831,0.3662,-75.2728,0.5603,-112.7472,-0.3414,-0.5063,-0.661,0.436
1777530060.761571,R_Foot,0.8565,1.2298,9.8909,0.4883,0.061,-0.1221,7.0752,-4.9109,5.1801,0.0597,-0.0455,0.0424,0.9963
1777530060.761571,Trunk,-7.1729,-0.6412,-6.4552,0.9155,-0.1221,-0.6104,-174.3036,47.8619,65.2368,-0.7581,0.5091,-0.3168,0.2566
1777530060.761571,L_Femur,0.5934,9.6852,-0.6173,0.2441,-0.3662,-0.1221,93.62,-3.4827,35.6671,0.6874,-0.243,0.1884,0.658
1777530060.761571,L_Tibia,-0.2297,-8.7568,-4.1392,-0.2441,-0.3052,0.4272,-115.2905,1.3403,-73.4821,-0.6806,-0.5003,-0.328,0.4229
1777530060.761571,L_Foot,-1.024,-0.1148,9.9962,-0.6714,-0.3052,0.3052,-0.6152,5.8502,113.9832,0.0399,0.0323,0.8373,0.5443
1777530060.761571,R_Femur,0.0,0.0,0.0,0.0,0.0,0.0,0.0,0.0,0.0,0.0,0.0,0.0,1.0
1777530060.761571,R_Tibia,-0.0957,-9.4746,2.4883,0.3052,-0.1831,0.3662,-75.2728,0.5603,-112.7472,-0.3414,-0.5063,-0.661,0.436
1777530060.761571,R_Foot,0.8565,1.2298,9.8909,0.4883,0.061,-0.1221,7.0752,-4.9109,5.1801,0.0597,-0.0455,0.0424,0.9963
1777530060.761571,Trunk,-7.1729,-0.6412,-6.4552,0.9155,-0.1221,-0.6104,-174.3036,47.8619,65.2368,-0.7581,0.5091,-0.3168,0.2566
1777530060.761571,L_Femur,0.5886,9.6899,-0.6173,0.2441,-0.4883,-0.1221,93.62,-3.4827,35.6671,0.6874,-0.243,0.1884,0.658
1777530060.761571,L_Tibia,-0.2297,-8.7568,-4.1392,-0.2441,-0.3052,0.4272,-115.2905,1.3403,-73.4821,-0.6806,-0.5003,-0.328,0.4229
1777530060.761571,L_Foot,-1.024,-0.1148,9.9962,-0.6714,-0.3052,0.3052,-0.6152,5.8502,113.9832,0.0399,0.0323,0.8373,0.5443
1777530060.761571,R_Femur,0.0,0.0,0.0,0.0,0.0,0.0,0.0,0.0,0.0,0.0,0.0,0.0,1.0
1777530060.761571,R_Tibia,-0.0957,-9.4746,2.4883,0.3052,-0.1831,0.3662,-75.2728,0.5603,-112.7472,-0.3414,-0.5063,-0.661,0.436
1777530060.761571,R_Foot,0.8565,1.2298,9.8909,0.4883,0.061,-0.1221,7.0752,-4.9109,5.1801,0.0597,-0.0455,0.0424,0.9963
1777530060.761571,Trunk,-7.1729,-0.6412,-6.4552,0.9155,-0.1221,-0.6104,-174.3036,47.8619,65.2368,-0.7581,0.5091,-0.3168,0.2566
1777530060.761571,L_Femur,0.5886,9.6899,-0.6173,0.2441,-0.4883,-0.1221,93.62,-3.4827,35.6671,0.6874,-0.243,0.1884,0.658
1777530060.761571,L_Tibia,-0.2249,-8.7616,-4.1392,-0.2441,-0.3052,0.4883,-115.296,1.3403,-73.4875,-0.6806,-0.5003,-0.328,0.4229
1777530060.761571,L_Foot,-1.024,-0.1148,9.9962,-0.6714,-0.3052,0.3052,-0.6152,5.8502,113.9832,0.0399,0.0323,0.8373,0.5443
1777530060.761571,R_Femur,0.0,0.0,0.0,0.0,0.0,0.0,0.0,0.0,0.0,0.0,0.0,0.0,1.0
1777530060.761571,R_Tibia,-0.0957,-9.4746,2.4883,0.3052,-0.1831,0.3662,-75.2728,0.5603,-112.7472,-0.3414,-0.5063,-0.661,0.436
1777530060.761571,R_Foot,0.8565,1.2298,9.8909,0.4883,0.061,-0.1221,7.0752,-4.9109,5.1801,0.0597,-0.0455,0.0424,0.9963
1777530060.7625713,Trunk,-7.1729,-0.6412,-6.4552,0.9155,-0.1221,-0.6104,-174.3036,47.8619,65.2368,-0.7581,0.5091,-0.3168,0.2566
1777530060.7625713,L_Femur,0.5886,9.6899,-0.6173,0.2441,-0.4883,-0.1221,93.62,-3.4827,35.6671,0.6874,-0.243,0.1884,0.658
1777530060.7625713,L_Tibia,-0.2249,-8.7616,-4.1392,-0.2441,-0.3052,0.4883,-115.296,1.3403,-73.4875,-0.6806,-0.5003,-0.328,0.4229
1777530060.7625713,L_Foot,-1.024,-0.1101,10.001,-0.6714,-0.2441,0.3052,-0.6152,5.8447,113.9832,0.0398,0.0323,0.8373,0.5443
1777530060.7625713,R_Femur,0.0,0.0,0.0,0.0,0.0,0.0,0.0,0.0,0.0,0.0,0.0,0.0,1.0
1777530060.7625713,R_Tibia,-0.0957,-9.4746,2.4883,0.3052,-0.1831,0.3662,-75.2728,0.5603,-112.7472,-0.3414,-0.5063,-0.661,0.436
1777530060.7625713,R_Foot,0.8565,1.2298,9.8909,0.4883,0.061,-0.1221,7.0752,-4.9109,5.1801,0.0597,-0.0455,0.0424,0.9963
1777530060.7625713,Trunk,-7.1729,-0.6412,-6.4552,0.9155,-0.1221,-0.6104,-174.3036,47.8619,65.2368,-0.7581,0.5091,-0.3168,0.2566
1777530060.7625713,L_Femur,0.5886,9.6899,-0.6173,0.2441,-0.4883,-0.1221,93.62,-3.4827,35.6671,0.6874,-0.243,0.1884,0.658
1777530060.7625713,L_Tibia,-0.2249,-8.7616,-4.1392,-0.2441,-0.3052,0.4883,-115.296,1.3403,-73.4875,-0.6806,-0.5003,-0.328,0.4229
1777530060.7625713,L_Foot,-1.024,-0.1101,10.001,-0.6714,-0.2441,0.3052,-0.6152,5.8447,113.9832,0.0398,0.0323,0.8373,0.5443
1777530060.7625713,R_Femur,0.0,0.0,0.0,0.0,0.0,0.0,0.0,0.0,0.0,0.0,0.0,0.0,1.0
1777530060.7625713,R_Tibia,-0.0909,-9.4746,2.4931,0.3662,-0.2441,0.3052,-75.2728,0.5603,-112.7472,-0.3414,-0.5063,-0.661,0.436
1777530060.7625713,R_Foot,0.8565,1.2298,9.8909,0.4883,0.061,-0.1221,7.0752,-4.9109,5.1801,0.0597,-0.0455,0.0424,0.9963
1777530060.7625713,Trunk,-7.1729,-0.6412,-6.4552,0.9155,-0.1221,-0.6104,-174.3036,47.8619,65.2368,-0.7581,0.5091,-0.3168,0.2566
1777530060.7625713,L_Femur,0.5886,9.6899,-0.6173,0.2441,-0.4883,-0.1221,93.62,-3.4827,35.6671,0.6874,-0.243,0.1884,0.658
1777530060.7625713,L_Tibia,-0.2249,-8.7616,-4.1392,-0.2441,-0.3052,0.4883,-115.296,1.3403,-73.4875,-0.6806,-0.5003,-0.328,0.4229
1777530060.7625713,L_Foot,-1.024,-0.1101,10.001,-0.6714,-0.2441,0.3052,-0.6152,5.8447,113.9832,0.0398,0.0323,0.8373,0.5443
1777530060.7625713,R_Femur,0.0,0.0,0.0,0.0,0.0,0.0,0.0,0.0,0.0,0.0,0.0,0.0,1.0
1777530060.7625713,R_Tibia,-0.0909,-9.4746,2.4931,0.3662,-0.2441,0.3052,-75.2728,0.5603,-112.7472,-0.3414,-0.5063,-0.661,0.436
1777530060.7625713,R_Foot,0.8565,1.2298,9.8861,0.4272,0.0,-0.1221,7.0752,-4.9109,5.1801,0.0597,-0.0455,0.0424,0.9963
1777530060.7625713,Trunk,-7.1777,-0.646,-6.46,0.9766,-0.061,-0.6104,-174.3036,47.8619,65.2368,-0.7581,0.5091,-0.3168,0.2566
1777530060.7625713,L_Femur,0.5886,9.6899,-0.6173,0.2441,-0.4883,-0.1221,93.62,-3.4827,35.6671,0.6874,-0.243,0.1884,0.658
1777530060.7625713,L_Tibia,-0.2249,-8.7616,-4.1392,-0.2441,-0.3052,0.4883,-115.296,1.3403,-73.4875,-0.6806,-0.5003,-0.328,0.4229
1777530060.7625713,L_Foot,-1.024,-0.1101,10.001,-0.6714,-0.2441,0.3052,-0.6152,5.8447,113.9832,0.0398,0.0323,0.8373,0.5443
1777530060.7625713,R_Femur,0.0,0.0,0.0,0.0,0.0,0.0,0.0,0.0,0.0,0.0,0.0,0.0,1.0
1777530060.7625713,R_Tibia,-0.0909,-9.4746,2.4931,0.3662,-0.2441,0.3052,-75.2728,0.5603,-112.7472,-0.3414,-0.5063,-0.661,0.436
1777530060.7625713,R_Foot,0.8565,1.2298,9.8861,0.4272,0.0,-0.1221,7.0752,-4.9109,5.1801,0.0597,-0.0455,0.0424,0.9963
1777530060.7625713,Trunk,-7.1777,-0.646,-6.46,0.9766,-0.061,-0.6104,-174.3036,47.8619,65.2368,-0.7581,0.5091,-0.3168,0.2566
1777530060.7625713,L_Femur,0.5886,9.6852,-0.6125,0.2441,-0.3662,-0.1221,93.62,-3.4827,35.6671,0.6874,-0.243,0.1884,0.658
1777530060.7625713,L_Tibia,-0.2249,-8.7616,-4.1392,-0.2441,-0.3052,0.4883,-115.296,1.3403,-73.4875,-0.6806,-0.5003,-0.328,0.4229
1777530060.7625713,L_Foot,-1.024,-0.1101,10.001,-0.6714,-0.2441,0.3052,-0.6152,5.8447,113.9832,0.0398,0.0323,0.8373,0.5443
1777530060.7625713,R_Femur,0.0,0.0,0.0,0.0,0.0,0.0,0.0,0.0,0.0,0.0,0.0,0.0,1.0
1777530060.7625713,R_Tibia,-0.0909,-9.4746,2.4931,0.3662,-0.2441,0.3052,-75.2728,0.5603,-112.7472,-0.3414,-0.5063,-0.661,0.436
1777530060.7625713,R_Foot,0.8565,1.2298,9.8861,0.4272,0.0,-0.1221,7.0752,-4.9109,5.1801,0.0597,-0.0455,0.0424,0.9963
1777530060.7635713,Trunk,-7.1777,-0.646,-6.46,0.9766,-0.061,-0.6104,-174.3036,47.8619,65.2368,-0.7581,0.5091,-0.3168,0.2566
1777530060.7635713,L_Femur,0.5886,9.6852,-0.6125,0.2441,-0.3662,-0.1221,93.62,-3.4827,35.6671,0.6874,-0.243,0.1884,0.658
1777530060.7635713,L_Tibia,-0.2249,-8.7568,-4.1344,-0.2441,-0.3052,0.4883,-115.296,1.3403,-73.4875,-0.6806,-0.5003,-0.328,0.4229
1777530060.7635713,L_Foot,-1.024,-0.1101,10.001,-0.6714,-0.2441,0.3052,-0.6152,5.8447,113.9832,0.0398,0.0323,0.8373,0.5443
1777530060.7635713,R_Femur,0.0,0.0,0.0,0.0,0.0,0.0,0.0,0.0,0.0,0.0,0.0,0.0,1.0
1777530060.7635713,R_Tibia,-0.0909,-9.4746,2.4931,0.3662,-0.2441,0.3052,-75.2728,0.5603,-112.7472,-0.3414,-0.5063,-0.661,0.436
1777530060.7635713,R_Foot,0.8565,1.2298,9.8861,0.4272,0.0,-0.1221,7.0752,-4.9109,5.1801,0.0597,-0.0455,0.0424,0.9963
1777530060.7635713,Trunk,-7.1777,-0.646,-6.46,0.9766,-0.061,-0.6104,-174.3036,47.8619,65.2368,-0.7581,0.5091,-0.3168,0.2566
1777530060.7635713,L_Femur,0.5886,9.6852,-0.6125,0.2441,-0.3662,-0.1221,93.62,-3.4827,35.6671,0.6874,-0.243,0.1884,0.658
1777530060.7635713,L_Tibia,-0.2249,-8.7568,-4.1344,-0.2441,-0.3052,0.4883,-115.296,1.3403,-73.4875,-0.6806,-0.5003,-0.328,0.4229
1777530060.7635713,L_Foot,-1.0336,-0.1148,10.001,-0.6104,-0.1831,0.3052,-0.6152,5.8447,113.9832,0.0398,0.0323,0.8373,0.5443
1777530060.7635713,R_Femur,0.0,0.0,0.0,0.0,0.0,0.0,0.0,0.0,0.0,0.0,0.0,0.0,1.0
1777530060.7635713,R_Tibia,-0.0909,-9.4746,2.4931,0.3662,-0.2441,0.3052,-75.2728,0.5603,-112.7472,-0.3414,-0.5063,-0.661,0.436
1777530060.7635713,R_Foot,0.8565,1.2298,9.8861,0.4272,0.0,-0.1221,7.0752,-4.9109,5.1801,0.0597,-0.0455,0.0424,0.9963
1777530060.7635713,Trunk,-7.1825,-0.6412,-6.4552,0.9155,-0.061,-0.6104,-174.3036,47.8619,65.2368,-0.7581,0.5091,-0.3168,0.2566
1777530060.7635713,L_Femur,0.5886,9.6852,-0.6125,0.2441,-0.3662,-0.1221,93.62,-3.4827,35.6671,0.6874,-0.243,0.1884,0.658
1777530060.7635713,L_Tibia,-0.2249,-8.7568,-4.1344,-0.2441,-0.3052,0.4883,-115.296,1.3403,-73.4875,-0.6806,-0.5003,-0.328,0.4229
1777530060.7635713,L_Foot,-1.0336,-0.1148,10.001,-0.6104,-0.1831,0.3052,-0.6152,5.8447,113.9832,0.0398,0.0323,0.8373,0.5443
1777530060.7635713,R_Femur,0.0,0.0,0.0,0.0,0.0,0.0,0.0,0.0,0.0,0.0,0.0,0.0,1.0
1777530060.7635713,R_Tibia,-0.0909,-9.4746,2.4931,0.3662,-0.2441,0.3052,-75.2728,0.5603,-112.7472,-0.3414,-0.5063,-0.661,0.436
1777530060.7635713,R_Foot,0.8565,1.2298,9.8861,0.4272,0.0,-0.1221,7.0752,-4.9109,5.1801,0.0597,-0.0455,0.0424,0.9963
1777530060.7635713,Trunk,-7.1825,-0.6412,-6.4552,0.9155,-0.061,-0.6104,-174.3036,47.8619,65.2368,-0.7581,0.5091,-0.3168,0.2566
1777530060.7635713,L_Femur,0.5886,9.6852,-0.6125,0.2441,-0.3662,-0.1221,93.62,-3.4827,35.6671,0.6874,-0.243,0.1884,0.658
1777530060.7635713,L_Tibia,-0.2249,-8.7616,-4.1392,-0.2441,-0.2441,0.4272,-115.2905,1.3403,-73.493,-0.6806,-0.5003,-0.3281,0.4229
1777530060.7635713,L_Foot,-1.0336,-0.1148,10.001,-0.6104,-0.1831,0.3052,-0.6152,5.8447,113.9832,0.0398,0.0323,0.8373,0.5443
1777530060.7635713,R_Femur,0.0,0.0,0.0,0.0,0.0,0.0,0.0,0.0,0.0,0.0,0.0,0.0,1.0
1777530060.7635713,R_Tibia,-0.0909,-9.4746,2.4931,0.3662,-0.2441,0.3052,-75.2728,0.5603,-112.7472,-0.3414,-0.5063,-0.661,0.436
1777530060.7635713,R_Foot,0.8565,1.2298,9.8861,0.4272,0.0,-0.1221,7.0752,-4.9109,5.1801,0.0597,-0.0455,0.0424,0.9963
1777530060.7645707,Trunk,-7.1825,-0.6412,-6.4552,0.9155,-0.061,-0.6104,-174.3036,47.8619,65.2368,-0.7581,0.5091,-0.3168,0.2566
1777530060.7645707,L_Femur,0.5886,9.6852,-0.6125,0.2441,-0.3662,-0.1221,93.62,-3.4827,35.6671,0.6874,-0.243,0.1884,0.658
1777530060.7645707,L_Tibia,-0.2249,-8.7616,-4.1392,-0.2441,-0.2441,0.4272,-115.2905,1.3403,-73.493,-0.6806,-0.5003,-0.3281,0.4229
1777530060.7645707,L_Foot,-1.0288,-0.1196,10.001,-0.7324,-0.2441,0.3662,-0.6152,5.8447,113.9832,0.0398,0.0323,0.8373,0.5443
1777530060.7645707,R_Femur,0.0,0.0,0.0,0.0,0.0,0.0,0.0,0.0,0.0,0.0,0.0,0.0,1.0
1777530060.7645707,R_Tibia,-0.0909,-9.4746,2.4931,0.3662,-0.2441,0.3052,-75.2728,0.5603,-112.7472,-0.3414,-0.5063,-0.661,0.436
1777530060.7645707,R_Foot,0.8565,1.2298,9.8861,0.4272,0.0,-0.1221,7.0752,-4.9109,5.1801,0.0597,-0.0455,0.0424,0.9963
1777530067.6860974,Trunk,-7.1825,-0.6412,-6.4552,0.9155,-0.061,-0.6104,-174.3036,47.8619,65.2368,-0.7581,0.5091,-0.3168,0.2566
1777530067.6860974,L_Femur,0.5886,9.6947,-0.6077,0.1831,-0.3662,-0.061,93.6255,-3.4662,35.4254,0.6879,-0.2414,0.1871,0.6584
1777530067.6860974,L_Tibia,-0.2249,-8.7616,-4.1392,-0.2441,-0.2441,0.4272,-115.2905,1.3403,-73.493,-0.6806,-0.5003,-0.3281,0.4229
1777530067.6860974,L_Foot,-1.0288,-0.1196,10.001,-0.7324,-0.2441,0.3662,-0.6152,5.8447,113.9832,0.0398,0.0323,0.8373,0.5443
1777530067.6860974,R_Femur,0.0,0.0,0.0,0.0,0.0,0.0,0.0,0.0,0.0,0.0,0.0,0.0,1.0
1777530067.6860974,R_Tibia,-0.0909,-9.4746,2.4931,0.3662,-0.2441,0.3052,-75.2728,0.5603,-112.7472,-0.3414,-0.5063,-0.661,0.436
1777530067.6860974,R_Foot,0.8565,1.2298,9.8861,0.4272,0.0,-0.1221,7.0752,-4.9109,5.1801,0.0597,-0.0455,0.0424,0.9963
1777530067.6860974,Trunk,-7.1825,-0.6412,-6.4552,0.9155,-0.061,-0.6104,-174.3036,47.8619,65.2368,-0.7581,0.5091,-0.3168,0.2566
1777530067.6860974,L_Femur,0.5886,9.6947,-0.6077,0.1831,-0.3662,-0.061,93.6255,-3.4662,35.4254,0.6879,-0.2414,0.1871,0.6584
1777530067.6860974,L_Tibia,-0.2249,-8.7664,-4.1344,-0.3662,-0.2441,0.4272,-115.296,1.3348,-74.6466,-0.6755,-0.5072,-0.3323,0.4195
1777530067.6860974,L_Foot,-1.0288,-0.1196,10.001,-0.7324,-0.2441,0.3662,-0.6152,5.8447,113.9832,0.0398,0.0323,0.8373,0.5443
1777530067.6860974,R_Femur,0.0,0.0,0.0,0.0,0.0,0.0,0.0,0.0,0.0,0.0,0.0,0.0,1.0
1777530067.6860974,R_Tibia,-0.0909,-9.4746,2.4931,0.3662,-0.2441,0.3052,-75.2728,0.5603,-112.7472,-0.3414,-0.5063,-0.661,0.436
1777530067.6860974,R_Foot,0.8565,1.2298,9.8861,0.4272,0.0,-0.1221,7.0752,-4.9109,5.1801,0.0597,-0.0455,0.0424,0.9963
1777530067.6860974,Trunk,-7.1825,-0.6412,-6.4552,0.9155,-0.061,-0.6104,-174.3036,47.8619,65.2368,-0.7581,0.5091,-0.3168,0.2566
1777530067.6860974,L_Femur,0.5886,9.6947,-0.6077,0.1831,-0.3662,-0.061,93.6255,-3.4662,35.4254,0.6879,-0.2414,0.1871,0.6584
1777530067.6860974,L_Tibia,-0.2249,-8.7664,-4.1344,-0.3662,-0.2441,0.4272,-115.296,1.3348,-74.6466,-0.6755,-0.5072,-0.3323,0.4195
1777530067.6860974,L_Foot,-1.0288,-0.1148,10.001,-0.6714,-0.2441,0.3052,-0.6976,5.8777,113.9008,0.0397,0.0331,0.8369,0.5449
1777530067.6860974,R_Femur,0.0,0.0,0.0,0.0,0.0,0.0,0.0,0.0,0.0,0.0,0.0,0.0,1.0
1777530067.6860974,R_Tibia,-0.0909,-9.4746,2.4931,0.3662,-0.2441,0.3052,-75.2728,0.5603,-112.7472,-0.3414,-0.5063,-0.661,0.436
1777530067.6860974,R_Foot,0.8565,1.2298,9.8861,0.4272,0.0,-0.1221,7.0752,-4.9109,5.1801,0.0597,-0.0455,0.0424,0.9963
1777530067.6870975,Trunk,-7.1777,-0.6604,-6.436,0.9155,0.3052,-0.4272,-174.342,47.8455,65.7422,-0.7559,0.5123,-0.3157,0.2577
1777530067.6870975,L_Femur,0.5886,9.6947,-0.6077,0.1831,-0.3662,-0.061,93.6255,-3.4662,35.4254,0.6879,-0.2414,0.1871,0.6584
1777530067.6870975,L_Tibia,-0.2249,-8.7664,-4.1344,-0.3662,-0.2441,0.4272,-115.296,1.3348,-74.6466,-0.6755,-0.5072,-0.3323,0.4195
1777530067.6870975,L_Foot,-1.0288,-0.1148,10.001,-0.6714,-0.2441,0.3052,-0.6976,5.8777,113.9008,0.0397,0.0331,0.8369,0.5449
1777530067.6870975,R_Femur,0.0,0.0,0.0,0.0,0.0,0.0,0.0,0.0,0.0,0.0,0.0,0.0,1.0
1777530067.6870975,R_Tibia,-0.0909,-9.4746,2.4931,0.3662,-0.2441,0.3052,-75.2728,0.5603,-112.7472,-0.3414,-0.5063,-0.661,0.436
1777530067.6870975,R_Foot,0.8565,1.2298,9.8861,0.4272,0.0,-0.1221,7.0752,-4.9109,5.1801,0.0597,-0.0455,0.0424,0.9963
1777530067.6870975,Trunk,-7.1777,-0.6604,-6.436,0.9155,0.3052,-0.4272,-174.342,47.8455,65.7422,-0.7559,0.5123,-0.3157,0.2577
1777530067.6870975,L_Femur,0.5934,9.6804,-0.6125,0.3052,-0.4883,-0.1831,93.6255,-3.4662,35.4254,0.6879,-0.2414,0.1871,0.6584
1777530067.6870975,L_Tibia,-0.2249,-8.7664,-4.1344,-0.3662,-0.2441,0.4272,-115.296,1.3348,-74.6466,-0.6755,-0.5072,-0.3323,0.4195
1777530067.6870975,L_Foot,-1.0288,-0.1148,10.001,-0.6714,-0.2441,0.3052,-0.6976,5.8777,113.9008,0.0397,0.0331,0.8369,0.5449
1777530067.6870975,R_Femur,0.0,0.0,0.0,0.0,0.0,0.0,0.0,0.0,0.0,0.0,0.0,0.0,1.0
1777530067.6870975,R_Tibia,-0.0909,-9.4746,2.4931,0.3662,-0.2441,0.3052,-75.2728,0.5603,-112.7472,-0.3414,-0.5063,-0.661,0.436
1777530067.6870975,R_Foot,0.8565,1.2298,9.8861,0.4272,0.0,-0.1221,7.0752,-4.9109,5.1801,0.0597,-0.0455,0.0424,0.9963
1777530067.6870975,Trunk,-7.1777,-0.6604,-6.436,0.9155,0.3052,-0.4272,-174.342,47.8455,65.7422,-0.7559,0.5123,-0.3157,0.2577
1777530067.6870975,L_Femur,0.5934,9.6804,-0.6125,0.3052,-0.4883,-0.1831,93.6255,-3.4662,35.4254,0.6879,-0.2414,0.1871,0.6584
1777530067.6870975,L_Tibia,-0.2249,-8.7568,-4.1439,-0.3052,-0.3052,0.4272,-115.296,1.3348,-74.6521,-0.6755,-0.5072,-0.3323,0.4195
1777530067.6870975,L_Foot,-1.0288,-0.1148,10.001,-0.6714,-0.2441,0.3052,-0.6976,5.8777,113.9008,0.0397,0.0331,0.8369,0.5449
1777530067.6870975,R_Femur,0.0,0.0,0.0,0.0,0.0,0.0,0.0,0.0,0.0,0.0,0.0,0.0,1.0
1777530067.6870975,R_Tibia,-0.0909,-9.4746,2.4931,0.3662,-0.2441,0.3052,-75.2728,0.5603,-112.7472,-0.3414,-0.5063,-0.661,0.436
1777530067.6870975,R_Foot,0.8565,1.2298,9.8861,0.4272,0.0,-0.1221,7.0752,-4.9109,5.1801,0.0597,-0.0455,0.0424,0.9963
1777530067.6870975,Trunk,-7.1777,-0.6604,-6.436,0.9155,0.3052,-0.4272,-174.342,47.8455,65.7422,-0.7559,0.5123,-0.3157,0.2577
1777530067.6870975,L_Femur,0.5934,9.6804,-0.6125,0.3052,-0.4883,-0.1831,93.6255,-3.4662,35.4254,0.6879,-0.2414,0.1871,0.6584
1777530067.6870975,L_Tibia,-0.2249,-8.7568,-4.1439,-0.3052,-0.3052,0.4272,-115.296,1.3348,-74.6521,-0.6755,-0.5072,-0.3323,0.4195
1777530067.6870975,L_Foot,-1.0288,-0.1196,10.001,-0.7324,-0.2441,0.3052,-0.6976,5.8777,113.9008,0.0397,0.0331,0.8369,0.5449
1777530067.6870975,R_Femur,0.0,0.0,0.0,0.0,0.0,0.0,0.0,0.0,0.0,0.0,0.0,0.0,1.0
1777530067.6870975,R_Tibia,-0.0909,-9.4746,2.4931,0.3662,-0.2441,0.3052,-75.2728,0.5603,-112.7472,-0.3414,-0.5063,-0.661,0.436
1777530067.6870975,R_Foot,0.8565,1.2298,9.8861,0.4272,0.0,-0.1221,7.0752,-4.9109,5.1801,0.0597,-0.0455,0.0424,0.9963
1777530067.6870975,Trunk,-7.1777,-0.6604,-6.436,0.9155,0.3052,-0.4272,-174.342,47.8455,65.7422,-0.7559,0.5123,-0.3157,0.2577
1777530067.6870975,L_Femur,0.5934,9.6804,-0.6125,0.3052,-0.4883,-0.1831,93.6255,-3.4662,35.4254,0.6879,-0.2414,0.1871,0.6584
1777530067.6870975,L_Tibia,-0.2249,-8.7568,-4.1439,-0.3052,-0.3052,0.4272,-115.296,1.3348,-74.6521,-0.6755,-0.5072,-0.3323,0.4195
1777530067.6870975,L_Foot,-1.0288,-0.1196,10.001,-0.7324,-0.2441,0.3052,-0.6976,5.8777,113.9008,0.0397,0.0331,0.8369,0.5449
1777530067.6870975,R_Femur,0.0,0.0,0.0,0.0,0.0,0.0,0.0,0.0,0.0,0.0,0.0,0.0,1.0
1777530067.6870975,R_Tibia,-0.0909,-9.4746,2.4931,0.3662,-0.2441,0.3052,-75.2728,0.5603,-112.7472,-0.3414,-0.5063,-0.661,0.436
1777530067.6870975,R_Foot,0.8565,1.225,9.8861,0.4272,0.061,-0.1221,7.0752,-4.9274,4.8889,0.0598,-0.0455,0.0399,0.9964
1777530067.6880972,Trunk,-7.1873,-0.6699,-6.46,0.9766,-0.1831,-0.6714,-174.342,47.8455,65.7422,-0.7559,0.5123,-0.3157,0.2577
1777530067.6880972,L_Femur,0.5934,9.6804,-0.6125,0.3052,-0.4883,-0.1831,93.6255,-3.4662,35.4254,0.6879,-0.2414,0.1871,0.6584
1777530067.6880972,L_Tibia,-0.2249,-8.7568,-4.1439,-0.3052,-0.3052,0.4272,-115.296,1.3348,-74.6521,-0.6755,-0.5072,-0.3323,0.4195
1777530067.6880972,L_Foot,-1.0288,-0.1196,10.001,-0.7324,-0.2441,0.3052,-0.6976,5.8777,113.9008,0.0397,0.0331,0.8369,0.5449
1777530067.6880972,R_Femur,0.0,0.0,0.0,0.0,0.0,0.0,0.0,0.0,0.0,0.0,0.0,0.0,1.0
1777530067.6880972,R_Tibia,-0.0909,-9.4746,2.4931,0.3662,-0.2441,0.3052,-75.2728,0.5603,-112.7472,-0.3414,-0.5063,-0.661,0.436
1777530067.6880972,R_Foot,0.8565,1.225,9.8861,0.4272,0.061,-0.1221,7.0752,-4.9274,4.8889,0.0598,-0.0455,0.0399,0.9964
1777530067.6880972,Trunk,-7.1873,-0.6699,-6.46,0.9766,-0.1831,-0.6714,-174.342,47.8455,65.7422,-0.7559,0.5123,-0.3157,0.2577
1777530067.6880972,L_Femur,0.5886,9.6804,-0.6221,0.1831,-0.3662,-0.061,93.6255,-3.4662,35.4254,0.6879,-0.2414,0.1871,0.6584
1777530067.6880972,L_Tibia,-0.2249,-8.7568,-4.1439,-0.3052,-0.3052,0.4272,-115.296,1.3348,-74.6521,-0.6755,-0.5072,-0.3323,0.4195
1777530067.6880972,L_Foot,-1.0288,-0.1196,10.001,-0.7324,-0.2441,0.3052,-0.6976,5.8777,113.9008,0.0397,0.0331,0.8369,0.5449
1777530067.6880972,R_Femur,0.0,0.0,0.0,0.0,0.0,0.0,0.0,0.0,0.0,0.0,0.0,0.0,1.0
1777530067.6880972,R_Tibia,-0.0909,-9.4746,2.4931,0.3662,-0.2441,0.3052,-75.2728,0.5603,-112.7472,-0.3414,-0.5063,-0.661,0.436
1777530067.6880972,R_Foot,0.8565,1.225,9.8861,0.4272,0.061,-0.1221,7.0752,-4.9274,4.8889,0.0598,-0.0455,0.0399,0.9964
1777530067.6880972,Trunk,-7.1873,-0.6699,-6.46,0.9766,-0.1831,-0.6714,-174.342,47.8455,65.7422,-0.7559,0.5123,-0.3157,0.2577
1777530067.6880972,L_Femur,0.5886,9.6804,-0.6221,0.1831,-0.3662,-0.061,93.6255,-3.4662,35.4254,0.6879,-0.2414,0.1871,0.6584
1777530067.6880972,L_Tibia,-0.2249,-8.7521,-4.1392,-0.2441,-0.3052,0.4883,-115.296,1.3348,-74.6521,-0.6755,-0.5072,-0.3323,0.4195
1777530067.6880972,L_Foot,-1.0288,-0.1196,10.001,-0.7324,-0.2441,0.3052,-0.6976,5.8777,113.9008,0.0397,0.0331,0.8369,0.5449
1777530067.6880972,R_Femur,0.0,0.0,0.0,0.0,0.0,0.0,0.0,0.0,0.0,0.0,0.0,0.0,1.0
1777530067.6880972,R_Tibia,-0.0909,-9.4746,2.4931,0.3662,-0.2441,0.3052,-75.2728,0.5603,-112.7472,-0.3414,-0.5063,-0.661,0.436
1777530067.6880972,R_Foot,0.8565,1.225,9.8861,0.4272,0.061,-0.1221,7.0752,-4.9274,4.8889,0.0598,-0.0455,0.0399,0.9964
1777530067.6880972,Trunk,-7.1873,-0.6699,-6.46,0.9766,-0.1831,-0.6714,-174.342,47.8455,65.7422,-0.7559,0.5123,-0.3157,0.2577
1777530067.6880972,L_Femur,0.5886,9.6804,-0.6221,0.1831,-0.3662,-0.061,93.6255,-3.4662,35.4254,0.6879,-0.2414,0.1871,0.6584
1777530067.6880972,L_Tibia,-0.2249,-8.7521,-4.1392,-0.2441,-0.3052,0.4883,-115.296,1.3348,-74.6521,-0.6755,-0.5072,-0.3323,0.4195
1777530067.6880972,L_Foot,-1.024,-0.1196,10.001,-0.7324,-0.2441,0.2441,-0.6976,5.8777,113.9008,0.0397,0.0331,0.8369,0.5449
1777530067.6880972,R_Femur,0.0,0.0,0.0,0.0,0.0,0.0,0.0,0.0,0.0,0.0,0.0,0.0,1.0
1777530067.6880972,R_Tibia,-0.0909,-9.4746,2.4931,0.3662,-0.2441,0.3052,-75.2728,0.5603,-112.7472,-0.3414,-0.5063,-0.661,0.436
1777530067.6880972,R_Foot,0.8565,1.225,9.8861,0.4272,0.061,-0.1221,7.0752,-4.9274,4.8889,0.0598,-0.0455,0.0399,0.9964
1777530067.6880972,Trunk,-7.1873,-0.6699,-6.46,0.9766,-0.1831,-0.6714,-174.342,47.8455,65.7422,-0.7559,0.5123,-0.3157,0.2577
1777530067.6880972,L_Femur,0.5886,9.6899,-0.6173,0.3052,-0.4272,-0.1221,93.6255,-3.4662,35.4254,0.6879,-0.2414,0.1871,0.6584
1777530067.6880972,L_Tibia,-0.2249,-8.7521,-4.1392,-0.2441,-0.3052,0.4883,-115.296,1.3348,-74.6521,-0.6755,-0.5072,-0.3323,0.4195
1777530067.6880972,L_Foot,-1.024,-0.1196,10.001,-0.7324,-0.2441,0.2441,-0.6976,5.8777,113.9008,0.0397,0.0331,0.8369,0.5449
1777530067.6880972,R_Femur,0.0,0.0,0.0,0.0,0.0,0.0,0.0,0.0,0.0,0.0,0.0,0.0,1.0
1777530067.6880972,R_Tibia,-0.0909,-9.4746,2.4931,0.3662,-0.2441,0.3052,-75.2728,0.5603,-112.7472,-0.3414,-0.5063,-0.661,0.436
1777530067.6880972,R_Foot,0.8565,1.225,9.8861,0.4272,0.061,-0.1221,7.0752,-4.9274,4.8889,0.0598,-0.0455,0.0399,0.9964
1777530067.6880972,Trunk,-7.1873,-0.6699,-6.46,0.9766,-0.1831,-0.6714,-174.342,47.8455,65.7422,-0.7559,0.5123,-0.3157,0.2577
1777530067.6880972,L_Femur,0.5886,9.6899,-0.6173,0.3052,-0.4272,-0.1221,93.6255,-3.4662,35.4254,0.6879,-0.2414,0.1871,0.6584
1777530067.6880972,L_Tibia,-0.2201,-8.7568,-4.1487,-0.3052,-0.3052,0.4883,-115.296,1.3348,-74.6576,-0.6755,-0.5073,-0.3323,0.4195
1777530067.6880972,L_Foot,-1.024,-0.1196,10.001,-0.7324,-0.2441,0.2441,-0.6976,5.8777,113.9008,0.0397,0.0331,0.8369,0.5449
1777530067.6880972,R_Femur,0.0,0.0,0.0,0.0,0.0,0.0,0.0,0.0,0.0,0.0,0.0,0.0,1.0
1777530067.6880972,R_Tibia,-0.0909,-9.4746,2.4931,0.3662,-0.2441,0.3052,-75.2728,0.5603,-112.7472,-0.3414,-0.5063,-0.661,0.436
1777530067.6880972,R_Foot,0.8565,1.225,9.8861,0.4272,0.061,-0.1221,7.0752,-4.9274,4.8889,0.0598,-0.0455,0.0399,0.9964
1777530067.689099,Trunk,-7.1873,-0.6699,-6.46,0.9766,-0.1831,-0.6714,-174.342,47.8455,65.7422,-0.7559,0.5123,-0.3157,0.2577
1777530067.689099,L_Femur,0.5886,9.6899,-0.6173,0.3052,-0.4272,-0.1221,93.6255,-3.4662,35.4254,0.6879,-0.2414,0.1871,0.6584
1777530067.689099,L_Tibia,-0.2201,-8.7568,-4.1487,-0.3052,-0.3052,0.4883,-115.296,1.3348,-74.6576,-0.6755,-0.5073,-0.3323,0.4195
1777530067.689099,L_Foot,-1.0288,-0.1196,9.9962,-0.7324,-0.2441,0.3052,-0.6976,5.8777,113.9008,0.0397,0.0331,0.8369,0.5449
1777530067.689099,R_Femur,0.0,0.0,0.0,0.0,0.0,0.0,0.0,0.0,0.0,0.0,0.0,0.0,1.0
1777530067.689099,R_Tibia,-0.0909,-9.4746,2.4931,0.3662,-0.2441,0.3052,-75.2728,0.5603,-112.7472,-0.3414,-0.5063,-0.661,0.436
1777530067.689099,R_Foot,0.8565,1.225,9.8861,0.4272,0.061,-0.1221,7.0752,-4.9274,4.8889,0.0598,-0.0455,0.0399,0.9964
1777530067.689099,Trunk,-7.1873,-0.6699,-6.46,0.9766,-0.1831,-0.6714,-174.342,47.8455,65.7422,-0.7559,0.5123,-0.3157,0.2577
1777530067.689099,L_Femur,0.5886,9.6899,-0.6173,0.3052,-0.4272,-0.1221,93.6255,-3.4662,35.4254,0.6879,-0.2414,0.1871,0.6584
1777530067.689099,L_Tibia,-0.2201,-8.7568,-4.1487,-0.3052,-0.3052,0.4883,-115.296,1.3348,-74.6576,-0.6755,-0.5073,-0.3323,0.4195
1777530067.689099,L_Foot,-1.0288,-0.1196,9.9962,-0.7324,-0.2441,0.3052,-0.6976,5.8777,113.9008,0.0397,0.0331,0.8369,0.5449
1777530067.689099,R_Femur,0.0,0.0,0.0,0.0,0.0,0.0,0.0,0.0,0.0,0.0,0.0,0.0,1.0
1777530067.689099,R_Tibia,-0.0957,-9.4794,2.4835,0.3052,-0.2441,0.3662,-75.2838,0.5603,-112.7472,-0.3414,-0.5064,-0.661,0.436
1777530067.689099,R_Foot,0.8565,1.225,9.8861,0.4272,0.061,-0.1221,7.0752,-4.9274,4.8889,0.0598,-0.0455,0.0399,0.9964
1777530067.689099,Trunk,-7.1873,-0.6699,-6.46,0.9766,-0.1831,-0.6714,-174.342,47.8455,65.7422,-0.7559,0.5123,-0.3157,0.2577
1777530067.689099,L_Femur,0.5886,9.6899,-0.6173,0.3052,-0.4272,-0.1221,93.6255,-3.4662,35.4254,0.6879,-0.2414,0.1871,0.6584
1777530067.689099,L_Tibia,-0.2201,-8.7568,-4.1487,-0.3052,-0.3052,0.4883,-115.296,1.3348,-74.6576,-0.6755,-0.5073,-0.3323,0.4195
1777530067.689099,L_Foot,-1.0288,-0.1196,9.9962,-0.7324,-0.2441,0.3052,-0.6976,5.8777,113.9008,0.0397,0.0331,0.8369,0.5449
1777530067.689099,R_Femur,0.0,0.0,0.0,0.0,0.0,0.0,0.0,0.0,0.0,0.0,0.0,0.0,1.0
1777530067.689099,R_Tibia,-0.0957,-9.4794,2.4835,0.3052,-0.2441,0.3662,-75.2838,0.5603,-112.7472,-0.3414,-0.5064,-0.661,0.436
1777530067.689099,R_Foot,0.8613,1.2298,9.8909,0.4272,0.0,-0.1221,7.0752,-4.9274,4.8834,0.0598,-0.0455,0.0398,0.9964
1777530067.689099,Trunk,-7.1586,-0.7082,-6.4743,1.0376,-0.4883,-0.7935,-174.342,47.8455,65.7477,-0.7559,0.5124,-0.3157,0.2577
1777530067.689099,L_Femur,0.5886,9.6899,-0.6173,0.3052,-0.4272,-0.1221,93.6255,-3.4662,35.4254,0.6879,-0.2414,0.1871,0.6584
1777530067.689099,L_Tibia,-0.2201,-8.7568,-4.1487,-0.3052,-0.3052,0.4883,-115.296,1.3348,-74.6576,-0.6755,-0.5073,-0.3323,0.4195
1777530067.689099,L_Foot,-1.0288,-0.1196,9.9962,-0.7324,-0.2441,0.3052,-0.6976,5.8777,113.9008,0.0397,0.0331,0.8369,0.5449
1777530067.689099,R_Femur,0.0,0.0,0.0,0.0,0.0,0.0,0.0,0.0,0.0,0.0,0.0,0.0,1.0
1777530067.689099,R_Tibia,-0.0957,-9.4794,2.4835,0.3052,-0.2441,0.3662,-75.2838,0.5603,-112.7472,-0.3414,-0.5064,-0.661,0.436
1777530067.689099,R_Foot,0.8613,1.2298,9.8909,0.4272,0.0,-0.1221,7.0752,-4.9274,4.8834,0.0598,-0.0455,0.0398,0.9964
1777530067.689099,Trunk,-7.1586,-0.7082,-6.4743,1.0376,-0.4883,-0.7935,-174.342,47.8455,65.7477,-0.7559,0.5124,-0.3157,0.2577
1777530067.689099,L_Femur,0.5886,9.6947,-0.6221,0.2441,-0.3662,-0.061,93.6255,-3.4662,35.4254,0.6879,-0.2414,0.1871,0.6584
1777530067.689099,L_Tibia,-0.2201,-8.7568,-4.1487,-0.3052,-0.3052,0.4883,-115.296,1.3348,-74.6576,-0.6755,-0.5073,-0.3323,0.4195
1777530067.689099,L_Foot,-1.0288,-0.1196,9.9962,-0.7324,-0.2441,0.3052,-0.6976,5.8777,113.9008,0.0397,0.0331,0.8369,0.5449
1777530067.689099,R_Femur,0.0,0.0,0.0,0.0,0.0,0.0,0.0,0.0,0.0,0.0,0.0,0.0,1.0
1777530067.689099,R_Tibia,-0.0957,-9.4794,2.4835,0.3052,-0.2441,0.3662,-75.2838,0.5603,-112.7472,-0.3414,-0.5064,-0.661,0.436
1777530067.689099,R_Foot,0.8613,1.2298,9.8909,0.4272,0.0,-0.1221,7.0752,-4.9274,4.8834,0.0598,-0.0455,0.0398,0.9964
1777530067.6900976,Trunk,-7.1586,-0.7082,-6.4743,1.0376,-0.4883,-0.7935,-174.342,47.8455,65.7477,-0.7559,0.5124,-0.3157,0.2577
1777530067.6900976,L_Femur,0.5886,9.6947,-0.6221,0.2441,-0.3662,-0.061,93.6255,-3.4662,35.4254,0.6879,-0.2414,0.1871,0.6584
1777530067.6900976,L_Tibia,-0.2249,-8.7568,-4.1392,-0.3052,-0.2441,0.4272,-115.296,1.3348,-74.6576,-0.6755,-0.5073,-0.3323,0.4195
1777530067.6900976,L_Foot,-1.0288,-0.1196,9.9962,-0.7324,-0.2441,0.3052,-0.6976,5.8777,113.9008,0.0397,0.0331,0.8369,0.5449
1777530067.6900976,R_Femur,0.0,0.0,0.0,0.0,0.0,0.0,0.0,0.0,0.0,0.0,0.0,0.0,1.0
1777530067.6900976,R_Tibia,-0.0957,-9.4794,2.4835,0.3052,-0.2441,0.3662,-75.2838,0.5603,-112.7472,-0.3414,-0.5064,-0.661,0.436
1777530067.6900976,R_Foot,0.8613,1.2298,9.8909,0.4272,0.0,-0.1221,7.0752,-4.9274,4.8834,0.0598,-0.0455,0.0398,0.9964
1777530067.6900976,Trunk,-7.1586,-0.7082,-6.4743,1.0376,-0.4883,-0.7935,-174.342,47.8455,65.7477,-0.7559,0.5124,-0.3157,0.2577
1777530067.6900976,L_Femur,0.5886,9.6947,-0.6221,0.2441,-0.3662,-0.061,93.6255,-3.4662,35.4254,0.6879,-0.2414,0.1871,0.6584
1777530067.6900976,L_Tibia,-0.2249,-8.7568,-4.1392,-0.3052,-0.2441,0.4272,-115.296,1.3348,-74.6576,-0.6755,-0.5073,-0.3323,0.4195
1777530067.6900976,L_Foot,-1.024,-0.1101,10.001,-0.6714,-0.2441,0.3662,-0.6976,5.8777,113.9008,0.0397,0.0331,0.8369,0.5449
1777530067.6900976,R_Femur,0.0,0.0,0.0,0.0,0.0,0.0,0.0,0.0,0.0,0.0,0.0,0.0,1.0
1777530067.6900976,R_Tibia,-0.0957,-9.4794,2.4835,0.3052,-0.2441,0.3662,-75.2838,0.5603,-112.7472,-0.3414,-0.5064,-0.661,0.436
1777530067.6900976,R_Foot,0.8613,1.2298,9.8909,0.4272,0.0,-0.1221,7.0752,-4.9274,4.8834,0.0598,-0.0455,0.0398,0.9964
1777530067.6900976,Trunk,-7.1347,-0.7273,-6.4695,0.9766,0.061,-0.5493,-174.3365,47.8455,65.7477,-0.7559,0.5124,-0.3156,0.2578
1777530067.6900976,L_Femur,0.5886,9.6947,-0.6221,0.2441,-0.3662,-0.061,93.6255,-3.4662,35.4254,0.6879,-0.2414,0.1871,0.6584
1777530067.6900976,L_Tibia,-0.2249,-8.7568,-4.1392,-0.3052,-0.2441,0.4272,-115.296,1.3348,-74.6576,-0.6755,-0.5073,-0.3323,0.4195
1777530067.6900976,L_Foot,-1.024,-0.1101,10.001,-0.6714,-0.2441,0.3662,-0.6976,5.8777,113.9008,0.0397,0.0331,0.8369,0.5449
1777530067.6900976,R_Femur,0.0,0.0,0.0,0.0,0.0,0.0,0.0,0.0,0.0,0.0,0.0,0.0,1.0
1777530067.6900976,R_Tibia,-0.0957,-9.4794,2.4835,0.3052,-0.2441,0.3662,-75.2838,0.5603,-112.7472,-0.3414,-0.5064,-0.661,0.436
1777530067.6900976,R_Foot,0.8613,1.2298,9.8909,0.4272,0.0,-0.1221,7.0752,-4.9274,4.8834,0.0598,-0.0455,0.0398,0.9964
1777530067.6900976,Trunk,-7.1347,-0.7273,-6.4695,0.9766,0.061,-0.5493,-174.3365,47.8455,65.7477,-0.7559,0.5124,-0.3156,0.2578
1777530067.6900976,L_Femur,0.5838,9.6804,-0.6173,0.3052,-0.4272,-0.1221,93.6255,-3.4662,35.4254,0.6879,-0.2414,0.1871,0.6584
1777530067.6900976,L_Tibia,-0.2249,-8.7568,-4.1392,-0.3052,-0.2441,0.4272,-115.296,1.3348,-74.6576,-0.6755,-0.5073,-0.3323,0.4195
1777530067.6900976,L_Foot,-1.024,-0.1101,10.001,-0.6714,-0.2441,0.3662,-0.6976,5.8777,113.9008,0.0397,0.0331,0.8369,0.5449
1777530067.6900976,R_Femur,0.0,0.0,0.0,0.0,0.0,0.0,0.0,0.0,0.0,0.0,0.0,0.0,1.0
1777530067.6900976,R_Tibia,-0.0957,-9.4794,2.4835,0.3052,-0.2441,0.3662,-75.2838,0.5603,-112.7472,-0.3414,-0.5064,-0.661,0.436
1777530067.6900976,R_Foot,0.8613,1.2298,9.8909,0.4272,0.0,-0.1221,7.0752,-4.9274,4.8834,0.0598,-0.0455,0.0398,0.9964
1777530067.6900976,Trunk,-7.1347,-0.7273,-6.4695,0.9766,0.061,-0.5493,-174.3365,47.8455,65.7477,-0.7559,0.5124,-0.3156,0.2578
1777530067.6900976,L_Femur,0.5838,9.6804,-0.6173,0.3052,-0.4272,-0.1221,93.6255,-3.4662,35.4254,0.6879,-0.2414,0.1871,0.6584
1777530067.6900976,L_Tibia,-0.2201,-8.7521,-4.1439,-0.3052,-0.3052,0.4883,-115.296,1.3348,-74.6631,-0.6754,-0.5073,-0.3323,0.4195
1777530067.6900976,L_Foot,-1.024,-0.1101,10.001,-0.6714,-0.2441,0.3662,-0.6976,5.8777,113.9008,0.0397,0.0331,0.8369,0.5449
1777530067.6900976,R_Femur,0.0,0.0,0.0,0.0,0.0,0.0,0.0,0.0,0.0,0.0,0.0,0.0,1.0
1777530067.6900976,R_Tibia,-0.0957,-9.4794,2.4835,0.3052,-0.2441,0.3662,-75.2838,0.5603,-112.7472,-0.3414,-0.5064,-0.661,0.436
1777530067.6900976,R_Foot,0.8613,1.2298,9.8909,0.4272,0.0,-0.1221,7.0752,-4.9274,4.8834,0.0598,-0.0455,0.0398,0.9964
1777530067.6910982,Trunk,-7.1347,-0.7273,-6.4695,0.9766,0.061,-0.5493,-174.3365,47.8455,65.7477,-0.7559,0.5124,-0.3156,0.2578
1777530067.6910982,L_Femur,0.5838,9.6804,-0.6173,0.3052,-0.4272,-0.1221,93.6255,-3.4662,35.4254,0.6879,-0.2414,0.1871,0.6584
1777530067.6910982,L_Tibia,-0.2201,-8.7521,-4.1439,-0.3052,-0.3052,0.4883,-115.296,1.3348,-74.6631,-0.6754,-0.5073,-0.3323,0.4195
1777530067.6910982,L_Foot,-1.0288,-0.1148,10.0058,-0.6714,-0.3052,0.3662,-0.6976,5.8777,113.9008,0.0397,0.0331,0.8369,0.5449
1777530067.6910982,R_Femur,0.0,0.0,0.0,0.0,0.0,0.0,0.0,0.0,0.0,0.0,0.0,0.0,1.0
1777530067.6910982,R_Tibia,-0.0957,-9.4794,2.4835,0.3052,-0.2441,0.3662,-75.2838,0.5603,-112.7472,-0.3414,-0.5064,-0.661,0.436
1777530067.6910982,R_Foot,0.8613,1.2298,9.8909,0.4272,0.0,-0.1221,7.0752,-4.9274,4.8834,0.0598,-0.0455,0.0398,0.9964
1777530067.6910982,Trunk,-7.1347,-0.7273,-6.4695,0.9766,0.061,-0.5493,-174.3365,47.8455,65.7477,-0.7559,0.5124,-0.3156,0.2578
1777530067.6910982,L_Femur,0.5838,9.6804,-0.6173,0.3052,-0.4272,-0.1221,93.6255,-3.4662,35.4254,0.6879,-0.2414,0.1871,0.6584
1777530067.6910982,L_Tibia,-0.2201,-8.7521,-4.1439,-0.3052,-0.3052,0.4883,-115.296,1.3348,-74.6631,-0.6754,-0.5073,-0.3323,0.4195
1777530067.6910982,L_Foot,-1.0288,-0.1148,10.0058,-0.6714,-0.3052,0.3662,-0.6976,5.8777,113.9008,0.0397,0.0331,0.8369,0.5449
1777530067.6910982,R_Femur,0.0,0.0,0.0,0.0,0.0,0.0,0.0,0.0,0.0,0.0,0.0,0.0,1.0
1777530067.6910982,R_Tibia,-0.0957,-9.4746,2.4739,0.3052,-0.2441,0.3662,-75.2838,0.5603,-112.7472,-0.3414,-0.5064,-0.661,0.436
1777530067.6910982,R_Foot,0.8613,1.2298,9.8909,0.4272,0.0,-0.1221,7.0752,-4.9274,4.8834,0.0598,-0.0455,0.0398,0.9964
1777530067.6910982,Trunk,-7.1347,-0.7273,-6.4695,0.9766,0.061,-0.5493,-174.3365,47.8455,65.7477,-0.7559,0.5124,-0.3156,0.2578
1777530067.6910982,L_Femur,0.5838,9.6804,-0.6173,0.3052,-0.4272,-0.1221,93.6255,-3.4662,35.4254,0.6879,-0.2414,0.1871,0.6584
1777530067.6910982,L_Tibia,-0.2201,-8.7521,-4.1439,-0.3052,-0.3052,0.4883,-115.296,1.3348,-74.6631,-0.6754,-0.5073,-0.3323,0.4195
1777530067.6910982,L_Foot,-1.0288,-0.1148,10.0058,-0.6714,-0.3052,0.3662,-0.6976,5.8777,113.9008,0.0397,0.0331,0.8369,0.5449
1777530067.6910982,R_Femur,0.0,0.0,0.0,0.0,0.0,0.0,0.0,0.0,0.0,0.0,0.0,0.0,1.0
1777530067.6910982,R_Tibia,-0.0957,-9.4746,2.4739,0.3052,-0.2441,0.3662,-75.2838,0.5603,-112.7472,-0.3414,-0.5064,-0.661,0.436
1777530067.6910982,R_Foot,0.8613,1.225,9.8861,0.4883,0.0,-0.1221,7.0752,-4.9274,4.8834,0.0598,-0.0455,0.0398,0.9964
1777530067.6910982,Trunk,-7.1347,-0.713,-6.4935,0.8545,0.2441,-0.4883,-174.3365,47.84,65.7532,-0.7559,0.5124,-0.3156,0.2578
1777530067.6910982,L_Femur,0.5838,9.6804,-0.6173,0.3052,-0.4272,-0.1221,93.6255,-3.4662,35.4254,0.6879,-0.2414,0.1871,0.6584
1777530067.6910982,L_Tibia,-0.2201,-8.7521,-4.1439,-0.3052,-0.3052,0.4883,-115.296,1.3348,-74.6631,-0.6754,-0.5073,-0.3323,0.4195
1777530067.6910982,L_Foot,-1.0288,-0.1148,10.0058,-0.6714,-0.3052,0.3662,-0.6976,5.8777,113.9008,0.0397,0.0331,0.8369,0.5449
1777530067.6910982,R_Femur,0.0,0.0,0.0,0.0,0.0,0.0,0.0,0.0,0.0,0.0,0.0,0.0,1.0
1777530067.6910982,R_Tibia,-0.0957,-9.4746,2.4739,0.3052,-0.2441,0.3662,-75.2838,0.5603,-112.7472,-0.3414,-0.5064,-0.661,0.436
1777530067.6910982,R_Foot,0.8613,1.225,9.8861,0.4883,0.0,-0.1221,7.0752,-4.9274,4.8834,0.0598,-0.0455,0.0398,0.9964
1777530067.6910982,Trunk,-7.1347,-0.713,-6.4935,0.8545,0.2441,-0.4883,-174.3365,47.84,65.7532,-0.7559,0.5124,-0.3156,0.2578
1777530067.6910982,L_Femur,0.5934,9.6756,-0.6221,0.1831,-0.4272,-0.1221,93.6255,-3.4662,35.4199,0.688,-0.2414,0.1871,0.6584
1777530067.6910982,L_Tibia,-0.2201,-8.7521,-4.1439,-0.3052,-0.3052,0.4883,-115.296,1.3348,-74.6631,-0.6754,-0.5073,-0.3323,0.4195
1777530067.6910982,L_Foot,-1.0288,-0.1148,10.0058,-0.6714,-0.3052,0.3662,-0.6976,5.8777,113.9008,0.0397,0.0331,0.8369,0.5449
1777530067.6910982,R_Femur,0.0,0.0,0.0,0.0,0.0,0.0,0.0,0.0,0.0,0.0,0.0,0.0,1.0
1777530067.6910982,R_Tibia,-0.0957,-9.4746,2.4739,0.3052,-0.2441,0.3662,-75.2838,0.5603,-112.7472,-0.3414,-0.5064,-0.661,0.436
1777530067.6910982,R_Foot,0.8613,1.225,9.8861,0.4883,0.0,-0.1221,7.0752,-4.9274,4.8834,0.0598,-0.0455,0.0398,0.9964
1777530067.6910982,Trunk,-7.1347,-0.713,-6.4935,0.8545,0.2441,-0.4883,-174.3365,47.84,65.7532,-0.7559,0.5124,-0.3156,0.2578
1777530067.6910982,L_Femur,0.5934,9.6756,-0.6221,0.1831,-0.4272,-0.1221,93.6255,-3.4662,35.4199,0.688,-0.2414,0.1871,0.6584
1777530067.6910982,L_Tibia,-0.2201,-8.7473,-4.1487,-0.1831,-0.3052,0.4883,-115.296,1.3348,-74.6631,-0.6754,-0.5073,-0.3323,0.4195
1777530067.6910982,L_Foot,-1.0288,-0.1148,10.0058,-0.6714,-0.3052,0.3662,-0.6976,5.8777,113.9008,0.0397,0.0331,0.8369,0.5449
1777530067.6910982,R_Femur,0.0,0.0,0.0,0.0,0.0,0.0,0.0,0.0,0.0,0.0,0.0,0.0,1.0
1777530067.6910982,R_Tibia,-0.0957,-9.4746,2.4739,0.3052,-0.2441,0.3662,-75.2838,0.5603,-112.7472,-0.3414,-0.5064,-0.661,0.436
1777530067.6910982,R_Foot,0.8613,1.225,9.8861,0.4883,0.0,-0.1221,7.0752,-4.9274,4.8834,0.0598,-0.0455,0.0398,0.9964
1777530067.6920984,Trunk,-7.1347,-0.713,-6.4935,0.8545,0.2441,-0.4883,-174.3365,47.84,65.7532,-0.7559,0.5124,-0.3156,0.2578
1777530067.6920984,L_Femur,0.5934,9.6756,-0.6221,0.1831,-0.4272,-0.1221,93.6255,-3.4662,35.4199,0.688,-0.2414,0.1871,0.6584
1777530067.6920984,L_Tibia,-0.2201,-8.7473,-4.1487,-0.1831,-0.3052,0.4883,-115.296,1.3348,-74.6631,-0.6754,-0.5073,-0.3323,0.4195
1777530067.6920984,L_Foot,-1.024,-0.1148,10.001,-0.6714,-0.3052,0.3052,-0.6976,5.8777,113.9008,0.0397,0.0331,0.8369,0.5449
1777530067.6920984,R_Femur,0.0,0.0,0.0,0.0,0.0,0.0,0.0,0.0,0.0,0.0,0.0,0.0,1.0
1777530067.6920984,R_Tibia,-0.0957,-9.4746,2.4739,0.3052,-0.2441,0.3662,-75.2838,0.5603,-112.7472,-0.3414,-0.5064,-0.661,0.436
1777530067.6920984,R_Foot,0.8613,1.225,9.8861,0.4883,0.0,-0.1221,7.0752,-4.9274,4.8834,0.0598,-0.0455,0.0398,0.9964
1777530067.6920984,Trunk,-7.1395,-0.6747,-6.4839,0.7935,0.3662,-0.4272,-174.3365,47.84,65.7587,-0.7559,0.5125,-0.3156,0.2578
1777530067.6920984,L_Femur,0.5934,9.6756,-0.6221,0.1831,-0.4272,-0.1221,93.6255,-3.4662,35.4199,0.688,-0.2414,0.1871,0.6584
1777530067.6920984,L_Tibia,-0.2201,-8.7473,-4.1487,-0.1831,-0.3052,0.4883,-115.296,1.3348,-74.6631,-0.6754,-0.5073,-0.3323,0.4195
1777530067.6920984,L_Foot,-1.024,-0.1148,10.001,-0.6714,-0.3052,0.3052,-0.6976,5.8777,113.9008,0.0397,0.0331,0.8369,0.5449
1777530067.6920984,R_Femur,0.0,0.0,0.0,0.0,0.0,0.0,0.0,0.0,0.0,0.0,0.0,0.0,1.0
1777530067.6920984,R_Tibia,-0.0957,-9.4746,2.4739,0.3052,-0.2441,0.3662,-75.2838,0.5603,-112.7472,-0.3414,-0.5064,-0.661,0.436
1777530067.6920984,R_Foot,0.8613,1.225,9.8861,0.4883,0.0,-0.1221,7.0752,-4.9274,4.8834,0.0598,-0.0455,0.0398,0.9964
1777530067.6920984,Trunk,-7.1395,-0.6747,-6.4839,0.7935,0.3662,-0.4272,-174.3365,47.84,65.7587,-0.7559,0.5125,-0.3156,0.2578
1777530067.6920984,L_Femur,0.5934,9.6899,-0.6125,0.3052,-0.4272,-0.1831,93.6255,-3.4662,35.4199,0.688,-0.2414,0.1871,0.6584
1777530067.6920984,L_Tibia,-0.2201,-8.7473,-4.1487,-0.1831,-0.3052,0.4883,-115.296,1.3348,-74.6631,-0.6754,-0.5073,-0.3323,0.4195
1777530067.6920984,L_Foot,-1.024,-0.1148,10.001,-0.6714,-0.3052,0.3052,-0.6976,5.8777,113.9008,0.0397,0.0331,0.8369,0.5449
1777530067.6920984,R_Femur,0.0,0.0,0.0,0.0,0.0,0.0,0.0,0.0,0.0,0.0,0.0,0.0,1.0
1777530067.6920984,R_Tibia,-0.0957,-9.4746,2.4739,0.3052,-0.2441,0.3662,-75.2838,0.5603,-112.7472,-0.3414,-0.5064,-0.661,0.436
1777530067.6920984,R_Foot,0.8613,1.225,9.8861,0.4883,0.0,-0.1221,7.0752,-4.9274,4.8834,0.0598,-0.0455,0.0398,0.9964
1777530067.6920984,Trunk,-7.1395,-0.6747,-6.4839,0.7935,0.3662,-0.4272,-174.3365,47.84,65.7587,-0.7559,0.5125,-0.3156,0.2578
1777530067.6920984,L_Femur,0.5934,9.6899,-0.6125,0.3052,-0.4272,-0.1831,93.6255,-3.4662,35.4199,0.688,-0.2414,0.1871,0.6584
1777530067.6920984,L_Tibia,-0.2249,-8.7568,-4.1439,-0.1831,-0.3052,0.4883,-115.296,1.3348,-74.6686,-0.6754,-0.5073,-0.3323,0.4195
1777530067.6920984,L_Foot,-1.024,-0.1148,10.001,-0.6714,-0.3052,0.3052,-0.6976,5.8777,113.9008,0.0397,0.0331,0.8369,0.5449
1777530067.6920984,R_Femur,0.0,0.0,0.0,0.0,0.0,0.0,0.0,0.0,0.0,0.0,0.0,0.0,1.0
1777530067.6920984,R_Tibia,-0.0957,-9.4746,2.4739,0.3052,-0.2441,0.3662,-75.2838,0.5603,-112.7472,-0.3414,-0.5064,-0.661,0.436
1777530067.6920984,R_Foot,0.8613,1.225,9.8861,0.4883,0.0,-0.1221,7.0752,-4.9274,4.8834,0.0598,-0.0455,0.0398,0.9964
1777530073.7260141,Trunk,-7.1395,-0.6747,-6.4839,0.7935,0.3662,-0.4272,-174.3365,47.84,65.7587,-0.7559,0.5125,-0.3156,0.2578
1777530073.7260141,L_Femur,0.5934,9.6899,-0.6125,0.3052,-0.4272,-0.1831,93.6255,-3.4662,35.4199,0.688,-0.2414,0.1871,0.6584
1777530073.7260141,L_Tibia,-0.2297,-8.7521,-4.1439,-0.2441,-0.3052,0.4272,-115.307,1.3348,-75.7782,-0.6705,-0.5139,-0.3363,0.4162
1777530073.7260141,L_Foot,-1.024,-0.1148,10.001,-0.6714,-0.3052,0.3052,-0.6976,5.8777,113.9008,0.0397,0.0331,0.8369,0.5449
1777530073.7260141,R_Femur,0.0,0.0,0.0,0.0,0.0,0.0,0.0,0.0,0.0,0.0,0.0,0.0,1.0
1777530073.7260141,R_Tibia,-0.0957,-9.4746,2.4739,0.3052,-0.2441,0.3662,-75.2838,0.5603,-112.7472,-0.3414,-0.5064,-0.661,0.436
1777530073.7260141,R_Foot,0.8613,1.225,9.8861,0.4883,0.0,-0.1221,7.0752,-4.9274,4.8834,0.0598,-0.0455,0.0398,0.9964
1777530073.727015,Trunk,-7.1395,-0.6747,-6.4839,0.7935,0.3662,-0.4272,-174.3365,47.84,65.7587,-0.7559,0.5125,-0.3156,0.2578
1777530073.727015,L_Femur,0.5934,9.6899,-0.6125,0.3052,-0.4272,-0.1831,93.6255,-3.4662,35.4199,0.688,-0.2414,0.1871,0.6584
1777530073.727015,L_Tibia,-0.2297,-8.7521,-4.1439,-0.2441,-0.3052,0.4272,-115.307,1.3348,-75.7782,-0.6705,-0.5139,-0.3363,0.4162
1777530073.727015,L_Foot,-1.0288,-0.1196,10.001,-0.7324,-0.2441,0.3052,-0.6866,5.8722,113.8239,0.0396,0.033,0.8366,0.5455
1777530073.727015,R_Femur,0.0,0.0,0.0,0.0,0.0,0.0,0.0,0.0,0.0,0.0,0.0,0.0,1.0
1777530073.727015,R_Tibia,-0.0957,-9.4746,2.4739,0.3052,-0.2441,0.3662,-75.2838,0.5603,-112.7472,-0.3414,-0.5064,-0.661,0.436
1777530073.727015,R_Foot,0.8613,1.225,9.8861,0.4883,0.0,-0.1221,7.0752,-4.9274,4.8834,0.0598,-0.0455,0.0398,0.9964
1777530073.727015,Trunk,-7.1395,-0.6747,-6.4839,0.7935,0.3662,-0.4272,-174.3365,47.84,65.7587,-0.7559,0.5125,-0.3156,0.2578
1777530073.727015,L_Femur,0.5934,9.6899,-0.6125,0.3052,-0.4272,-0.1831,93.6255,-3.4662,35.4199,0.688,-0.2414,0.1871,0.6584
1777530073.727015,L_Tibia,-0.2297,-8.7521,-4.1439,-0.2441,-0.3052,0.4272,-115.307,1.3348,-75.7782,-0.6705,-0.5139,-0.3363,0.4162
1777530073.727015,L_Foot,-1.0288,-0.1196,10.001,-0.7324,-0.2441,0.3052,-0.6866,5.8722,113.8239,0.0396,0.033,0.8366,0.5455
1777530073.727015,R_Femur,0.0,0.0,0.0,0.0,0.0,0.0,0.0,0.0,0.0,0.0,0.0,0.0,1.0
1777530073.727015,R_Tibia,-0.1053,-9.4794,2.4931,0.3052,-0.2441,0.4272,-75.2728,0.5603,-112.7472,-0.3414,-0.5063,-0.661,0.436
1777530073.727015,R_Foot,0.8613,1.225,9.8861,0.4883,0.0,-0.1221,7.0752,-4.9274,4.8834,0.0598,-0.0455,0.0398,0.9964
1777530073.727015,Trunk,-7.1395,-0.6747,-6.4839,0.7935,0.3662,-0.4272,-174.3365,47.84,65.7587,-0.7559,0.5125,-0.3156,0.2578
1777530073.727015,L_Femur,0.5934,9.6899,-0.6125,0.3052,-0.4272,-0.1831,93.6255,-3.4662,35.4199,0.688,-0.2414,0.1871,0.6584
1777530073.727015,L_Tibia,-0.2297,-8.7521,-4.1439,-0.2441,-0.3052,0.4272,-115.307,1.3348,-75.7782,-0.6705,-0.5139,-0.3363,0.4162
1777530073.727015,L_Foot,-1.0288,-0.1196,10.001,-0.7324,-0.2441,0.3052,-0.6866,5.8722,113.8239,0.0396,0.033,0.8366,0.5455
1777530073.727015,R_Femur,0.0,0.0,0.0,0.0,0.0,0.0,0.0,0.0,0.0,0.0,0.0,0.0,1.0
1777530073.727015,R_Tibia,-0.1053,-9.4794,2.4931,0.3052,-0.2441,0.4272,-75.2728,0.5603,-112.7472,-0.3414,-0.5063,-0.661,0.436
1777530073.727015,R_Foot,0.8565,1.2298,9.8909,0.4883,0.061,-0.1221,7.0752,-4.9219,4.7021,0.0598,-0.0453,0.0383,0.9964
1777530073.727015,Trunk,-7.1777,-0.6412,-6.4695,0.9155,0.0,-0.5493,-174.3256,47.84,66.2476,-0.7537,0.5157,-0.3144,0.2592
1777530073.727015,L_Femur,0.5934,9.6899,-0.6125,0.3052,-0.4272,-0.1831,93.6255,-3.4662,35.4199,0.688,-0.2414,0.1871,0.6584
1777530073.727015,L_Tibia,-0.2297,-8.7521,-4.1439,-0.2441,-0.3052,0.4272,-115.307,1.3348,-75.7782,-0.6705,-0.5139,-0.3363,0.4162
1777530073.727015,L_Foot,-1.0288,-0.1196,10.001,-0.7324,-0.2441,0.3052,-0.6866,5.8722,113.8239,0.0396,0.033,0.8366,0.5455
1777530073.727015,R_Femur,0.0,0.0,0.0,0.0,0.0,0.0,0.0,0.0,0.0,0.0,0.0,0.0,1.0
1777530073.727015,R_Tibia,-0.1053,-9.4794,2.4931,0.3052,-0.2441,0.4272,-75.2728,0.5603,-112.7472,-0.3414,-0.5063,-0.661,0.436
1777530073.727015,R_Foot,0.8565,1.2298,9.8909,0.4883,0.061,-0.1221,7.0752,-4.9219,4.7021,0.0598,-0.0453,0.0383,0.9964
1777530073.727015,Trunk,-7.1777,-0.6412,-6.4695,0.9155,0.0,-0.5493,-174.3256,47.84,66.2476,-0.7537,0.5157,-0.3144,0.2592
1777530073.727015,L_Femur,0.5886,9.6899,-0.6125,0.2441,-0.4272,-0.1831,93.62,-3.4717,35.3375,0.6881,-0.2409,0.1866,0.6585
1777530073.727015,L_Tibia,-0.2297,-8.7521,-4.1439,-0.2441,-0.3052,0.4272,-115.307,1.3348,-75.7782,-0.6705,-0.5139,-0.3363,0.4162
1777530073.727015,L_Foot,-1.0288,-0.1196,10.001,-0.7324,-0.2441,0.3052,-0.6866,5.8722,113.8239,0.0396,0.033,0.8366,0.5455
1777530073.727015,R_Femur,0.0,0.0,0.0,0.0,0.0,0.0,0.0,0.0,0.0,0.0,0.0,0.0,1.0
1777530073.727015,R_Tibia,-0.1053,-9.4794,2.4931,0.3052,-0.2441,0.4272,-75.2728,0.5603,-112.7472,-0.3414,-0.5063,-0.661,0.436
1777530073.727015,R_Foot,0.8565,1.2298,9.8909,0.4883,0.061,-0.1221,7.0752,-4.9219,4.7021,0.0598,-0.0453,0.0383,0.9964
1777530073.727015,Trunk,-7.1777,-0.6412,-6.4695,0.9155,0.0,-0.5493,-174.3256,47.84,66.2476,-0.7537,0.5157,-0.3144,0.2592
1777530073.727015,L_Femur,0.5886,9.6899,-0.6125,0.2441,-0.4272,-0.1831,93.62,-3.4717,35.3375,0.6881,-0.2409,0.1866,0.6585
1777530073.727015,L_Tibia,-0.2297,-8.7568,-4.1392,-0.2441,-0.3052,0.4883,-115.307,1.3348,-75.7837,-0.6705,-0.5139,-0.3363,0.4162
1777530073.727015,L_Foot,-1.0288,-0.1196,10.001,-0.7324,-0.2441,0.3052,-0.6866,5.8722,113.8239,0.0396,0.033,0.8366,0.5455
1777530073.727015,R_Femur,0.0,0.0,0.0,0.0,0.0,0.0,0.0,0.0,0.0,0.0,0.0,0.0,1.0
1777530073.727015,R_Tibia,-0.1053,-9.4794,2.4931,0.3052,-0.2441,0.4272,-75.2728,0.5603,-112.7472,-0.3414,-0.5063,-0.661,0.436
1777530073.727015,R_Foot,0.8565,1.2298,9.8909,0.4883,0.061,-0.1221,7.0752,-4.9219,4.7021,0.0598,-0.0453,0.0383,0.9964
1777530073.727015,Trunk,-7.1777,-0.6412,-6.4695,0.9155,0.0,-0.5493,-174.3256,47.84,66.2476,-0.7537,0.5157,-0.3144,0.2592
1777530073.727015,L_Femur,0.5886,9.6899,-0.6125,0.2441,-0.4272,-0.1831,93.62,-3.4717,35.3375,0.6881,-0.2409,0.1866,0.6585
1777530073.727015,L_Tibia,-0.2297,-8.7568,-4.1392,-0.2441,-0.3052,0.4883,-115.307,1.3348,-75.7837,-0.6705,-0.5139,-0.3363,0.4162
1777530073.727015,L_Foot,-1.024,-0.1148,9.9962,-0.7324,-0.3052,0.3052,-0.6866,5.8722,113.8184,0.0396,0.033,0.8365,0.5455
1777530073.727015,R_Femur,0.0,0.0,0.0,0.0,0.0,0.0,0.0,0.0,0.0,0.0,0.0,0.0,1.0
1777530073.727015,R_Tibia,-0.1053,-9.4794,2.4931,0.3052,-0.2441,0.4272,-75.2728,0.5603,-112.7472,-0.3414,-0.5063,-0.661,0.436
1777530073.727015,R_Foot,0.8565,1.2298,9.8909,0.4883,0.061,-0.1221,7.0752,-4.9219,4.7021,0.0598,-0.0453,0.0383,0.9964
1777530073.727015,Trunk,-7.1729,-0.6412,-6.4791,0.9766,-0.1221,-0.5493,-174.3256,47.8345,66.2476,-0.7537,0.5157,-0.3144,0.2592
1777530073.727015,L_Femur,0.5886,9.6899,-0.6125,0.2441,-0.4272,-0.1831,93.62,-3.4717,35.3375,0.6881,-0.2409,0.1866,0.6585
1777530073.727015,L_Tibia,-0.2297,-8.7568,-4.1392,-0.2441,-0.3052,0.4883,-115.307,1.3348,-75.7837,-0.6705,-0.5139,-0.3363,0.4162
1777530073.727015,L_Foot,-1.024,-0.1148,9.9962,-0.7324,-0.3052,0.3052,-0.6866,5.8722,113.8184,0.0396,0.033,0.8365,0.5455
1777530073.727015,R_Femur,0.0,0.0,0.0,0.0,0.0,0.0,0.0,0.0,0.0,0.0,0.0,0.0,1.0
1777530073.727015,R_Tibia,-0.1053,-9.4794,2.4931,0.3052,-0.2441,0.4272,-75.2728,0.5603,-112.7472,-0.3414,-0.5063,-0.661,0.436
1777530073.727015,R_Foot,0.8565,1.2298,9.8909,0.4883,0.061,-0.1221,7.0752,-4.9219,4.7021,0.0598,-0.0453,0.0383,0.9964
1777530073.7285206,Trunk,-7.1729,-0.6412,-6.4791,0.9766,-0.1221,-0.5493,-174.3256,47.8345,66.2476,-0.7537,0.5157,-0.3144,0.2592
1777530073.7285206,L_Femur,0.5886,9.6899,-0.6125,0.3052,-0.3662,-0.1221,93.62,-3.4717,35.3375,0.6881,-0.2409,0.1866,0.6585
1777530073.7285206,L_Tibia,-0.2297,-8.7568,-4.1392,-0.2441,-0.3052,0.4883,-115.307,1.3348,-75.7837,-0.6705,-0.5139,-0.3363,0.4162
1777530073.7285206,L_Foot,-1.024,-0.1148,9.9962,-0.7324,-0.3052,0.3052,-0.6866,5.8722,113.8184,0.0396,0.033,0.8365,0.5455
1777530073.7285206,R_Femur,0.0,0.0,0.0,0.0,0.0,0.0,0.0,0.0,0.0,0.0,0.0,0.0,1.0
1777530073.7285206,R_Tibia,-0.1053,-9.4794,2.4931,0.3052,-0.2441,0.4272,-75.2728,0.5603,-112.7472,-0.3414,-0.5063,-0.661,0.436
1777530073.7285206,R_Foot,0.8565,1.2298,9.8909,0.4883,0.061,-0.1221,7.0752,-4.9219,4.7021,0.0598,-0.0453,0.0383,0.9964
1777530073.7285206,Trunk,-7.1729,-0.6412,-6.4791,0.9766,-0.1221,-0.5493,-174.3256,47.8345,66.2476,-0.7537,0.5157,-0.3144,0.2592
1777530073.7285206,L_Femur,0.5886,9.6899,-0.6125,0.3052,-0.3662,-0.1221,93.62,-3.4717,35.3375,0.6881,-0.2409,0.1866,0.6585
1777530073.7285206,L_Tibia,-0.2249,-8.7568,-4.1392,-0.2441,-0.2441,0.4883,-115.307,1.3348,-75.7837,-0.6705,-0.5139,-0.3363,0.4162
1777530073.7285206,L_Foot,-1.024,-0.1148,9.9962,-0.7324,-0.3052,0.3052,-0.6866,5.8722,113.8184,0.0396,0.033,0.8365,0.5455
1777530073.7285206,R_Femur,0.0,0.0,0.0,0.0,0.0,0.0,0.0,0.0,0.0,0.0,0.0,0.0,1.0
1777530073.7285206,R_Tibia,-0.1053,-9.4794,2.4931,0.3052,-0.2441,0.4272,-75.2728,0.5603,-112.7472,-0.3414,-0.5063,-0.661,0.436
1777530073.7285206,R_Foot,0.8565,1.2298,9.8909,0.4883,0.061,-0.1221,7.0752,-4.9219,4.7021,0.0598,-0.0453,0.0383,0.9964
1777530073.7285206,Trunk,-7.1729,-0.6412,-6.4791,0.9766,-0.1221,-0.5493,-174.3256,47.8345,66.2476,-0.7537,0.5157,-0.3144,0.2592
1777530073.7285206,L_Femur,0.5886,9.6899,-0.6125,0.3052,-0.3662,-0.1221,93.62,-3.4717,35.3375,0.6881,-0.2409,0.1866,0.6585
1777530073.7285206,L_Tibia,-0.2249,-8.7568,-4.1392,-0.2441,-0.2441,0.4883,-115.307,1.3348,-75.7837,-0.6705,-0.5139,-0.3363,0.4162
1777530073.7285206,L_Foot,-1.0288,-0.1148,9.9962,-0.6714,-0.2441,0.3052,-0.6866,5.8722,113.8184,0.0396,0.033,0.8365,0.5455
1777530073.7285206,R_Femur,0.0,0.0,0.0,0.0,0.0,0.0,0.0,0.0,0.0,0.0,0.0,0.0,1.0
1777530073.7285206,R_Tibia,-0.1053,-9.4794,2.4931,0.3052,-0.2441,0.4272,-75.2728,0.5603,-112.7472,-0.3414,-0.5063,-0.661,0.436
1777530073.7285206,R_Foot,0.8565,1.2298,9.8909,0.4883,0.061,-0.1221,7.0752,-4.9219,4.7021,0.0598,-0.0453,0.0383,0.9964
1777530073.7285206,Trunk,-7.1729,-0.6412,-6.4791,0.9766,-0.1221,-0.5493,-174.3256,47.8345,66.2476,-0.7537,0.5157,-0.3144,0.2592
1777530073.7285206,L_Femur,0.5886,9.6899,-0.6125,0.3052,-0.3662,-0.1221,93.62,-3.4717,35.3375,0.6881,-0.2409,0.1866,0.6585
1777530073.7285206,L_Tibia,-0.2249,-8.7568,-4.1392,-0.2441,-0.2441,0.4883,-115.307,1.3348,-75.7837,-0.6705,-0.5139,-0.3363,0.4162
1777530073.7285206,L_Foot,-1.0288,-0.1148,9.9962,-0.6714,-0.2441,0.3052,-0.6866,5.8722,113.8184,0.0396,0.033,0.8365,0.5455
1777530073.7285206,R_Femur,0.0,0.0,0.0,0.0,0.0,0.0,0.0,0.0,0.0,0.0,0.0,0.0,1.0
1777530073.7285206,R_Tibia,-0.1005,-9.4746,2.4883,0.2441,-0.1831,0.3662,-75.2728,0.5603,-112.7472,-0.3414,-0.5063,-0.661,0.436
1777530073.7285206,R_Foot,0.8565,1.2298,9.8909,0.4883,0.061,-0.1221,7.0752,-4.9219,4.7021,0.0598,-0.0453,0.0383,0.9964
1777530073.7285206,Trunk,-7.1777,-0.646,-6.4647,0.9766,-0.2441,-0.7324,-174.3256,47.8345,66.2476,-0.7537,0.5157,-0.3144,0.2592
1777530073.7285206,L_Femur,0.5886,9.6899,-0.6125,0.3052,-0.3662,-0.1221,93.62,-3.4717,35.3375,0.6881,-0.2409,0.1866,0.6585
1777530073.7285206,L_Tibia,-0.2249,-8.7568,-4.1392,-0.2441,-0.2441,0.4883,-115.307,1.3348,-75.7837,-0.6705,-0.5139,-0.3363,0.4162
1777530073.7285206,L_Foot,-1.0288,-0.1148,9.9962,-0.6714,-0.2441,0.3052,-0.6866,5.8722,113.8184,0.0396,0.033,0.8365,0.5455
1777530073.7285206,R_Femur,0.0,0.0,0.0,0.0,0.0,0.0,0.0,0.0,0.0,0.0,0.0,0.0,1.0
1777530073.7285206,R_Tibia,-0.1005,-9.4746,2.4883,0.2441,-0.1831,0.3662,-75.2728,0.5603,-112.7472,-0.3414,-0.5063,-0.661,0.436
1777530073.7285206,R_Foot,0.8565,1.2298,9.8909,0.4883,0.061,-0.1221,7.0752,-4.9219,4.7021,0.0598,-0.0453,0.0383,0.9964
1777530073.7285206,Trunk,-7.1777,-0.646,-6.4647,0.9766,-0.2441,-0.7324,-174.3256,47.8345,66.2476,-0.7537,0.5157,-0.3144,0.2592
1777530073.7285206,L_Femur,0.5886,9.6852,-0.6125,0.3052,-0.3662,-0.1221,93.62,-3.4717,35.3375,0.6881,-0.2409,0.1866,0.6585
1777530073.7285206,L_Tibia,-0.2249,-8.7568,-4.1392,-0.2441,-0.2441,0.4883,-115.307,1.3348,-75.7837,-0.6705,-0.5139,-0.3363,0.4162
1777530073.7285206,L_Foot,-1.0288,-0.1148,9.9962,-0.6714,-0.2441,0.3052,-0.6866,5.8722,113.8184,0.0396,0.033,0.8365,0.5455
1777530073.7285206,R_Femur,0.0,0.0,0.0,0.0,0.0,0.0,0.0,0.0,0.0,0.0,0.0,0.0,1.0
1777530073.7285206,R_Tibia,-0.1005,-9.4746,2.4883,0.2441,-0.1831,0.3662,-75.2728,0.5603,-112.7472,-0.3414,-0.5063,-0.661,0.436
1777530073.7285206,R_Foot,0.8565,1.2298,9.8909,0.4883,0.061,-0.1221,7.0752,-4.9219,4.7021,0.0598,-0.0453,0.0383,0.9964
1777530073.7295275,Trunk,-7.1777,-0.646,-6.4647,0.9766,-0.2441,-0.7324,-174.3256,47.8345,66.2476,-0.7537,0.5157,-0.3144,0.2592
1777530073.7295275,L_Femur,0.5886,9.6852,-0.6125,0.3052,-0.3662,-0.1221,93.62,-3.4717,35.3375,0.6881,-0.2409,0.1866,0.6585
1777530073.7295275,L_Tibia,-0.2249,-8.7568,-4.1392,-0.2441,-0.2441,0.4883,-115.307,1.3348,-75.7892,-0.6705,-0.5139,-0.3364,0.4161
1777530073.7295275,L_Foot,-1.0288,-0.1148,9.9962,-0.6714,-0.2441,0.3052,-0.6866,5.8722,113.8184,0.0396,0.033,0.8365,0.5455
1777530073.7295275,R_Femur,0.0,0.0,0.0,0.0,0.0,0.0,0.0,0.0,0.0,0.0,0.0,0.0,1.0
1777530073.7295275,R_Tibia,-0.1005,-9.4746,2.4883,0.2441,-0.1831,0.3662,-75.2728,0.5603,-112.7472,-0.3414,-0.5063,-0.661,0.436
1777530073.7295275,R_Foot,0.8565,1.2298,9.8909,0.4883,0.061,-0.1221,7.0752,-4.9219,4.7021,0.0598,-0.0453,0.0383,0.9964
1777530073.7295275,Trunk,-7.1777,-0.646,-6.4647,0.9766,-0.2441,-0.7324,-174.3256,47.8345,66.2476,-0.7537,0.5157,-0.3144,0.2592
1777530073.7295275,L_Femur,0.5886,9.6852,-0.6125,0.3052,-0.3662,-0.1221,93.62,-3.4717,35.3375,0.6881,-0.2409,0.1866,0.6585
1777530073.7295275,L_Tibia,-0.2249,-8.7568,-4.1392,-0.2441,-0.2441,0.4883,-115.307,1.3348,-75.7892,-0.6705,-0.5139,-0.3364,0.4161
1777530073.7295275,L_Foot,-1.0288,-0.1148,9.9962,-0.6714,-0.3052,0.3052,-0.6866,5.8722,113.8184,0.0396,0.033,0.8365,0.5455
1777530073.7295275,R_Femur,0.0,0.0,0.0,0.0,0.0,0.0,0.0,0.0,0.0,0.0,0.0,0.0,1.0
1777530073.7295275,R_Tibia,-0.1005,-9.4746,2.4883,0.2441,-0.1831,0.3662,-75.2728,0.5603,-112.7472,-0.3414,-0.5063,-0.661,0.436
1777530073.7295275,R_Foot,0.8565,1.2298,9.8909,0.4883,0.061,-0.1221,7.0752,-4.9219,4.7021,0.0598,-0.0453,0.0383,0.9964
1777530073.7295275,Trunk,-7.1777,-0.6556,-6.4647,0.9766,-0.061,-0.5493,-174.3256,47.8345,66.2531,-0.7536,0.5158,-0.3144,0.2592
1777530073.7295275,L_Femur,0.5886,9.6852,-0.6125,0.3052,-0.3662,-0.1221,93.62,-3.4717,35.3375,0.6881,-0.2409,0.1866,0.6585
1777530073.7295275,L_Tibia,-0.2249,-8.7568,-4.1392,-0.2441,-0.2441,0.4883,-115.307,1.3348,-75.7892,-0.6705,-0.5139,-0.3364,0.4161
1777530073.7295275,L_Foot,-1.0288,-0.1148,9.9962,-0.6714,-0.3052,0.3052,-0.6866,5.8722,113.8184,0.0396,0.033,0.8365,0.5455
1777530073.7295275,R_Femur,0.0,0.0,0.0,0.0,0.0,0.0,0.0,0.0,0.0,0.0,0.0,0.0,1.0
1777530073.7295275,R_Tibia,-0.1005,-9.4746,2.4883,0.2441,-0.1831,0.3662,-75.2728,0.5603,-112.7472,-0.3414,-0.5063,-0.661,0.436
1777530073.7295275,R_Foot,0.8565,1.2298,9.8909,0.4883,0.061,-0.1221,7.0752,-4.9219,4.7021,0.0598,-0.0453,0.0383,0.9964
1777530073.7295275,Trunk,-7.1777,-0.6556,-6.4647,0.9766,-0.061,-0.5493,-174.3256,47.8345,66.2531,-0.7536,0.5158,-0.3144,0.2592
1777530073.7295275,L_Femur,0.5838,9.6804,-0.6173,0.2441,-0.4272,-0.061,93.62,-3.4717,35.3375,0.6881,-0.2409,0.1866,0.6585
1777530073.7295275,L_Tibia,-0.2249,-8.7568,-4.1392,-0.2441,-0.2441,0.4883,-115.307,1.3348,-75.7892,-0.6705,-0.5139,-0.3364,0.4161
1777530073.7295275,L_Foot,-1.0288,-0.1148,9.9962,-0.6714,-0.3052,0.3052,-0.6866,5.8722,113.8184,0.0396,0.033,0.8365,0.5455
1777530073.7295275,R_Femur,0.0,0.0,0.0,0.0,0.0,0.0,0.0,0.0,0.0,0.0,0.0,0.0,1.0
1777530073.7295275,R_Tibia,-0.1005,-9.4746,2.4883,0.2441,-0.1831,0.3662,-75.2728,0.5603,-112.7472,-0.3414,-0.5063,-0.661,0.436
1777530073.7295275,R_Foot,0.8565,1.2298,9.8909,0.4883,0.061,-0.1221,7.0752,-4.9219,4.7021,0.0598,-0.0453,0.0383,0.9964
1777530073.7295275,Trunk,-7.1777,-0.6556,-6.4647,0.9766,-0.061,-0.5493,-174.3256,47.8345,66.2531,-0.7536,0.5158,-0.3144,0.2592
1777530073.7295275,L_Femur,0.5838,9.6804,-0.6173,0.2441,-0.4272,-0.061,93.62,-3.4717,35.3375,0.6881,-0.2409,0.1866,0.6585
1777530073.7295275,L_Tibia,-0.2249,-8.7568,-4.1392,-0.2441,-0.3052,0.4883,-115.307,1.3348,-75.7947,-0.6704,-0.514,-0.3364,0.4161
1777530073.7295275,L_Foot,-1.0288,-0.1148,9.9962,-0.6714,-0.3052,0.3052,-0.6866,5.8722,113.8184,0.0396,0.033,0.8365,0.5455
1777530073.7295275,R_Femur,0.0,0.0,0.0,0.0,0.0,0.0,0.0,0.0,0.0,0.0,0.0,0.0,1.0
1777530073.7295275,R_Tibia,-0.1005,-9.4746,2.4883,0.2441,-0.1831,0.3662,-75.2728,0.5603,-112.7472,-0.3414,-0.5063,-0.661,0.436
1777530073.7295275,R_Foot,0.8565,1.2298,9.8909,0.4883,0.061,-0.1221,7.0752,-4.9219,4.7021,0.0598,-0.0453,0.0383,0.9964
1777530073.730526,Trunk,-7.1777,-0.6556,-6.4647,0.9766,-0.061,-0.5493,-174.3256,47.8345,66.2531,-0.7536,0.5158,-0.3144,0.2592
1777530073.730526,L_Femur,0.5838,9.6804,-0.6173,0.2441,-0.4272,-0.061,93.62,-3.4717,35.3375,0.6881,-0.2409,0.1866,0.6585
1777530073.730526,L_Tibia,-0.2249,-8.7568,-4.1392,-0.2441,-0.3052,0.4883,-115.307,1.3348,-75.7947,-0.6704,-0.514,-0.3364,0.4161
1777530073.730526,L_Foot,-1.0288,-0.1196,10.001,-0.6714,-0.2441,0.3052,-0.6866,5.8722,113.8184,0.0396,0.033,0.8365,0.5455
1777530073.730526,R_Femur,0.0,0.0,0.0,0.0,0.0,0.0,0.0,0.0,0.0,0.0,0.0,0.0,1.0
1777530073.730526,R_Tibia,-0.1005,-9.4746,2.4883,0.2441,-0.1831,0.3662,-75.2728,0.5603,-112.7472,-0.3414,-0.5063,-0.661,0.436
1777530073.730526,R_Foot,0.8565,1.2298,9.8909,0.4883,0.061,-0.1221,7.0752,-4.9219,4.7021,0.0598,-0.0453,0.0383,0.9964
1777530073.730526,Trunk,-7.1777,-0.6556,-6.4647,0.9766,-0.061,-0.5493,-174.3256,47.8345,66.2531,-0.7536,0.5158,-0.3144,0.2592
1777530073.730526,L_Femur,0.5838,9.6804,-0.6173,0.2441,-0.4272,-0.061,93.62,-3.4717,35.3375,0.6881,-0.2409,0.1866,0.6585
1777530073.730526,L_Tibia,-0.2249,-8.7568,-4.1392,-0.2441,-0.3052,0.4883,-115.307,1.3348,-75.7947,-0.6704,-0.514,-0.3364,0.4161
1777530073.730526,L_Foot,-1.0288,-0.1196,10.001,-0.6714,-0.2441,0.3052,-0.6866,5.8722,113.8184,0.0396,0.033,0.8365,0.5455
1777530073.730526,R_Femur,0.0,0.0,0.0,0.0,0.0,0.0,0.0,0.0,0.0,0.0,0.0,0.0,1.0
1777530073.730526,R_Tibia,-0.0957,-9.4746,2.4931,0.2441,-0.2441,0.3662,-75.2728,0.5603,-112.7472,-0.3414,-0.5063,-0.661,0.436
1777530073.730526,R_Foot,0.8565,1.2298,9.8909,0.4883,0.061,-0.1221,7.0752,-4.9219,4.7021,0.0598,-0.0453,0.0383,0.9964
1777530073.730526,Trunk,-7.1777,-0.6556,-6.4647,0.9766,-0.061,-0.5493,-174.3256,47.8345,66.2531,-0.7536,0.5158,-0.3144,0.2592
1777530073.730526,L_Femur,0.5838,9.6804,-0.6173,0.2441,-0.4272,-0.061,93.62,-3.4717,35.3375,0.6881,-0.2409,0.1866,0.6585
1777530073.730526,L_Tibia,-0.2249,-8.7568,-4.1392,-0.2441,-0.3052,0.4883,-115.307,1.3348,-75.7947,-0.6704,-0.514,-0.3364,0.4161
1777530073.730526,L_Foot,-1.0288,-0.1196,10.001,-0.6714,-0.2441,0.3052,-0.6866,5.8722,113.8184,0.0396,0.033,0.8365,0.5455
1777530073.730526,R_Femur,0.0,0.0,0.0,0.0,0.0,0.0,0.0,0.0,0.0,0.0,0.0,0.0,1.0
1777530073.730526,R_Tibia,-0.0957,-9.4746,2.4931,0.2441,-0.2441,0.3662,-75.2728,0.5603,-112.7472,-0.3414,-0.5063,-0.661,0.436
1777530073.730526,R_Foot,0.8565,1.225,9.8957,0.4272,0.0,-0.1221,7.0752,-4.9219,4.7021,0.0598,-0.0453,0.0383,0.9964
1777530073.730526,Trunk,-7.1777,-0.6508,-6.4695,0.9155,-0.061,-0.6104,-174.3256,47.8345,66.2531,-0.7536,0.5158,-0.3144,0.2592
1777530073.730526,L_Femur,0.5838,9.6804,-0.6173,0.2441,-0.4272,-0.061,93.62,-3.4717,35.3375,0.6881,-0.2409,0.1866,0.6585
1777530073.730526,L_Tibia,-0.2249,-8.7568,-4.1392,-0.2441,-0.3052,0.4883,-115.307,1.3348,-75.7947,-0.6704,-0.514,-0.3364,0.4161
1777530073.730526,L_Foot,-1.0288,-0.1196,10.001,-0.6714,-0.2441,0.3052,-0.6866,5.8722,113.8184,0.0396,0.033,0.8365,0.5455
1777530073.730526,R_Femur,0.0,0.0,0.0,0.0,0.0,0.0,0.0,0.0,0.0,0.0,0.0,0.0,1.0
1777530073.730526,R_Tibia,-0.0957,-9.4746,2.4931,0.2441,-0.2441,0.3662,-75.2728,0.5603,-112.7472,-0.3414,-0.5063,-0.661,0.436
1777530073.730526,R_Foot,0.8565,1.225,9.8957,0.4272,0.0,-0.1221,7.0752,-4.9219,4.7021,0.0598,-0.0453,0.0383,0.9964
1777530073.730526,Trunk,-7.1777,-0.6508,-6.4695,0.9155,-0.061,-0.6104,-174.3256,47.8345,66.2531,-0.7536,0.5158,-0.3144,0.2592
1777530073.730526,L_Femur,0.5838,9.6899,-0.6125,0.2441,-0.3662,-0.1221,93.62,-3.4717,35.3375,0.6881,-0.2409,0.1866,0.6585
1777530073.730526,L_Tibia,-0.2249,-8.7568,-4.1392,-0.2441,-0.3052,0.4883,-115.307,1.3348,-75.7947,-0.6704,-0.514,-0.3364,0.4161
1777530073.730526,L_Foot,-1.0288,-0.1196,10.001,-0.6714,-0.2441,0.3052,-0.6866,5.8722,113.8184,0.0396,0.033,0.8365,0.5455
1777530073.730526,R_Femur,0.0,0.0,0.0,0.0,0.0,0.0,0.0,0.0,0.0,0.0,0.0,0.0,1.0
1777530073.730526,R_Tibia,-0.0957,-9.4746,2.4931,0.2441,-0.2441,0.3662,-75.2728,0.5603,-112.7472,-0.3414,-0.5063,-0.661,0.436
1777530073.730526,R_Foot,0.8565,1.225,9.8957,0.4272,0.0,-0.1221,7.0752,-4.9219,4.7021,0.0598,-0.0453,0.0383,0.9964
1777530073.730526,Trunk,-7.1777,-0.6508,-6.4695,0.9155,-0.061,-0.6104,-174.3256,47.8345,66.2531,-0.7536,0.5158,-0.3144,0.2592
1777530073.730526,L_Femur,0.5838,9.6899,-0.6125,0.2441,-0.3662,-0.1221,93.62,-3.4717,35.3375,0.6881,-0.2409,0.1866,0.6585
1777530073.730526,L_Tibia,-0.2249,-8.7568,-4.1392,-0.2441,-0.3052,0.4272,-115.307,1.3348,-75.7947,-0.6704,-0.514,-0.3364,0.4161
1777530073.730526,L_Foot,-1.0288,-0.1196,10.001,-0.6714,-0.2441,0.3052,-0.6866,5.8722,113.8184,0.0396,0.033,0.8365,0.5455
1777530073.730526,R_Femur,0.0,0.0,0.0,0.0,0.0,0.0,0.0,0.0,0.0,0.0,0.0,0.0,1.0
1777530073.730526,R_Tibia,-0.0957,-9.4746,2.4931,0.2441,-0.2441,0.3662,-75.2728,0.5603,-112.7472,-0.3414,-0.5063,-0.661,0.436
1777530073.730526,R_Foot,0.8565,1.225,9.8957,0.4272,0.0,-0.1221,7.0752,-4.9219,4.7021,0.0598,-0.0453,0.0383,0.9964
1777530073.730526,Trunk,-7.1777,-0.6508,-6.4695,0.9155,-0.061,-0.6104,-174.3256,47.8345,66.2531,-0.7536,0.5158,-0.3144,0.2592
1777530073.730526,L_Femur,0.5838,9.6899,-0.6125,0.2441,-0.3662,-0.1221,93.62,-3.4717,35.3375,0.6881,-0.2409,0.1866,0.6585
1777530073.730526,L_Tibia,-0.2249,-8.7568,-4.1392,-0.2441,-0.3052,0.4272,-115.307,1.3348,-75.7947,-0.6704,-0.514,-0.3364,0.4161
1777530073.730526,L_Foot,-1.0288,-0.1148,10.001,-0.6714,-0.2441,0.3052,-0.6921,5.8722,113.8184,0.0396,0.033,0.8365,0.5455
1777530073.730526,R_Femur,0.0,0.0,0.0,0.0,0.0,0.0,0.0,0.0,0.0,0.0,0.0,0.0,1.0
1777530073.730526,R_Tibia,-0.0957,-9.4746,2.4931,0.2441,-0.2441,0.3662,-75.2728,0.5603,-112.7472,-0.3414,-0.5063,-0.661,0.436
1777530073.730526,R_Foot,0.8565,1.225,9.8957,0.4272,0.0,-0.1221,7.0752,-4.9219,4.7021,0.0598,-0.0453,0.0383,0.9964
1777530073.732034,Trunk,-7.1777,-0.6508,-6.4695,0.9155,-0.061,-0.6104,-174.3256,47.8345,66.2531,-0.7536,0.5158,-0.3144,0.2592
1777530073.732034,L_Femur,0.5838,9.6852,-0.6125,0.2441,-0.3662,-0.1221,93.62,-3.4717,35.3375,0.6881,-0.2409,0.1866,0.6585
1777530073.732034,L_Tibia,-0.2249,-8.7568,-4.1392,-0.2441,-0.3052,0.4272,-115.307,1.3348,-75.7947,-0.6704,-0.514,-0.3364,0.4161
1777530073.732034,L_Foot,-1.0288,-0.1148,10.001,-0.6714,-0.2441,0.3052,-0.6921,5.8722,113.8184,0.0396,0.033,0.8365,0.5455
1777530073.732034,R_Femur,0.0,0.0,0.0,0.0,0.0,0.0,0.0,0.0,0.0,0.0,0.0,0.0,1.0
1777530073.732034,R_Tibia,-0.0957,-9.4746,2.4931,0.2441,-0.2441,0.3662,-75.2728,0.5603,-112.7472,-0.3414,-0.5063,-0.661,0.436
1777530073.732034,R_Foot,0.8565,1.225,9.8957,0.4272,0.0,-0.1221,7.0752,-4.9219,4.7021,0.0598,-0.0453,0.0383,0.9964
1777530073.732034,Trunk,-7.1777,-0.6508,-6.4695,0.9155,-0.061,-0.6104,-174.3256,47.8345,66.2531,-0.7536,0.5158,-0.3144,0.2592
1777530073.732034,L_Femur,0.5838,9.6852,-0.6125,0.2441,-0.3662,-0.1221,93.62,-3.4717,35.3375,0.6881,-0.2409,0.1866,0.6585
1777530073.732034,L_Tibia,-0.2201,-8.7568,-4.1344,-0.2441,-0.3052,0.4272,-115.307,1.3348,-75.7947,-0.6704,-0.514,-0.3364,0.4161
1777530073.732034,L_Foot,-1.0288,-0.1148,10.001,-0.6714,-0.2441,0.3052,-0.6921,5.8722,113.8184,0.0396,0.033,0.8365,0.5455
1777530073.732034,R_Femur,0.0,0.0,0.0,0.0,0.0,0.0,0.0,0.0,0.0,0.0,0.0,0.0,1.0
1777530073.732034,R_Tibia,-0.0957,-9.4746,2.4931,0.2441,-0.2441,0.3662,-75.2728,0.5603,-112.7472,-0.3414,-0.5063,-0.661,0.436
1777530073.732034,R_Foot,0.8565,1.225,9.8957,0.4272,0.0,-0.1221,7.0752,-4.9219,4.7021,0.0598,-0.0453,0.0383,0.9964
1777530073.732034,Trunk,-7.1777,-0.6508,-6.4695,0.9155,-0.061,-0.6104,-174.3256,47.8345,66.2531,-0.7536,0.5158,-0.3144,0.2592
1777530073.732034,L_Femur,0.5838,9.6852,-0.6125,0.2441,-0.3662,-0.1221,93.62,-3.4717,35.3375,0.6881,-0.2409,0.1866,0.6585
1777530073.732034,L_Tibia,-0.2201,-8.7568,-4.1344,-0.2441,-0.3052,0.4272,-115.307,1.3348,-75.7947,-0.6704,-0.514,-0.3364,0.4161
1777530073.732034,L_Foot,-1.0288,-0.1148,10.001,-0.7324,-0.3052,0.3052,-0.6921,5.8722,113.8184,0.0396,0.033,0.8365,0.5455
1777530073.732034,R_Femur,0.0,0.0,0.0,0.0,0.0,0.0,0.0,0.0,0.0,0.0,0.0,0.0,1.0
1777530073.732034,R_Tibia,-0.0957,-9.4746,2.4931,0.2441,-0.2441,0.3662,-75.2728,0.5603,-112.7472,-0.3414,-0.5063,-0.661,0.436
1777530073.732034,R_Foot,0.8565,1.225,9.8957,0.4272,0.0,-0.1221,7.0752,-4.9219,4.7021,0.0598,-0.0453,0.0383,0.9964
1777530073.732034,Trunk,-7.1777,-0.6508,-6.4695,0.9155,-0.061,-0.6104,-174.3256,47.8345,66.2531,-0.7536,0.5158,-0.3144,0.2592
1777530073.732034,L_Femur,0.5838,9.6852,-0.6125,0.2441,-0.3662,-0.1221,93.62,-3.4717,35.3375,0.6881,-0.2409,0.1866,0.6585
1777530073.732034,L_Tibia,-0.2201,-8.7568,-4.1344,-0.2441,-0.3052,0.4272,-115.307,1.3348,-75.7947,-0.6704,-0.514,-0.3364,0.4161
1777530073.732034,L_Foot,-1.0288,-0.1148,10.001,-0.7324,-0.3052,0.3052,-0.6921,5.8722,113.8184,0.0396,0.033,0.8365,0.5455
1777530073.732034,R_Femur,0.0,0.0,0.0,0.0,0.0,0.0,0.0,0.0,0.0,0.0,0.0,0.0,1.0
1777530073.732034,R_Tibia,-0.0957,-9.4746,2.4931,0.3052,-0.1831,0.3662,-75.2728,0.5603,-112.7472,-0.3414,-0.5063,-0.661,0.436
1777530073.732034,R_Foot,0.8565,1.225,9.8957,0.4272,0.0,-0.1221,7.0752,-4.9219,4.7021,0.0598,-0.0453,0.0383,0.9964
1777530073.7326496,Trunk,-7.1777,-0.6508,-6.4695,0.9155,-0.061,-0.6104,-174.3256,47.8345,66.2531,-0.7536,0.5158,-0.3144,0.2592
1777530073.7326496,L_Femur,0.5838,9.6852,-0.6125,0.2441,-0.3662,-0.1221,93.62,-3.4717,35.3375,0.6881,-0.2409,0.1866,0.6585
1777530073.7326496,L_Tibia,-0.2201,-8.7568,-4.1344,-0.2441,-0.3052,0.4272,-115.307,1.3348,-75.7947,-0.6704,-0.514,-0.3364,0.4161
1777530073.7326496,L_Foot,-1.0288,-0.1148,10.001,-0.7324,-0.3052,0.3052,-0.6921,5.8722,113.8184,0.0396,0.033,0.8365,0.5455
1777530073.7326496,R_Femur,0.0,0.0,0.0,0.0,0.0,0.0,0.0,0.0,0.0,0.0,0.0,0.0,1.0
1777530073.7326496,R_Tibia,-0.0957,-9.4746,2.4931,0.3052,-0.1831,0.3662,-75.2728,0.5603,-112.7472,-0.3414,-0.5063,-0.661,0.436
1777530073.7326496,R_Foot,0.8565,1.2298,9.8861,0.4272,0.0,-0.1221,7.0752,-4.9219,4.7021,0.0598,-0.0453,0.0383,0.9964
1777530073.7326496,Trunk,-7.1825,-0.6508,-6.4647,0.9155,0.0,-0.6104,-174.3256,47.8345,66.2585,-0.7536,0.5158,-0.3144,0.2592
1777530073.7326496,L_Femur,0.5838,9.6852,-0.6125,0.2441,-0.3662,-0.1221,93.62,-3.4717,35.3375,0.6881,-0.2409,0.1866,0.6585
1777530073.7326496,L_Tibia,-0.2201,-8.7568,-4.1344,-0.2441,-0.3052,0.4272,-115.307,1.3348,-75.7947,-0.6704,-0.514,-0.3364,0.4161
1777530073.7326496,L_Foot,-1.0288,-0.1148,10.001,-0.7324,-0.3052,0.3052,-0.6921,5.8722,113.8184,0.0396,0.033,0.8365,0.5455
1777530073.7326496,R_Femur,0.0,0.0,0.0,0.0,0.0,0.0,0.0,0.0,0.0,0.0,0.0,0.0,1.0
1777530073.7326496,R_Tibia,-0.0957,-9.4746,2.4931,0.3052,-0.1831,0.3662,-75.2728,0.5603,-112.7472,-0.3414,-0.5063,-0.661,0.436
1777530073.7326496,R_Foot,0.8565,1.2298,9.8861,0.4272,0.0,-0.1221,7.0752,-4.9219,4.7021,0.0598,-0.0453,0.0383,0.9964
1777530073.7326496,Trunk,-7.1825,-0.6508,-6.4647,0.9155,0.0,-0.6104,-174.3256,47.8345,66.2585,-0.7536,0.5158,-0.3144,0.2592
1777530073.7326496,L_Femur,0.5886,9.6852,-0.6077,0.3052,-0.4272,-0.061,93.62,-3.4717,35.3375,0.6881,-0.2409,0.1866,0.6585
1777530073.7326496,L_Tibia,-0.2201,-8.7568,-4.1344,-0.2441,-0.3052,0.4272,-115.307,1.3348,-75.7947,-0.6704,-0.514,-0.3364,0.4161
1777530073.7326496,L_Foot,-1.0288,-0.1148,10.001,-0.7324,-0.3052,0.3052,-0.6921,5.8722,113.8184,0.0396,0.033,0.8365,0.5455
1777530073.7326496,R_Femur,0.0,0.0,0.0,0.0,0.0,0.0,0.0,0.0,0.0,0.0,0.0,0.0,1.0
1777530073.7326496,R_Tibia,-0.0957,-9.4746,2.4931,0.3052,-0.1831,0.3662,-75.2728,0.5603,-112.7472,-0.3414,-0.5063,-0.661,0.436
1777530073.7326496,R_Foot,0.8565,1.2298,9.8861,0.4272,0.0,-0.1221,7.0752,-4.9219,4.7021,0.0598,-0.0453,0.0383,0.9964
1777530077.769735,Trunk,-7.1873,-0.646,-6.4552,0.9155,-0.1221,-0.6104,-174.3146,47.84,66.5057,-0.7525,0.5174,-0.3138,0.26
1777530077.769735,L_Femur,0.5886,9.6852,-0.6077,0.3052,-0.4272,-0.061,93.62,-3.4717,35.3375,0.6881,-0.2409,0.1866,0.6585
1777530077.769735,L_Tibia,-0.2201,-8.7568,-4.1344,-0.2441,-0.3052,0.4272,-115.307,1.3348,-75.7947,-0.6704,-0.514,-0.3364,0.4161
1777530077.769735,L_Foot,-1.0288,-0.1148,10.001,-0.7324,-0.3052,0.3052,-0.6921,5.8722,113.8184,0.0396,0.033,0.8365,0.5455
1777530077.769735,R_Femur,0.0,0.0,0.0,0.0,0.0,0.0,0.0,0.0,0.0,0.0,0.0,0.0,1.0
1777530077.769735,R_Tibia,-0.0957,-9.4746,2.4931,0.3052,-0.1831,0.3662,-75.2728,0.5603,-112.7472,-0.3414,-0.5063,-0.661,0.436
1777530077.769735,R_Foot,0.8565,1.2298,9.8861,0.4272,0.0,-0.1221,7.0752,-4.9219,4.7021,0.0598,-0.0453,0.0383,0.9964
1777530077.769735,Trunk,-7.1873,-0.646,-6.4552,0.9155,-0.1221,-0.6104,-174.3146,47.84,66.5057,-0.7525,0.5174,-0.3138,0.26
1777530077.769735,L_Femur,0.5886,9.6852,-0.6077,0.3052,-0.4272,-0.061,93.62,-3.4717,35.3375,0.6881,-0.2409,0.1866,0.6585
1777530077.769735,L_Tibia,-0.2249,-8.7616,-4.1392,-0.2441,-0.3052,0.4272,-115.307,1.3348,-76.745,-0.6662,-0.5195,-0.3398,0.4133
1777530077.769735,L_Foot,-1.0288,-0.1148,10.001,-0.7324,-0.3052,0.3052,-0.6921,5.8722,113.8184,0.0396,0.033,0.8365,0.5455
1777530077.769735,R_Femur,0.0,0.0,0.0,0.0,0.0,0.0,0.0,0.0,0.0,0.0,0.0,0.0,1.0
1777530077.769735,R_Tibia,-0.0957,-9.4746,2.4931,0.3052,-0.1831,0.3662,-75.2728,0.5603,-112.7472,-0.3414,-0.5063,-0.661,0.436
1777530077.769735,R_Foot,0.8565,1.2298,9.8861,0.4272,0.0,-0.1221,7.0752,-4.9219,4.7021,0.0598,-0.0453,0.0383,0.9964
1777530077.7707355,Trunk,-7.1873,-0.646,-6.4552,0.9155,-0.1221,-0.6104,-174.3146,47.84,66.5057,-0.7525,0.5174,-0.3138,0.26
1777530077.7707355,L_Femur,0.5886,9.6852,-0.6077,0.3052,-0.4272,-0.061,93.62,-3.4717,35.3375,0.6881,-0.2409,0.1866,0.6585
1777530077.7707355,L_Tibia,-0.2249,-8.7616,-4.1392,-0.2441,-0.3052,0.4272,-115.307,1.3348,-76.745,-0.6662,-0.5195,-0.3398,0.4133
1777530077.7707355,L_Foot,-1.0288,-0.1148,10.0058,-0.6714,-0.2441,0.3052,-0.7141,5.8777,113.6426,0.0395,0.0333,0.8357,0.5468
1777530077.7707355,R_Femur,0.0,0.0,0.0,0.0,0.0,0.0,0.0,0.0,0.0,0.0,0.0,0.0,1.0
1777530077.7707355,R_Tibia,-0.0957,-9.4746,2.4931,0.3052,-0.1831,0.3662,-75.2728,0.5603,-112.7472,-0.3414,-0.5063,-0.661,0.436
1777530077.7707355,R_Foot,0.8565,1.2298,9.8861,0.4272,0.0,-0.1221,7.0752,-4.9219,4.7021,0.0598,-0.0453,0.0383,0.9964
1777530077.7707355,Trunk,-7.1873,-0.646,-6.4552,0.9155,-0.1221,-0.6104,-174.3146,47.84,66.5057,-0.7525,0.5174,-0.3138,0.26
1777530077.7707355,L_Femur,0.5886,9.6852,-0.6077,0.3052,-0.4272,-0.061,93.62,-3.4717,35.3375,0.6881,-0.2409,0.1866,0.6585
1777530077.7707355,L_Tibia,-0.2249,-8.7616,-4.1392,-0.2441,-0.3052,0.4272,-115.307,1.3348,-76.745,-0.6662,-0.5195,-0.3398,0.4133
1777530077.7707355,L_Foot,-1.0288,-0.1148,10.0058,-0.6714,-0.2441,0.3052,-0.7141,5.8777,113.6426,0.0395,0.0333,0.8357,0.5468
1777530077.7707355,R_Femur,0.0,0.0,0.0,0.0,0.0,0.0,0.0,0.0,0.0,0.0,0.0,0.0,1.0
1777530077.7707355,R_Tibia,-0.0957,-9.4746,2.4931,0.3052,-0.1831,0.3662,-75.2728,0.5603,-112.7472,-0.3414,-0.5063,-0.661,0.436
1777530077.7707355,R_Foot,0.8565,1.225,9.8957,0.4272,0.0,-0.1221,7.0752,-4.9164,4.6143,0.0599,-0.0453,0.0375,0.9965
1777530077.7707355,Trunk,-7.1921,-0.6412,-6.4504,0.9766,-0.061,-0.6104,-174.3146,47.84,66.5057,-0.7525,0.5174,-0.3138,0.26
1777530077.7707355,L_Femur,0.5886,9.6852,-0.6077,0.3052,-0.4272,-0.061,93.62,-3.4717,35.3375,0.6881,-0.2409,0.1866,0.6585
1777530077.7707355,L_Tibia,-0.2249,-8.7616,-4.1392,-0.2441,-0.3052,0.4272,-115.307,1.3348,-76.745,-0.6662,-0.5195,-0.3398,0.4133
1777530077.7707355,L_Foot,-1.0288,-0.1148,10.0058,-0.6714,-0.2441,0.3052,-0.7141,5.8777,113.6426,0.0395,0.0333,0.8357,0.5468
1777530077.7707355,R_Femur,0.0,0.0,0.0,0.0,0.0,0.0,0.0,0.0,0.0,0.0,0.0,0.0,1.0
1777530077.7707355,R_Tibia,-0.0957,-9.4746,2.4931,0.3052,-0.1831,0.3662,-75.2728,0.5603,-112.7472,-0.3414,-0.5063,-0.661,0.436
1777530077.7707355,R_Foot,0.8565,1.225,9.8957,0.4272,0.0,-0.1221,7.0752,-4.9164,4.6143,0.0599,-0.0453,0.0375,0.9965
1777530077.7707355,Trunk,-7.1921,-0.6412,-6.4504,0.9766,-0.061,-0.6104,-174.3146,47.84,66.5057,-0.7525,0.5174,-0.3138,0.26
1777530077.7707355,L_Femur,0.5886,9.6899,-0.6125,0.2441,-0.4883,-0.1221,93.6145,-3.4717,35.3101,0.6881,-0.2408,0.1864,0.6586
1777530077.7707355,L_Tibia,-0.2249,-8.7616,-4.1392,-0.2441,-0.3052,0.4272,-115.307,1.3348,-76.745,-0.6662,-0.5195,-0.3398,0.4133
1777530077.7707355,L_Foot,-1.0288,-0.1148,10.0058,-0.6714,-0.2441,0.3052,-0.7141,5.8777,113.6426,0.0395,0.0333,0.8357,0.5468
1777530077.7707355,R_Femur,0.0,0.0,0.0,0.0,0.0,0.0,0.0,0.0,0.0,0.0,0.0,0.0,1.0
1777530077.7707355,R_Tibia,-0.0957,-9.4746,2.4931,0.3052,-0.1831,0.3662,-75.2728,0.5603,-112.7472,-0.3414,-0.5063,-0.661,0.436
1777530077.7707355,R_Foot,0.8565,1.225,9.8957,0.4272,0.0,-0.1221,7.0752,-4.9164,4.6143,0.0599,-0.0453,0.0375,0.9965
1777530077.7707355,Trunk,-7.1921,-0.6412,-6.4504,0.9766,-0.061,-0.6104,-174.3146,47.84,66.5057,-0.7525,0.5174,-0.3138,0.26
1777530077.7707355,L_Femur,0.5886,9.6899,-0.6125,0.2441,-0.4883,-0.1221,93.6145,-3.4717,35.3101,0.6881,-0.2408,0.1864,0.6586
1777530077.7707355,L_Tibia,-0.2249,-8.7568,-4.1439,-0.3052,-0.3052,0.4883,-115.307,1.3348,-76.745,-0.6662,-0.5195,-0.3398,0.4133
1777530077.7707355,L_Foot,-1.0288,-0.1148,10.0058,-0.6714,-0.2441,0.3052,-0.7141,5.8777,113.6426,0.0395,0.0333,0.8357,0.5468
1777530077.7707355,R_Femur,0.0,0.0,0.0,0.0,0.0,0.0,0.0,0.0,0.0,0.0,0.0,0.0,1.0
1777530077.7707355,R_Tibia,-0.0957,-9.4746,2.4931,0.3052,-0.1831,0.3662,-75.2728,0.5603,-112.7472,-0.3414,-0.5063,-0.661,0.436
1777530077.7707355,R_Foot,0.8565,1.225,9.8957,0.4272,0.0,-0.1221,7.0752,-4.9164,4.6143,0.0599,-0.0453,0.0375,0.9965
1777530077.7707355,Trunk,-7.1921,-0.6412,-6.4504,0.9766,-0.061,-0.6104,-174.3146,47.84,66.5057,-0.7525,0.5174,-0.3138,0.26
1777530077.7707355,L_Femur,0.5886,9.6899,-0.6125,0.2441,-0.4883,-0.1221,93.6145,-3.4717,35.3101,0.6881,-0.2408,0.1864,0.6586
1777530077.7707355,L_Tibia,-0.2249,-8.7568,-4.1439,-0.3052,-0.3052,0.4883,-115.307,1.3348,-76.745,-0.6662,-0.5195,-0.3398,0.4133
1777530077.7707355,L_Foot,-1.0288,-0.1244,10.001,-0.6714,-0.2441,0.3052,-0.7141,5.8777,113.6426,0.0395,0.0333,0.8357,0.5468
1777530077.7707355,R_Femur,0.0,0.0,0.0,0.0,0.0,0.0,0.0,0.0,0.0,0.0,0.0,0.0,1.0
1777530077.7707355,R_Tibia,-0.0957,-9.4746,2.4931,0.3052,-0.1831,0.3662,-75.2728,0.5603,-112.7472,-0.3414,-0.5063,-0.661,0.436
1777530077.7707355,R_Foot,0.8565,1.225,9.8957,0.4272,0.0,-0.1221,7.0752,-4.9164,4.6143,0.0599,-0.0453,0.0375,0.9965
1777530077.7707355,Trunk,-7.1873,-0.6412,-6.4504,0.9766,-0.1221,-0.6104,-174.3146,47.84,66.5057,-0.7525,0.5174,-0.3138,0.26
1777530077.7707355,L_Femur,0.5886,9.6899,-0.6125,0.2441,-0.4883,-0.1221,93.6145,-3.4717,35.3101,0.6881,-0.2408,0.1864,0.6586
1777530077.7707355,L_Tibia,-0.2249,-8.7568,-4.1439,-0.3052,-0.3052,0.4883,-115.307,1.3348,-76.745,-0.6662,-0.5195,-0.3398,0.4133
1777530077.7707355,L_Foot,-1.0288,-0.1244,10.001,-0.6714,-0.2441,0.3052,-0.7141,5.8777,113.6426,0.0395,0.0333,0.8357,0.5468
1777530077.7707355,R_Femur,0.0,0.0,0.0,0.0,0.0,0.0,0.0,0.0,0.0,0.0,0.0,0.0,1.0
1777530077.7707355,R_Tibia,-0.0957,-9.4746,2.4931,0.3052,-0.1831,0.3662,-75.2728,0.5603,-112.7472,-0.3414,-0.5063,-0.661,0.436
1777530077.7707355,R_Foot,0.8565,1.225,9.8957,0.4272,0.0,-0.1221,7.0752,-4.9164,4.6143,0.0599,-0.0453,0.0375,0.9965
1777530077.7722392,Trunk,-7.1873,-0.6412,-6.4504,0.9766,-0.1221,-0.6104,-174.3146,47.84,66.5057,-0.7525,0.5174,-0.3138,0.26
1777530077.7722392,L_Femur,0.5886,9.6852,-0.6077,0.2441,-0.4272,-0.1221,93.6145,-3.4717,35.3101,0.6881,-0.2408,0.1864,0.6586
1777530077.7722392,L_Tibia,-0.2249,-8.7568,-4.1439,-0.3052,-0.3052,0.4883,-115.307,1.3348,-76.745,-0.6662,-0.5195,-0.3398,0.4133
1777530077.7722392,L_Foot,-1.0288,-0.1244,10.001,-0.6714,-0.2441,0.3052,-0.7141,5.8777,113.6426,0.0395,0.0333,0.8357,0.5468
1777530077.7722392,R_Femur,0.0,0.0,0.0,0.0,0.0,0.0,0.0,0.0,0.0,0.0,0.0,0.0,1.0
1777530077.7722392,R_Tibia,-0.0957,-9.4746,2.4931,0.3052,-0.1831,0.3662,-75.2728,0.5603,-112.7472,-0.3414,-0.5063,-0.661,0.436
1777530077.7722392,R_Foot,0.8565,1.225,9.8957,0.4272,0.0,-0.1221,7.0752,-4.9164,4.6143,0.0599,-0.0453,0.0375,0.9965
1777530077.7722392,Trunk,-7.1873,-0.6412,-6.4504,0.9766,-0.1221,-0.6104,-174.3146,47.84,66.5057,-0.7525,0.5174,-0.3138,0.26
1777530077.7722392,L_Femur,0.5886,9.6852,-0.6077,0.2441,-0.4272,-0.1221,93.6145,-3.4717,35.3101,0.6881,-0.2408,0.1864,0.6586
