Timestamp,Vicon_Frame_Num,Vicon_Recv_Timestamp,IMU_Recv_Timestamp,Planter_Recv_Timestamp,Vicon_Gap_Flag,Vicon_Gap_Size,IMU_Stale_ms,Planter_Stale_ms,IMU_Matched_Flag,Planter_Matched_Flag,Vicon_Root_X,Vicon_Root_Y,Vicon_Root_Z,Vicon_L_Femur_X,Vicon_L_Femur_Y,Vicon_L_Femur_Z,Vicon_L_Tibia_X,Vicon_L_Tibia_Y,Vicon_L_Tibia_Z,Vicon_L_Foot_X,Vicon_L_Foot_Y,Vicon_L_Foot_Z,Vicon_L_Toe_X,Vicon_L_Toe_Y,Vicon_L_Toe_Z,Vicon_R_Femur_X,Vicon_R_Femur_Y,Vicon_R_Femur_Z,Vicon_R_Tibia_X,Vicon_R_Tibia_Y,Vicon_R_Tibia_Z,Vicon_R_Foot_X,Vicon_R_Foot_Y,Vicon_R_Foot_Z,Vicon_R_Toe_X,Vicon_R_Toe_Y,Vicon_R_Toe_Z,Vicon_LASI_X,Vicon_LASI_Y,Vicon_LASI_Z,Vicon_RASI_X,Vicon_RASI_Y,Vicon_RASI_Z,Vicon_LPSI_X,Vicon_LPSI_Y,Vicon_LPSI_Z,Vicon_RPSI_X,Vicon_RPSI_Y,Vicon_RPSI_Z,Vicon_LTHI_X,Vicon_LTHI_Y,Vicon_LTHI_Z,Vicon_LKNE_X,Vicon_LKNE_Y,Vicon_LKNE_Z,Vicon_LTIB_X,Vicon_LTIB_Y,Vicon_LTIB_Z,Vicon_LANK_X,Vicon_LANK_Y,Vicon_LANK_Z,Vicon_LHEE_X,Vicon_LHEE_Y,Vicon_LHEE_Z,Vicon_LTOE_X,Vicon_LTOE_Y,Vicon_LTOE_Z,Vicon_RTHI_X,Vicon_RTHI_Y,Vicon_RTHI_Z,Vicon_RKNE_X,Vicon_RKNE_Y,Vicon_RKNE_Z,Vicon_RTIB_X,Vicon_RTIB_Y,Vicon_RTIB_Z,Vicon_RANK_X,Vicon_RANK_Y,Vicon_RANK_Z,Vicon_RHEE_X,Vicon_RHEE_Y,Vicon_RHEE_Z,Vicon_RTOE_X,Vicon_RTOE_Y,Vicon_RTOE_Z,IMU_Trunk_Acc_X,IMU_Trunk_Acc_Y,IMU_Trunk_Acc_Z,IMU_Trunk_Gyro_X,IMU_Trunk_Gyro_Y,IMU_Trunk_Gyro_Z,IMU_Trunk_Roll,IMU_Trunk_Pitch,IMU_Trunk_Yaw,IMU_Trunk_Quat_x,IMU_Trunk_Quat_y,IMU_Trunk_Quat_z,IMU_Trunk_Quat_w,IMU_L_Femur_Acc_X,IMU_L_Femur_Acc_Y,IMU_L_Femur_Acc_Z,IMU_L_Femur_Gyro_X,IMU_L_Femur_Gyro_Y,IMU_L_Femur_Gyro_Z,IMU_L_Femur_Roll,IMU_L_Femur_Pitch,IMU_L_Femur_Yaw,IMU_L_Femur_Quat_x,IMU_L_Femur_Quat_y,IMU_L_Femur_Quat_z,IMU_L_Femur_Quat_w,IMU_L_Tibia_Acc_X,IMU_L_Tibia_Acc_Y,IMU_L_Tibia_Acc_Z,IMU_L_Tibia_Gyro_X,IMU_L_Tibia_Gyro_Y,IMU_L_Tibia_Gyro_Z,IMU_L_Tibia_Roll,IMU_L_Tibia_Pitch,IMU_L_Tibia_Yaw,IMU_L_Tibia_Quat_x,IMU_L_Tibia_Quat_y,IMU_L_Tibia_Quat_z,IMU_L_Tibia_Quat_w,IMU_L_Foot_Acc_X,IMU_L_Foot_Acc_Y,IMU_L_Foot_Acc_Z,IMU_L_Foot_Gyro_X,IMU_L_Foot_Gyro_Y,IMU_L_Foot_Gyro_Z,IMU_L_Foot_Roll,IMU_L_Foot_Pitch,IMU_L_Foot_Yaw,IMU_L_Foot_Quat_x,IMU_L_Foot_Quat_y,IMU_L_Foot_Quat_z,IMU_L_Foot_Quat_w,IMU_R_Femur_Acc_X,IMU_R_Femur_Acc_Y,IMU_R_Femur_Acc_Z,IMU_R_Femur_Gyro_X,IMU_R_Femur_Gyro_Y,IMU_R_Femur_Gyro_Z,IMU_R_Femur_Roll,IMU_R_Femur_Pitch,IMU_R_Femur_Yaw,IMU_R_Femur_Quat_x,IMU_R_Femur_Quat_y,IMU_R_Femur_Quat_z,IMU_R_Femur_Quat_w,IMU_R_Tibia_Acc_X,IMU_R_Tibia_Acc_Y,IMU_R_Tibia_Acc_Z,IMU_R_Tibia_Gyro_X,IMU_R_Tibia_Gyro_Y,IMU_R_Tibia_Gyro_Z,IMU_R_Tibia_Roll,IMU_R_Tibia_Pitch,IMU_R_Tibia_Yaw,IMU_R_Tibia_Quat_x,IMU_R_Tibia_Quat_y,IMU_R_Tibia_Quat_z,IMU_R_Tibia_Quat_w,IMU_R_Foot_Acc_X,IMU_R_Foot_Acc_Y,IMU_R_Foot_Acc_Z,IMU_R_Foot_Gyro_X,IMU_R_Foot_Gyro_Y,IMU_R_Foot_Gyro_Z,IMU_R_Foot_Roll,IMU_R_Foot_Pitch,IMU_R_Foot_Yaw,IMU_R_Foot_Quat_x,IMU_R_Foot_Quat_y,IMU_R_Foot_Quat_z,IMU_R_Foot_Quat_w,Planter_Left_0,Planter_Left_1,Planter_Left_2,Planter_Left_3,Planter_Left_4,Planter_Left_5,Planter_Left_6,Planter_Left_7,Planter_Left_8,Planter_Left_9,Planter_Left_10,Planter_Left_11,Planter_Left_12,Planter_Left_13,Planter_Left_14,Planter_Left_15,Planter_Left_16,Planter_Left_17,Planter_Right_0,Planter_Right_1,Planter_Right_2,Planter_Right_3,Planter_Right_4,Planter_Right_5,Planter_Right_6,Planter_Right_7,Planter_Right_8,Planter_Right_9,Planter_Right_10,Planter_Right_11,Planter_Right_12,Planter_Right_13,Planter_Right_14,Planter_Right_15,Planter_Right_16,Planter_Right_17
1777289443.7888775,358674,1777289439.8948696,1777289442.1378372,1777289440.7550712,0,0,-2242.9676055908203,-860.2015972137451,1,1,0.0,0.0,0.0,0.0,0.0,0.0,0.0,0.0,0.0,0.0,0.0,0.0,0.0,0.0,0.0,0.0,0.0,0.0,0.0,0.0,0.0,0.0,0.0,0.0,0.0,0.0,0.0,0.0,0.0,0.0,0.0,0.0,0.0,0.0,0.0,0.0,0.0,0.0,0.0,0.0,0.0,0.0,0.0,0.0,0.0,0.0,0.0,0.0,0.0,0.0,0.0,0.0,0.0,0.0,0.0,0.0,0.0,0.0,0.0,0.0,0.0,0.0,0.0,0.0,0.0,0.0,0.0,0.0,0.0,0.0,0.0,0.0,0.0,0.0,0.0,0.6508,9.288,0.7896,-1.3428,19.4092,-15.686,79.9146,-1.0437,-36.8701,0.6114,0.1965,-0.2479,0.7253,-0.4163,9.8431,-1.0958,75.0732,-21.2402,11.1694,84.4189,2.6038,-26.7737,0.6495,0.1719,-0.1566,0.7239,-3.7324,9.9723,-2.7563,43.2739,-28.9307,-3.8452,99.0088,3.6035,-23.5986,0.7398,0.1754,-0.1093,0.6402,-1.0719,0.7752,9.9101,2.4414,1.9531,-1.2817,2.8729,4.9384,-89.1595,-0.0124,0.0483,-0.7003,0.7121,0.0096,11.4557,-3.986,-127.3804,31.7993,30.0903,97.5586,-1.8127,-32.8601,0.7243,0.2027,-0.1978,0.6286,2.9812,4.0961,-9.9292,48.5229,-45.2271,20.5078,146.25,-10.0031,-33.5468,0.92,0.2509,-0.1633,0.2528,14.767,3.9238,47.4879,-96.1304,-93.8721,-67.5049,57.821,4.6857,-99.8108,0.2837,0.3926,-0.6564,0.5784,0,0,0,0,0,0,0,0,0,0,0,0,0,0,0,0,0,0,64769,0,17931,16900,0,0,0,0,52239,55042,0,0,4610,0,33796,39682,34054,0
1777289443.7888775,358675,1777289439.9048824,1777289442.1378372,1777289440.7550712,0,0,-2232.954740524292,-850.1887321472168,1,1,0.0,0.0,0.0,0.0,0.0,0.0,0.0,0.0,0.0,0.0,0.0,0.0,0.0,0.0,0.0,0.0,0.0,0.0,0.0,0.0,0.0,0.0,0.0,0.0,0.0,0.0,0.0,0.0,0.0,0.0,0.0,0.0,0.0,0.0,0.0,0.0,0.0,0.0,0.0,0.0,0.0,0.0,0.0,0.0,0.0,0.0,0.0,0.0,0.0,0.0,0.0,0.0,0.0,0.0,0.0,0.0,0.0,0.0,0.0,0.0,0.0,0.0,0.0,0.0,0.0,0.0,0.0,0.0,0.0,0.0,0.0,0.0,0.0,0.0,0.0,0.6508,9.288,0.7896,-1.3428,19.4092,-15.686,79.9146,-1.0437,-36.8701,0.6114,0.1965,-0.2479,0.7253,-0.4163,9.8431,-1.0958,75.0732,-21.2402,11.1694,84.4189,2.6038,-26.7737,0.6495,0.1719,-0.1566,0.7239,-3.7324,9.9723,-2.7563,43.2739,-28.9307,-3.8452,99.0088,3.6035,-23.5986,0.7398,0.1754,-0.1093,0.6402,-1.0719,0.7752,9.9101,2.4414,1.9531,-1.2817,2.8729,4.9384,-89.1595,-0.0124,0.0483,-0.7003,0.7121,0.0096,11.4557,-3.986,-127.3804,31.7993,30.0903,97.5586,-1.8127,-32.8601,0.7243,0.2027,-0.1978,0.6286,2.9812,4.0961,-9.9292,48.5229,-45.2271,20.5078,146.25,-10.0031,-33.5468,0.92,0.2509,-0.1633,0.2528,14.767,3.9238,47.4879,-96.1304,-93.8721,-67.5049,57.821,4.6857,-99.8108,0.2837,0.3926,-0.6564,0.5784,0,0,0,0,0,0,0,0,0,0,0,0,0,0,0,0,0,0,64769,0,17931,16900,0,0,0,0,52239,55042,0,0,4610,0,33796,39682,34054,0
1777289443.7888775,358676,1777289439.9156096,1777289442.1378372,1777289440.7550712,0,0,-2222.2275733947754,-839.4615650177002,1,1,0.0,0.0,0.0,0.0,0.0,0.0,0.0,0.0,0.0,0.0,0.0,0.0,0.0,0.0,0.0,0.0,0.0,0.0,0.0,0.0,0.0,0.0,0.0,0.0,0.0,0.0,0.0,0.0,0.0,0.0,0.0,0.0,0.0,0.0,0.0,0.0,0.0,0.0,0.0,0.0,0.0,0.0,0.0,0.0,0.0,0.0,0.0,0.0,0.0,0.0,0.0,0.0,0.0,0.0,0.0,0.0,0.0,0.0,0.0,0.0,0.0,0.0,0.0,0.0,0.0,0.0,0.0,0.0,0.0,0.0,0.0,0.0,0.0,0.0,0.0,0.6508,9.288,0.7896,-1.3428,19.4092,-15.686,79.9146,-1.0437,-36.8701,0.6114,0.1965,-0.2479,0.7253,-0.4163,9.8431,-1.0958,75.0732,-21.2402,11.1694,84.4189,2.6038,-26.7737,0.6495,0.1719,-0.1566,0.7239,-3.7324,9.9723,-2.7563,43.2739,-28.9307,-3.8452,99.0088,3.6035,-23.5986,0.7398,0.1754,-0.1093,0.6402,-1.0719,0.7752,9.9101,2.4414,1.9531,-1.2817,2.8729,4.9384,-89.1595,-0.0124,0.0483,-0.7003,0.7121,0.0096,11.4557,-3.986,-127.3804,31.7993,30.0903,97.5586,-1.8127,-32.8601,0.7243,0.2027,-0.1978,0.6286,2.9812,4.0961,-9.9292,48.5229,-45.2271,20.5078,146.25,-10.0031,-33.5468,0.92,0.2509,-0.1633,0.2528,14.767,3.9238,47.4879,-96.1304,-93.8721,-67.5049,57.821,4.6857,-99.8108,0.2837,0.3926,-0.6564,0.5784,0,0,0,0,0,0,0,0,0,0,0,0,0,0,0,0,0,0,64769,0,17931,16900,0,0,0,0,52239,55042,0,0,4610,0,33796,39682,34054,0
1777289443.7888775,358677,1777289439.926138,1777289442.1378372,1777289440.7550712,0,0,-2211.6992473602295,-828.9332389831543,1,1,0.0,0.0,0.0,0.0,0.0,0.0,0.0,0.0,0.0,0.0,0.0,0.0,0.0,0.0,0.0,0.0,0.0,0.0,0.0,0.0,0.0,0.0,0.0,0.0,0.0,0.0,0.0,0.0,0.0,0.0,0.0,0.0,0.0,0.0,0.0,0.0,0.0,0.0,0.0,0.0,0.0,0.0,0.0,0.0,0.0,0.0,0.0,0.0,0.0,0.0,0.0,0.0,0.0,0.0,0.0,0.0,0.0,0.0,0.0,0.0,0.0,0.0,0.0,0.0,0.0,0.0,0.0,0.0,0.0,0.0,0.0,0.0,0.0,0.0,0.0,0.6508,9.288,0.7896,-1.3428,19.4092,-15.686,79.9146,-1.0437,-36.8701,0.6114,0.1965,-0.2479,0.7253,-0.4163,9.8431,-1.0958,75.0732,-21.2402,11.1694,84.4189,2.6038,-26.7737,0.6495,0.1719,-0.1566,0.7239,-3.7324,9.9723,-2.7563,43.2739,-28.9307,-3.8452,99.0088,3.6035,-23.5986,0.7398,0.1754,-0.1093,0.6402,-1.0719,0.7752,9.9101,2.4414,1.9531,-1.2817,2.8729,4.9384,-89.1595,-0.0124,0.0483,-0.7003,0.7121,0.0096,11.4557,-3.986,-127.3804,31.7993,30.0903,97.5586,-1.8127,-32.8601,0.7243,0.2027,-0.1978,0.6286,2.9812,4.0961,-9.9292,48.5229,-45.2271,20.5078,146.25,-10.0031,-33.5468,0.92,0.2509,-0.1633,0.2528,14.767,3.9238,47.4879,-96.1304,-93.8721,-67.5049,57.821,4.6857,-99.8108,0.2837,0.3926,-0.6564,0.5784,0,0,0,0,0,0,0,0,0,0,0,0,0,0,0,0,0,0,64769,0,17931,16900,0,0,0,0,52239,55042,0,0,4610,0,33796,39682,34054,0
1777289443.7888775,358678,1777289439.9351375,1777289442.1378372,1777289440.7550712,0,0,-2202.699661254883,-819.9336528778076,1,1,0.0,0.0,0.0,0.0,0.0,0.0,0.0,0.0,0.0,0.0,0.0,0.0,0.0,0.0,0.0,0.0,0.0,0.0,0.0,0.0,0.0,0.0,0.0,0.0,0.0,0.0,0.0,0.0,0.0,0.0,0.0,0.0,0.0,0.0,0.0,0.0,0.0,0.0,0.0,0.0,0.0,0.0,0.0,0.0,0.0,0.0,0.0,0.0,0.0,0.0,0.0,0.0,0.0,0.0,0.0,0.0,0.0,0.0,0.0,0.0,0.0,0.0,0.0,0.0,0.0,0.0,0.0,0.0,0.0,0.0,0.0,0.0,0.0,0.0,0.0,0.6508,9.288,0.7896,-1.3428,19.4092,-15.686,79.9146,-1.0437,-36.8701,0.6114,0.1965,-0.2479,0.7253,-0.4163,9.8431,-1.0958,75.0732,-21.2402,11.1694,84.4189,2.6038,-26.7737,0.6495,0.1719,-0.1566,0.7239,-3.7324,9.9723,-2.7563,43.2739,-28.9307,-3.8452,99.0088,3.6035,-23.5986,0.7398,0.1754,-0.1093,0.6402,-1.0719,0.7752,9.9101,2.4414,1.9531,-1.2817,2.8729,4.9384,-89.1595,-0.0124,0.0483,-0.7003,0.7121,0.0096,11.4557,-3.986,-127.3804,31.7993,30.0903,97.5586,-1.8127,-32.8601,0.7243,0.2027,-0.1978,0.6286,2.9812,4.0961,-9.9292,48.5229,-45.2271,20.5078,146.25,-10.0031,-33.5468,0.92,0.2509,-0.1633,0.2528,14.767,3.9238,47.4879,-96.1304,-93.8721,-67.5049,57.821,4.6857,-99.8108,0.2837,0.3926,-0.6564,0.5784,0,0,0,0,0,0,0,0,0,0,0,0,0,0,0,0,0,0,64769,0,17931,16900,0,0,0,0,52239,55042,0,0,4610,0,33796,39682,34054,0
1777289443.7888775,358679,1777289439.9458246,1777289442.1378372,1777289440.7550712,0,0,-2192.0125484466553,-809.2465400695801,1,1,0.0,0.0,0.0,0.0,0.0,0.0,0.0,0.0,0.0,0.0,0.0,0.0,0.0,0.0,0.0,0.0,0.0,0.0,0.0,0.0,0.0,0.0,0.0,0.0,0.0,0.0,0.0,0.0,0.0,0.0,0.0,0.0,0.0,0.0,0.0,0.0,0.0,0.0,0.0,0.0,0.0,0.0,0.0,0.0,0.0,0.0,0.0,0.0,0.0,0.0,0.0,0.0,0.0,0.0,0.0,0.0,0.0,0.0,0.0,0.0,0.0,0.0,0.0,0.0,0.0,0.0,0.0,0.0,0.0,0.0,0.0,0.0,0.0,0.0,0.0,0.6508,9.288,0.7896,-1.3428,19.4092,-15.686,79.9146,-1.0437,-36.8701,0.6114,0.1965,-0.2479,0.7253,-0.4163,9.8431,-1.0958,75.0732,-21.2402,11.1694,84.4189,2.6038,-26.7737,0.6495,0.1719,-0.1566,0.7239,-3.7324,9.9723,-2.7563,43.2739,-28.9307,-3.8452,99.0088,3.6035,-23.5986,0.7398,0.1754,-0.1093,0.6402,-1.0719,0.7752,9.9101,2.4414,1.9531,-1.2817,2.8729,4.9384,-89.1595,-0.0124,0.0483,-0.7003,0.7121,0.0096,11.4557,-3.986,-127.3804,31.7993,30.0903,97.5586,-1.8127,-32.8601,0.7243,0.2027,-0.1978,0.6286,2.9812,4.0961,-9.9292,48.5229,-45.2271,20.5078,146.25,-10.0031,-33.5468,0.92,0.2509,-0.1633,0.2528,14.767,3.9238,47.4879,-96.1304,-93.8721,-67.5049,57.821,4.6857,-99.8108,0.2837,0.3926,-0.6564,0.5784,0,0,0,0,0,0,0,0,0,0,0,0,0,0,0,0,0,0,64769,0,17931,16900,0,0,0,0,52239,55042,0,0,4610,0,33796,39682,34054,0
1777289443.7888775,358680,1777289439.9620776,1777289442.1378372,1777289440.7550712,0,0,-2175.7595539093018,-792.9935455322266,1,1,0.0,0.0,0.0,0.0,0.0,0.0,0.0,0.0,0.0,0.0,0.0,0.0,0.0,0.0,0.0,0.0,0.0,0.0,0.0,0.0,0.0,0.0,0.0,0.0,0.0,0.0,0.0,0.0,0.0,0.0,0.0,0.0,0.0,0.0,0.0,0.0,0.0,0.0,0.0,0.0,0.0,0.0,0.0,0.0,0.0,0.0,0.0,0.0,0.0,0.0,0.0,0.0,0.0,0.0,0.0,0.0,0.0,0.0,0.0,0.0,0.0,0.0,0.0,0.0,0.0,0.0,0.0,0.0,0.0,0.0,0.0,0.0,0.0,0.0,0.0,0.6508,9.288,0.7896,-1.3428,19.4092,-15.686,79.9146,-1.0437,-36.8701,0.6114,0.1965,-0.2479,0.7253,-0.4163,9.8431,-1.0958,75.0732,-21.2402,11.1694,84.4189,2.6038,-26.7737,0.6495,0.1719,-0.1566,0.7239,-3.7324,9.9723,-2.7563,43.2739,-28.9307,-3.8452,99.0088,3.6035,-23.5986,0.7398,0.1754,-0.1093,0.6402,-1.0719,0.7752,9.9101,2.4414,1.9531,-1.2817,2.8729,4.9384,-89.1595,-0.0124,0.0483,-0.7003,0.7121,0.0096,11.4557,-3.986,-127.3804,31.7993,30.0903,97.5586,-1.8127,-32.8601,0.7243,0.2027,-0.1978,0.6286,2.9812,4.0961,-9.9292,48.5229,-45.2271,20.5078,146.25,-10.0031,-33.5468,0.92,0.2509,-0.1633,0.2528,14.767,3.9238,47.4879,-96.1304,-93.8721,-67.5049,57.821,4.6857,-99.8108,0.2837,0.3926,-0.6564,0.5784,0,0,0,0,0,0,0,0,0,0,0,0,0,0,0,0,0,0,64769,0,17931,16900,0,0,0,0,52239,55042,0,0,4610,0,33796,39682,34054,0
1777289443.7888775,358681,1777289439.9727452,1777289442.1378372,1777289440.7550712,0,0,-2165.0919914245605,-782.3259830474854,1,1,0.0,0.0,0.0,0.0,0.0,0.0,0.0,0.0,0.0,0.0,0.0,0.0,0.0,0.0,0.0,0.0,0.0,0.0,0.0,0.0,0.0,0.0,0.0,0.0,0.0,0.0,0.0,0.0,0.0,0.0,0.0,0.0,0.0,0.0,0.0,0.0,0.0,0.0,0.0,0.0,0.0,0.0,0.0,0.0,0.0,0.0,0.0,0.0,0.0,0.0,0.0,0.0,0.0,0.0,0.0,0.0,0.0,0.0,0.0,0.0,0.0,0.0,0.0,0.0,0.0,0.0,0.0,0.0,0.0,0.0,0.0,0.0,0.0,0.0,0.0,0.6508,9.288,0.7896,-1.3428,19.4092,-15.686,79.9146,-1.0437,-36.8701,0.6114,0.1965,-0.2479,0.7253,-0.4163,9.8431,-1.0958,75.0732,-21.2402,11.1694,84.4189,2.6038,-26.7737,0.6495,0.1719,-0.1566,0.7239,-3.7324,9.9723,-2.7563,43.2739,-28.9307,-3.8452,99.0088,3.6035,-23.5986,0.7398,0.1754,-0.1093,0.6402,-1.0719,0.7752,9.9101,2.4414,1.9531,-1.2817,2.8729,4.9384,-89.1595,-0.0124,0.0483,-0.7003,0.7121,0.0096,11.4557,-3.986,-127.3804,31.7993,30.0903,97.5586,-1.8127,-32.8601,0.7243,0.2027,-0.1978,0.6286,2.9812,4.0961,-9.9292,48.5229,-45.2271,20.5078,146.25,-10.0031,-33.5468,0.92,0.2509,-0.1633,0.2528,14.767,3.9238,47.4879,-96.1304,-93.8721,-67.5049,57.821,4.6857,-99.8108,0.2837,0.3926,-0.6564,0.5784,0,0,0,0,0,0,0,0,0,0,0,0,0,0,0,0,0,0,64769,0,17931,16900,0,0,0,0,52239,55042,0,0,4610,0,33796,39682,34054,0
1777289443.7888775,358682,1777289439.9822721,1777289442.1378372,1777289440.7550712,0,0,-2155.565023422241,-772.799015045166,1,1,0.0,0.0,0.0,0.0,0.0,0.0,0.0,0.0,0.0,0.0,0.0,0.0,0.0,0.0,0.0,0.0,0.0,0.0,0.0,0.0,0.0,0.0,0.0,0.0,0.0,0.0,0.0,0.0,0.0,0.0,0.0,0.0,0.0,0.0,0.0,0.0,0.0,0.0,0.0,0.0,0.0,0.0,0.0,0.0,0.0,0.0,0.0,0.0,0.0,0.0,0.0,0.0,0.0,0.0,0.0,0.0,0.0,0.0,0.0,0.0,0.0,0.0,0.0,0.0,0.0,0.0,0.0,0.0,0.0,0.0,0.0,0.0,0.0,0.0,0.0,0.6508,9.288,0.7896,-1.3428,19.4092,-15.686,79.9146,-1.0437,-36.8701,0.6114,0.1965,-0.2479,0.7253,-0.4163,9.8431,-1.0958,75.0732,-21.2402,11.1694,84.4189,2.6038,-26.7737,0.6495,0.1719,-0.1566,0.7239,-3.7324,9.9723,-2.7563,43.2739,-28.9307,-3.8452,99.0088,3.6035,-23.5986,0.7398,0.1754,-0.1093,0.6402,-1.0719,0.7752,9.9101,2.4414,1.9531,-1.2817,2.8729,4.9384,-89.1595,-0.0124,0.0483,-0.7003,0.7121,0.0096,11.4557,-3.986,-127.3804,31.7993,30.0903,97.5586,-1.8127,-32.8601,0.7243,0.2027,-0.1978,0.6286,2.9812,4.0961,-9.9292,48.5229,-45.2271,20.5078,146.25,-10.0031,-33.5468,0.92,0.2509,-0.1633,0.2528,14.767,3.9238,47.4879,-96.1304,-93.8721,-67.5049,57.821,4.6857,-99.8108,0.2837,0.3926,-0.6564,0.5784,0,0,0,0,0,0,0,0,0,0,0,0,0,0,0,0,0,0,64769,0,17931,16900,0,0,0,0,52239,55042,0,0,4610,0,33796,39682,34054,0
1777289443.789888,358683,1777289439.9847853,1777289442.1378372,1777289440.7550712,0,0,-2153.0518531799316,-770.2858448028564,1,1,0.0,0.0,0.0,0.0,0.0,0.0,0.0,0.0,0.0,0.0,0.0,0.0,0.0,0.0,0.0,0.0,0.0,0.0,0.0,0.0,0.0,0.0,0.0,0.0,0.0,0.0,0.0,0.0,0.0,0.0,0.0,0.0,0.0,0.0,0.0,0.0,0.0,0.0,0.0,0.0,0.0,0.0,0.0,0.0,0.0,0.0,0.0,0.0,0.0,0.0,0.0,0.0,0.0,0.0,0.0,0.0,0.0,0.0,0.0,0.0,0.0,0.0,0.0,0.0,0.0,0.0,0.0,0.0,0.0,0.0,0.0,0.0,0.0,0.0,0.0,0.6508,9.288,0.7896,-1.3428,19.4092,-15.686,79.9146,-1.0437,-36.8701,0.6114,0.1965,-0.2479,0.7253,-0.4163,9.8431,-1.0958,75.0732,-21.2402,11.1694,84.4189,2.6038,-26.7737,0.6495,0.1719,-0.1566,0.7239,-3.7324,9.9723,-2.7563,43.2739,-28.9307,-3.8452,99.0088,3.6035,-23.5986,0.7398,0.1754,-0.1093,0.6402,-1.0719,0.7752,9.9101,2.4414,1.9531,-1.2817,2.8729,4.9384,-89.1595,-0.0124,0.0483,-0.7003,0.7121,0.0096,11.4557,-3.986,-127.3804,31.7993,30.0903,97.5586,-1.8127,-32.8601,0.7243,0.2027,-0.1978,0.6286,2.9812,4.0961,-9.9292,48.5229,-45.2271,20.5078,146.25,-10.0031,-33.5468,0.92,0.2509,-0.1633,0.2528,14.767,3.9238,47.4879,-96.1304,-93.8721,-67.5049,57.821,4.6857,-99.8108,0.2837,0.3926,-0.6564,0.5784,0,0,0,0,0,0,0,0,0,0,0,0,0,0,0,0,0,0,64769,0,17931,16900,0,0,0,0,52239,55042,0,0,4610,0,33796,39682,34054,0
1777289443.789888,358684,1777289439.995721,1777289442.1378372,1777289440.7550712,0,0,-2142.116069793701,-759.350061416626,1,1,0.0,0.0,0.0,0.0,0.0,0.0,0.0,0.0,0.0,0.0,0.0,0.0,0.0,0.0,0.0,0.0,0.0,0.0,0.0,0.0,0.0,0.0,0.0,0.0,0.0,0.0,0.0,0.0,0.0,0.0,0.0,0.0,0.0,0.0,0.0,0.0,0.0,0.0,0.0,0.0,0.0,0.0,0.0,0.0,0.0,0.0,0.0,0.0,0.0,0.0,0.0,0.0,0.0,0.0,0.0,0.0,0.0,0.0,0.0,0.0,0.0,0.0,0.0,0.0,0.0,0.0,0.0,0.0,0.0,0.0,0.0,0.0,0.0,0.0,0.0,0.6508,9.288,0.7896,-1.3428,19.4092,-15.686,79.9146,-1.0437,-36.8701,0.6114,0.1965,-0.2479,0.7253,-0.4163,9.8431,-1.0958,75.0732,-21.2402,11.1694,84.4189,2.6038,-26.7737,0.6495,0.1719,-0.1566,0.7239,-3.7324,9.9723,-2.7563,43.2739,-28.9307,-3.8452,99.0088,3.6035,-23.5986,0.7398,0.1754,-0.1093,0.6402,-1.0719,0.7752,9.9101,2.4414,1.9531,-1.2817,2.8729,4.9384,-89.1595,-0.0124,0.0483,-0.7003,0.7121,0.0096,11.4557,-3.986,-127.3804,31.7993,30.0903,97.5586,-1.8127,-32.8601,0.7243,0.2027,-0.1978,0.6286,2.9812,4.0961,-9.9292,48.5229,-45.2271,20.5078,146.25,-10.0031,-33.5468,0.92,0.2509,-0.1633,0.2528,14.767,3.9238,47.4879,-96.1304,-93.8721,-67.5049,57.821,4.6857,-99.8108,0.2837,0.3926,-0.6564,0.5784,0,0,0,0,0,0,0,0,0,0,0,0,0,0,0,0,0,0,64769,0,17931,16900,0,0,0,0,52239,55042,0,0,4610,0,33796,39682,34054,0
1777289443.789888,358685,1777289440.0056405,1777289442.1378372,1777289440.7550712,0,0,-2132.1966648101807,-749.4306564331055,1,1,0.0,0.0,0.0,0.0,0.0,0.0,0.0,0.0,0.0,0.0,0.0,0.0,0.0,0.0,0.0,0.0,0.0,0.0,0.0,0.0,0.0,0.0,0.0,0.0,0.0,0.0,0.0,0.0,0.0,0.0,0.0,0.0,0.0,0.0,0.0,0.0,0.0,0.0,0.0,0.0,0.0,0.0,0.0,0.0,0.0,0.0,0.0,0.0,0.0,0.0,0.0,0.0,0.0,0.0,0.0,0.0,0.0,0.0,0.0,0.0,0.0,0.0,0.0,0.0,0.0,0.0,0.0,0.0,0.0,0.0,0.0,0.0,0.0,0.0,0.0,0.6508,9.288,0.7896,-1.3428,19.4092,-15.686,79.9146,-1.0437,-36.8701,0.6114,0.1965,-0.2479,0.7253,-0.4163,9.8431,-1.0958,75.0732,-21.2402,11.1694,84.4189,2.6038,-26.7737,0.6495,0.1719,-0.1566,0.7239,-3.7324,9.9723,-2.7563,43.2739,-28.9307,-3.8452,99.0088,3.6035,-23.5986,0.7398,0.1754,-0.1093,0.6402,-1.0719,0.7752,9.9101,2.4414,1.9531,-1.2817,2.8729,4.9384,-89.1595,-0.0124,0.0483,-0.7003,0.7121,0.0096,11.4557,-3.986,-127.3804,31.7993,30.0903,97.5586,-1.8127,-32.8601,0.7243,0.2027,-0.1978,0.6286,2.9812,4.0961,-9.9292,48.5229,-45.2271,20.5078,146.25,-10.0031,-33.5468,0.92,0.2509,-0.1633,0.2528,14.767,3.9238,47.4879,-96.1304,-93.8721,-67.5049,57.821,4.6857,-99.8108,0.2837,0.3926,-0.6564,0.5784,0,0,0,0,0,0,0,0,0,0,0,0,0,0,0,0,0,0,64769,0,17931,16900,0,0,0,0,52239,55042,0,0,4610,0,33796,39682,34054,0
1777289443.789888,358686,1777289440.0146668,1777289442.1378372,1777289440.7550712,0,0,-2123.1703758239746,-740.4043674468994,1,1,0.0,0.0,0.0,0.0,0.0,0.0,0.0,0.0,0.0,0.0,0.0,0.0,0.0,0.0,0.0,0.0,0.0,0.0,0.0,0.0,0.0,0.0,0.0,0.0,0.0,0.0,0.0,0.0,0.0,0.0,0.0,0.0,0.0,0.0,0.0,0.0,0.0,0.0,0.0,0.0,0.0,0.0,0.0,0.0,0.0,0.0,0.0,0.0,0.0,0.0,0.0,0.0,0.0,0.0,0.0,0.0,0.0,0.0,0.0,0.0,0.0,0.0,0.0,0.0,0.0,0.0,0.0,0.0,0.0,0.0,0.0,0.0,0.0,0.0,0.0,0.6508,9.288,0.7896,-1.3428,19.4092,-15.686,79.9146,-1.0437,-36.8701,0.6114,0.1965,-0.2479,0.7253,-0.4163,9.8431,-1.0958,75.0732,-21.2402,11.1694,84.4189,2.6038,-26.7737,0.6495,0.1719,-0.1566,0.7239,-3.7324,9.9723,-2.7563,43.2739,-28.9307,-3.8452,99.0088,3.6035,-23.5986,0.7398,0.1754,-0.1093,0.6402,-1.0719,0.7752,9.9101,2.4414,1.9531,-1.2817,2.8729,4.9384,-89.1595,-0.0124,0.0483,-0.7003,0.7121,0.0096,11.4557,-3.986,-127.3804,31.7993,30.0903,97.5586,-1.8127,-32.8601,0.7243,0.2027,-0.1978,0.6286,2.9812,4.0961,-9.9292,48.5229,-45.2271,20.5078,146.25,-10.0031,-33.5468,0.92,0.2509,-0.1633,0.2528,14.767,3.9238,47.4879,-96.1304,-93.8721,-67.5049,57.821,4.6857,-99.8108,0.2837,0.3926,-0.6564,0.5784,0,0,0,0,0,0,0,0,0,0,0,0,0,0,0,0,0,0,64769,0,17931,16900,0,0,0,0,52239,55042,0,0,4610,0,33796,39682,34054,0
1777289443.789888,358687,1777289440.0266392,1777289442.1378372,1777289440.7550712,0,0,-2111.1979484558105,-728.4319400787354,1,1,0.0,0.0,0.0,0.0,0.0,0.0,0.0,0.0,0.0,0.0,0.0,0.0,0.0,0.0,0.0,0.0,0.0,0.0,0.0,0.0,0.0,0.0,0.0,0.0,0.0,0.0,0.0,0.0,0.0,0.0,0.0,0.0,0.0,0.0,0.0,0.0,0.0,0.0,0.0,0.0,0.0,0.0,0.0,0.0,0.0,0.0,0.0,0.0,0.0,0.0,0.0,0.0,0.0,0.0,0.0,0.0,0.0,0.0,0.0,0.0,0.0,0.0,0.0,0.0,0.0,0.0,0.0,0.0,0.0,0.0,0.0,0.0,0.0,0.0,0.0,0.6508,9.288,0.7896,-1.3428,19.4092,-15.686,79.9146,-1.0437,-36.8701,0.6114,0.1965,-0.2479,0.7253,-0.4163,9.8431,-1.0958,75.0732,-21.2402,11.1694,84.4189,2.6038,-26.7737,0.6495,0.1719,-0.1566,0.7239,-3.7324,9.9723,-2.7563,43.2739,-28.9307,-3.8452,99.0088,3.6035,-23.5986,0.7398,0.1754,-0.1093,0.6402,-1.0719,0.7752,9.9101,2.4414,1.9531,-1.2817,2.8729,4.9384,-89.1595,-0.0124,0.0483,-0.7003,0.7121,0.0096,11.4557,-3.986,-127.3804,31.7993,30.0903,97.5586,-1.8127,-32.8601,0.7243,0.2027,-0.1978,0.6286,2.9812,4.0961,-9.9292,48.5229,-45.2271,20.5078,146.25,-10.0031,-33.5468,0.92,0.2509,-0.1633,0.2528,14.767,3.9238,47.4879,-96.1304,-93.8721,-67.5049,57.821,4.6857,-99.8108,0.2837,0.3926,-0.6564,0.5784,0,0,0,0,0,0,0,0,0,0,0,0,0,0,0,0,0,0,64769,0,17931,16900,0,0,0,0,52239,55042,0,0,4610,0,33796,39682,34054,0
1777289443.789888,358688,1777289440.0490775,1777289442.1378372,1777289440.7550712,0,0,-2088.759660720825,-705.99365234375,1,1,0.0,0.0,0.0,0.0,0.0,0.0,0.0,0.0,0.0,0.0,0.0,0.0,0.0,0.0,0.0,0.0,0.0,0.0,0.0,0.0,0.0,0.0,0.0,0.0,0.0,0.0,0.0,0.0,0.0,0.0,0.0,0.0,0.0,0.0,0.0,0.0,0.0,0.0,0.0,0.0,0.0,0.0,0.0,0.0,0.0,0.0,0.0,0.0,0.0,0.0,0.0,0.0,0.0,0.0,0.0,0.0,0.0,0.0,0.0,0.0,0.0,0.0,0.0,0.0,0.0,0.0,0.0,0.0,0.0,0.0,0.0,0.0,0.0,0.0,0.0,0.6508,9.288,0.7896,-1.3428,19.4092,-15.686,79.9146,-1.0437,-36.8701,0.6114,0.1965,-0.2479,0.7253,-0.4163,9.8431,-1.0958,75.0732,-21.2402,11.1694,84.4189,2.6038,-26.7737,0.6495,0.1719,-0.1566,0.7239,-3.7324,9.9723,-2.7563,43.2739,-28.9307,-3.8452,99.0088,3.6035,-23.5986,0.7398,0.1754,-0.1093,0.6402,-1.0719,0.7752,9.9101,2.4414,1.9531,-1.2817,2.8729,4.9384,-89.1595,-0.0124,0.0483,-0.7003,0.7121,0.0096,11.4557,-3.986,-127.3804,31.7993,30.0903,97.5586,-1.8127,-32.8601,0.7243,0.2027,-0.1978,0.6286,2.9812,4.0961,-9.9292,48.5229,-45.2271,20.5078,146.25,-10.0031,-33.5468,0.92,0.2509,-0.1633,0.2528,14.767,3.9238,47.4879,-96.1304,-93.8721,-67.5049,57.821,4.6857,-99.8108,0.2837,0.3926,-0.6564,0.5784,0,0,0,0,0,0,0,0,0,0,0,0,0,0,0,0,0,0,64769,0,17931,16900,0,0,0,0,52239,55042,0,0,4610,0,33796,39682,34054,0
1777289443.789888,358689,1777289440.0500805,1777289442.1378372,1777289440.7550712,0,0,-2087.756633758545,-704.9906253814697,1,1,0.0,0.0,0.0,0.0,0.0,0.0,0.0,0.0,0.0,0.0,0.0,0.0,0.0,0.0,0.0,0.0,0.0,0.0,0.0,0.0,0.0,0.0,0.0,0.0,0.0,0.0,0.0,0.0,0.0,0.0,0.0,0.0,0.0,0.0,0.0,0.0,0.0,0.0,0.0,0.0,0.0,0.0,0.0,0.0,0.0,0.0,0.0,0.0,0.0,0.0,0.0,0.0,0.0,0.0,0.0,0.0,0.0,0.0,0.0,0.0,0.0,0.0,0.0,0.0,0.0,0.0,0.0,0.0,0.0,0.0,0.0,0.0,0.0,0.0,0.0,0.6508,9.288,0.7896,-1.3428,19.4092,-15.686,79.9146,-1.0437,-36.8701,0.6114,0.1965,-0.2479,0.7253,-0.4163,9.8431,-1.0958,75.0732,-21.2402,11.1694,84.4189,2.6038,-26.7737,0.6495,0.1719,-0.1566,0.7239,-3.7324,9.9723,-2.7563,43.2739,-28.9307,-3.8452,99.0088,3.6035,-23.5986,0.7398,0.1754,-0.1093,0.6402,-1.0719,0.7752,9.9101,2.4414,1.9531,-1.2817,2.8729,4.9384,-89.1595,-0.0124,0.0483,-0.7003,0.7121,0.0096,11.4557,-3.986,-127.3804,31.7993,30.0903,97.5586,-1.8127,-32.8601,0.7243,0.2027,-0.1978,0.6286,2.9812,4.0961,-9.9292,48.5229,-45.2271,20.5078,146.25,-10.0031,-33.5468,0.92,0.2509,-0.1633,0.2528,14.767,3.9238,47.4879,-96.1304,-93.8721,-67.5049,57.821,4.6857,-99.8108,0.2837,0.3926,-0.6564,0.5784,0,0,0,0,0,0,0,0,0,0,0,0,0,0,0,0,0,0,64769,0,17931,16900,0,0,0,0,52239,55042,0,0,4610,0,33796,39682,34054,0
1777289443.789888,358690,1777289440.0546694,1777289442.1378372,1777289440.7550712,0,0,-2083.167791366577,-700.401782989502,1,1,0.0,0.0,0.0,0.0,0.0,0.0,0.0,0.0,0.0,0.0,0.0,0.0,0.0,0.0,0.0,0.0,0.0,0.0,0.0,0.0,0.0,0.0,0.0,0.0,0.0,0.0,0.0,0.0,0.0,0.0,0.0,0.0,0.0,0.0,0.0,0.0,0.0,0.0,0.0,0.0,0.0,0.0,0.0,0.0,0.0,0.0,0.0,0.0,0.0,0.0,0.0,0.0,0.0,0.0,0.0,0.0,0.0,0.0,0.0,0.0,0.0,0.0,0.0,0.0,0.0,0.0,0.0,0.0,0.0,0.0,0.0,0.0,0.0,0.0,0.0,0.6508,9.288,0.7896,-1.3428,19.4092,-15.686,79.9146,-1.0437,-36.8701,0.6114,0.1965,-0.2479,0.7253,-0.4163,9.8431,-1.0958,75.0732,-21.2402,11.1694,84.4189,2.6038,-26.7737,0.6495,0.1719,-0.1566,0.7239,-3.7324,9.9723,-2.7563,43.2739,-28.9307,-3.8452,99.0088,3.6035,-23.5986,0.7398,0.1754,-0.1093,0.6402,-1.0719,0.7752,9.9101,2.4414,1.9531,-1.2817,2.8729,4.9384,-89.1595,-0.0124,0.0483,-0.7003,0.7121,0.0096,11.4557,-3.986,-127.3804,31.7993,30.0903,97.5586,-1.8127,-32.8601,0.7243,0.2027,-0.1978,0.6286,2.9812,4.0961,-9.9292,48.5229,-45.2271,20.5078,146.25,-10.0031,-33.5468,0.92,0.2509,-0.1633,0.2528,14.767,3.9238,47.4879,-96.1304,-93.8721,-67.5049,57.821,4.6857,-99.8108,0.2837,0.3926,-0.6564,0.5784,0,0,0,0,0,0,0,0,0,0,0,0,0,0,0,0,0,0,64769,0,17931,16900,0,0,0,0,52239,55042,0,0,4610,0,33796,39682,34054,0
1777289443.789888,358691,1777289440.0658696,1777289442.1378372,1777289440.7550712,0,0,-2071.967601776123,-689.2015933990479,1,1,0.0,0.0,0.0,0.0,0.0,0.0,0.0,0.0,0.0,0.0,0.0,0.0,0.0,0.0,0.0,0.0,0.0,0.0,0.0,0.0,0.0,0.0,0.0,0.0,0.0,0.0,0.0,0.0,0.0,0.0,0.0,0.0,0.0,0.0,0.0,0.0,0.0,0.0,0.0,0.0,0.0,0.0,0.0,0.0,0.0,0.0,0.0,0.0,0.0,0.0,0.0,0.0,0.0,0.0,0.0,0.0,0.0,0.0,0.0,0.0,0.0,0.0,0.0,0.0,0.0,0.0,0.0,0.0,0.0,0.0,0.0,0.0,0.0,0.0,0.0,0.6508,9.288,0.7896,-1.3428,19.4092,-15.686,79.9146,-1.0437,-36.8701,0.6114,0.1965,-0.2479,0.7253,-0.4163,9.8431,-1.0958,75.0732,-21.2402,11.1694,84.4189,2.6038,-26.7737,0.6495,0.1719,-0.1566,0.7239,-3.7324,9.9723,-2.7563,43.2739,-28.9307,-3.8452,99.0088,3.6035,-23.5986,0.7398,0.1754,-0.1093,0.6402,-1.0719,0.7752,9.9101,2.4414,1.9531,-1.2817,2.8729,4.9384,-89.1595,-0.0124,0.0483,-0.7003,0.7121,0.0096,11.4557,-3.986,-127.3804,31.7993,30.0903,97.5586,-1.8127,-32.8601,0.7243,0.2027,-0.1978,0.6286,2.9812,4.0961,-9.9292,48.5229,-45.2271,20.5078,146.25,-10.0031,-33.5468,0.92,0.2509,-0.1633,0.2528,14.767,3.9238,47.4879,-96.1304,-93.8721,-67.5049,57.821,4.6857,-99.8108,0.2837,0.3926,-0.6564,0.5784,0,0,0,0,0,0,0,0,0,0,0,0,0,0,0,0,0,0,64769,0,17931,16900,0,0,0,0,52239,55042,0,0,4610,0,33796,39682,34054,0
1777289443.789888,358692,1777289440.0757234,1777289442.1378372,1777289440.7550712,0,0,-2062.1137619018555,-679.3477535247803,1,1,0.0,0.0,0.0,0.0,0.0,0.0,0.0,0.0,0.0,0.0,0.0,0.0,0.0,0.0,0.0,0.0,0.0,0.0,0.0,0.0,0.0,0.0,0.0,0.0,0.0,0.0,0.0,0.0,0.0,0.0,0.0,0.0,0.0,0.0,0.0,0.0,0.0,0.0,0.0,0.0,0.0,0.0,0.0,0.0,0.0,0.0,0.0,0.0,0.0,0.0,0.0,0.0,0.0,0.0,0.0,0.0,0.0,0.0,0.0,0.0,0.0,0.0,0.0,0.0,0.0,0.0,0.0,0.0,0.0,0.0,0.0,0.0,0.0,0.0,0.0,0.6508,9.288,0.7896,-1.3428,19.4092,-15.686,79.9146,-1.0437,-36.8701,0.6114,0.1965,-0.2479,0.7253,-0.4163,9.8431,-1.0958,75.0732,-21.2402,11.1694,84.4189,2.6038,-26.7737,0.6495,0.1719,-0.1566,0.7239,-3.7324,9.9723,-2.7563,43.2739,-28.9307,-3.8452,99.0088,3.6035,-23.5986,0.7398,0.1754,-0.1093,0.6402,-1.0719,0.7752,9.9101,2.4414,1.9531,-1.2817,2.8729,4.9384,-89.1595,-0.0124,0.0483,-0.7003,0.7121,0.0096,11.4557,-3.986,-127.3804,31.7993,30.0903,97.5586,-1.8127,-32.8601,0.7243,0.2027,-0.1978,0.6286,2.9812,4.0961,-9.9292,48.5229,-45.2271,20.5078,146.25,-10.0031,-33.5468,0.92,0.2509,-0.1633,0.2528,14.767,3.9238,47.4879,-96.1304,-93.8721,-67.5049,57.821,4.6857,-99.8108,0.2837,0.3926,-0.6564,0.5784,0,0,0,0,0,0,0,0,0,0,0,0,0,0,0,0,0,0,64769,0,17931,16900,0,0,0,0,52239,55042,0,0,4610,0,33796,39682,34054,0
1777289443.789888,358693,1777289440.085873,1777289442.1378372,1777289440.7550712,0,0,-2051.964282989502,-669.1982746124268,1,1,0.0,0.0,0.0,0.0,0.0,0.0,0.0,0.0,0.0,0.0,0.0,0.0,0.0,0.0,0.0,0.0,0.0,0.0,0.0,0.0,0.0,0.0,0.0,0.0,0.0,0.0,0.0,0.0,0.0,0.0,0.0,0.0,0.0,0.0,0.0,0.0,0.0,0.0,0.0,0.0,0.0,0.0,0.0,0.0,0.0,0.0,0.0,0.0,0.0,0.0,0.0,0.0,0.0,0.0,0.0,0.0,0.0,0.0,0.0,0.0,0.0,0.0,0.0,0.0,0.0,0.0,0.0,0.0,0.0,0.0,0.0,0.0,0.0,0.0,0.0,0.6508,9.288,0.7896,-1.3428,19.4092,-15.686,79.9146,-1.0437,-36.8701,0.6114,0.1965,-0.2479,0.7253,-0.4163,9.8431,-1.0958,75.0732,-21.2402,11.1694,84.4189,2.6038,-26.7737,0.6495,0.1719,-0.1566,0.7239,-3.7324,9.9723,-2.7563,43.2739,-28.9307,-3.8452,99.0088,3.6035,-23.5986,0.7398,0.1754,-0.1093,0.6402,-1.0719,0.7752,9.9101,2.4414,1.9531,-1.2817,2.8729,4.9384,-89.1595,-0.0124,0.0483,-0.7003,0.7121,0.0096,11.4557,-3.986,-127.3804,31.7993,30.0903,97.5586,-1.8127,-32.8601,0.7243,0.2027,-0.1978,0.6286,2.9812,4.0961,-9.9292,48.5229,-45.2271,20.5078,146.25,-10.0031,-33.5468,0.92,0.2509,-0.1633,0.2528,14.767,3.9238,47.4879,-96.1304,-93.8721,-67.5049,57.821,4.6857,-99.8108,0.2837,0.3926,-0.6564,0.5784,0,0,0,0,0,0,0,0,0,0,0,0,0,0,0,0,0,0,64769,0,17931,16900,0,0,0,0,52239,55042,0,0,4610,0,33796,39682,34054,0
1777289443.7908874,358694,1777289440.095919,1777289442.1378372,1777289440.7550712,0,0,-2041.9182777404785,-659.1522693634033,1,1,0.0,0.0,0.0,0.0,0.0,0.0,0.0,0.0,0.0,0.0,0.0,0.0,0.0,0.0,0.0,0.0,0.0,0.0,0.0,0.0,0.0,0.0,0.0,0.0,0.0,0.0,0.0,0.0,0.0,0.0,0.0,0.0,0.0,0.0,0.0,0.0,0.0,0.0,0.0,0.0,0.0,0.0,0.0,0.0,0.0,0.0,0.0,0.0,0.0,0.0,0.0,0.0,0.0,0.0,0.0,0.0,0.0,0.0,0.0,0.0,0.0,0.0,0.0,0.0,0.0,0.0,0.0,0.0,0.0,0.0,0.0,0.0,0.0,0.0,0.0,0.6508,9.288,0.7896,-1.3428,19.4092,-15.686,79.9146,-1.0437,-36.8701,0.6114,0.1965,-0.2479,0.7253,-0.4163,9.8431,-1.0958,75.0732,-21.2402,11.1694,84.4189,2.6038,-26.7737,0.6495,0.1719,-0.1566,0.7239,-3.7324,9.9723,-2.7563,43.2739,-28.9307,-3.8452,99.0088,3.6035,-23.5986,0.7398,0.1754,-0.1093,0.6402,-1.0719,0.7752,9.9101,2.4414,1.9531,-1.2817,2.8729,4.9384,-89.1595,-0.0124,0.0483,-0.7003,0.7121,0.0096,11.4557,-3.986,-127.3804,31.7993,30.0903,97.5586,-1.8127,-32.8601,0.7243,0.2027,-0.1978,0.6286,2.9812,4.0961,-9.9292,48.5229,-45.2271,20.5078,146.25,-10.0031,-33.5468,0.92,0.2509,-0.1633,0.2528,14.767,3.9238,47.4879,-96.1304,-93.8721,-67.5049,57.821,4.6857,-99.8108,0.2837,0.3926,-0.6564,0.5784,0,0,0,0,0,0,0,0,0,0,0,0,0,0,0,0,0,0,64769,0,17931,16900,0,0,0,0,52239,55042,0,0,4610,0,33796,39682,34054,0
1777289443.7908874,358695,1777289440.1059144,1777289442.1378372,1777289440.7550712,0,0,-2031.9228172302246,-649.1568088531494,1,1,0.0,0.0,0.0,0.0,0.0,0.0,0.0,0.0,0.0,0.0,0.0,0.0,0.0,0.0,0.0,0.0,0.0,0.0,0.0,0.0,0.0,0.0,0.0,0.0,0.0,0.0,0.0,0.0,0.0,0.0,0.0,0.0,0.0,0.0,0.0,0.0,0.0,0.0,0.0,0.0,0.0,0.0,0.0,0.0,0.0,0.0,0.0,0.0,0.0,0.0,0.0,0.0,0.0,0.0,0.0,0.0,0.0,0.0,0.0,0.0,0.0,0.0,0.0,0.0,0.0,0.0,0.0,0.0,0.0,0.0,0.0,0.0,0.0,0.0,0.0,0.6508,9.288,0.7896,-1.3428,19.4092,-15.686,79.9146,-1.0437,-36.8701,0.6114,0.1965,-0.2479,0.7253,-0.4163,9.8431,-1.0958,75.0732,-21.2402,11.1694,84.4189,2.6038,-26.7737,0.6495,0.1719,-0.1566,0.7239,-3.7324,9.9723,-2.7563,43.2739,-28.9307,-3.8452,99.0088,3.6035,-23.5986,0.7398,0.1754,-0.1093,0.6402,-1.0719,0.7752,9.9101,2.4414,1.9531,-1.2817,2.8729,4.9384,-89.1595,-0.0124,0.0483,-0.7003,0.7121,0.0096,11.4557,-3.986,-127.3804,31.7993,30.0903,97.5586,-1.8127,-32.8601,0.7243,0.2027,-0.1978,0.6286,2.9812,4.0961,-9.9292,48.5229,-45.2271,20.5078,146.25,-10.0031,-33.5468,0.92,0.2509,-0.1633,0.2528,14.767,3.9238,47.4879,-96.1304,-93.8721,-67.5049,57.821,4.6857,-99.8108,0.2837,0.3926,-0.6564,0.5784,0,0,0,0,0,0,0,0,0,0,0,0,0,0,0,0,0,0,64769,0,17931,16900,0,0,0,0,52239,55042,0,0,4610,0,33796,39682,34054,0
1777289443.7908874,358696,1777289440.1146967,1777289442.1378372,1777289440.7550712,0,0,-2023.1404304504395,-640.3744220733643,1,1,0.0,0.0,0.0,0.0,0.0,0.0,0.0,0.0,0.0,0.0,0.0,0.0,0.0,0.0,0.0,0.0,0.0,0.0,0.0,0.0,0.0,0.0,0.0,0.0,0.0,0.0,0.0,0.0,0.0,0.0,0.0,0.0,0.0,0.0,0.0,0.0,0.0,0.0,0.0,0.0,0.0,0.0,0.0,0.0,0.0,0.0,0.0,0.0,0.0,0.0,0.0,0.0,0.0,0.0,0.0,0.0,0.0,0.0,0.0,0.0,0.0,0.0,0.0,0.0,0.0,0.0,0.0,0.0,0.0,0.0,0.0,0.0,0.0,0.0,0.0,0.6508,9.288,0.7896,-1.3428,19.4092,-15.686,79.9146,-1.0437,-36.8701,0.6114,0.1965,-0.2479,0.7253,-0.4163,9.8431,-1.0958,75.0732,-21.2402,11.1694,84.4189,2.6038,-26.7737,0.6495,0.1719,-0.1566,0.7239,-3.7324,9.9723,-2.7563,43.2739,-28.9307,-3.8452,99.0088,3.6035,-23.5986,0.7398,0.1754,-0.1093,0.6402,-1.0719,0.7752,9.9101,2.4414,1.9531,-1.2817,2.8729,4.9384,-89.1595,-0.0124,0.0483,-0.7003,0.7121,0.0096,11.4557,-3.986,-127.3804,31.7993,30.0903,97.5586,-1.8127,-32.8601,0.7243,0.2027,-0.1978,0.6286,2.9812,4.0961,-9.9292,48.5229,-45.2271,20.5078,146.25,-10.0031,-33.5468,0.92,0.2509,-0.1633,0.2528,14.767,3.9238,47.4879,-96.1304,-93.8721,-67.5049,57.821,4.6857,-99.8108,0.2837,0.3926,-0.6564,0.5784,0,0,0,0,0,0,0,0,0,0,0,0,0,0,0,0,0,0,64769,0,17931,16900,0,0,0,0,52239,55042,0,0,4610,0,33796,39682,34054,0
1777289443.7908874,358697,1777289440.1255784,1777289442.1378372,1777289440.7550712,0,0,-2012.258768081665,-629.4927597045898,1,1,0.0,0.0,0.0,0.0,0.0,0.0,0.0,0.0,0.0,0.0,0.0,0.0,0.0,0.0,0.0,0.0,0.0,0.0,0.0,0.0,0.0,0.0,0.0,0.0,0.0,0.0,0.0,0.0,0.0,0.0,0.0,0.0,0.0,0.0,0.0,0.0,0.0,0.0,0.0,0.0,0.0,0.0,0.0,0.0,0.0,0.0,0.0,0.0,0.0,0.0,0.0,0.0,0.0,0.0,0.0,0.0,0.0,0.0,0.0,0.0,0.0,0.0,0.0,0.0,0.0,0.0,0.0,0.0,0.0,0.0,0.0,0.0,0.0,0.0,0.0,0.6508,9.288,0.7896,-1.3428,19.4092,-15.686,79.9146,-1.0437,-36.8701,0.6114,0.1965,-0.2479,0.7253,-0.4163,9.8431,-1.0958,75.0732,-21.2402,11.1694,84.4189,2.6038,-26.7737,0.6495,0.1719,-0.1566,0.7239,-3.7324,9.9723,-2.7563,43.2739,-28.9307,-3.8452,99.0088,3.6035,-23.5986,0.7398,0.1754,-0.1093,0.6402,-1.0719,0.7752,9.9101,2.4414,1.9531,-1.2817,2.8729,4.9384,-89.1595,-0.0124,0.0483,-0.7003,0.7121,0.0096,11.4557,-3.986,-127.3804,31.7993,30.0903,97.5586,-1.8127,-32.8601,0.7243,0.2027,-0.1978,0.6286,2.9812,4.0961,-9.9292,48.5229,-45.2271,20.5078,146.25,-10.0031,-33.5468,0.92,0.2509,-0.1633,0.2528,14.767,3.9238,47.4879,-96.1304,-93.8721,-67.5049,57.821,4.6857,-99.8108,0.2837,0.3926,-0.6564,0.5784,0,0,0,0,0,0,0,0,0,0,0,0,0,0,0,0,0,0,64769,0,17931,16900,0,0,0,0,52239,55042,0,0,4610,0,33796,39682,34054,0
1777289443.7908874,358698,1777289440.1350915,1777289442.1378372,1777289440.7550712,0,0,-2002.7456283569336,-619.9796199798584,1,1,0.0,0.0,0.0,0.0,0.0,0.0,0.0,0.0,0.0,0.0,0.0,0.0,0.0,0.0,0.0,0.0,0.0,0.0,0.0,0.0,0.0,0.0,0.0,0.0,0.0,0.0,0.0,0.0,0.0,0.0,0.0,0.0,0.0,0.0,0.0,0.0,0.0,0.0,0.0,0.0,0.0,0.0,0.0,0.0,0.0,0.0,0.0,0.0,0.0,0.0,0.0,0.0,0.0,0.0,0.0,0.0,0.0,0.0,0.0,0.0,0.0,0.0,0.0,0.0,0.0,0.0,0.0,0.0,0.0,0.0,0.0,0.0,0.0,0.0,0.0,0.6508,9.288,0.7896,-1.3428,19.4092,-15.686,79.9146,-1.0437,-36.8701,0.6114,0.1965,-0.2479,0.7253,-0.4163,9.8431,-1.0958,75.0732,-21.2402,11.1694,84.4189,2.6038,-26.7737,0.6495,0.1719,-0.1566,0.7239,-3.7324,9.9723,-2.7563,43.2739,-28.9307,-3.8452,99.0088,3.6035,-23.5986,0.7398,0.1754,-0.1093,0.6402,-1.0719,0.7752,9.9101,2.4414,1.9531,-1.2817,2.8729,4.9384,-89.1595,-0.0124,0.0483,-0.7003,0.7121,0.0096,11.4557,-3.986,-127.3804,31.7993,30.0903,97.5586,-1.8127,-32.8601,0.7243,0.2027,-0.1978,0.6286,2.9812,4.0961,-9.9292,48.5229,-45.2271,20.5078,146.25,-10.0031,-33.5468,0.92,0.2509,-0.1633,0.2528,14.767,3.9238,47.4879,-96.1304,-93.8721,-67.5049,57.821,4.6857,-99.8108,0.2837,0.3926,-0.6564,0.5784,0,0,0,0,0,0,0,0,0,0,0,0,0,0,0,0,0,0,64769,0,17931,16900,0,0,0,0,52239,55042,0,0,4610,0,33796,39682,34054,0
1777289443.7908874,358699,1777289440.1487393,1777289442.1378372,1777289440.7550712,0,0,-1989.0978336334229,-606.3318252563477,1,1,0.0,0.0,0.0,0.0,0.0,0.0,0.0,0.0,0.0,0.0,0.0,0.0,0.0,0.0,0.0,0.0,0.0,0.0,0.0,0.0,0.0,0.0,0.0,0.0,0.0,0.0,0.0,0.0,0.0,0.0,0.0,0.0,0.0,0.0,0.0,0.0,0.0,0.0,0.0,0.0,0.0,0.0,0.0,0.0,0.0,0.0,0.0,0.0,0.0,0.0,0.0,0.0,0.0,0.0,0.0,0.0,0.0,0.0,0.0,0.0,0.0,0.0,0.0,0.0,0.0,0.0,0.0,0.0,0.0,0.0,0.0,0.0,0.0,0.0,0.0,0.6508,9.288,0.7896,-1.3428,19.4092,-15.686,79.9146,-1.0437,-36.8701,0.6114,0.1965,-0.2479,0.7253,-0.4163,9.8431,-1.0958,75.0732,-21.2402,11.1694,84.4189,2.6038,-26.7737,0.6495,0.1719,-0.1566,0.7239,-3.7324,9.9723,-2.7563,43.2739,-28.9307,-3.8452,99.0088,3.6035,-23.5986,0.7398,0.1754,-0.1093,0.6402,-1.0719,0.7752,9.9101,2.4414,1.9531,-1.2817,2.8729,4.9384,-89.1595,-0.0124,0.0483,-0.7003,0.7121,0.0096,11.4557,-3.986,-127.3804,31.7993,30.0903,97.5586,-1.8127,-32.8601,0.7243,0.2027,-0.1978,0.6286,2.9812,4.0961,-9.9292,48.5229,-45.2271,20.5078,146.25,-10.0031,-33.5468,0.92,0.2509,-0.1633,0.2528,14.767,3.9238,47.4879,-96.1304,-93.8721,-67.5049,57.821,4.6857,-99.8108,0.2837,0.3926,-0.6564,0.5784,0,0,0,0,0,0,0,0,0,0,0,0,0,0,0,0,0,0,64769,0,17931,16900,0,0,0,0,52239,55042,0,0,4610,0,33796,39682,34054,0
1777289443.7908874,358700,1777289440.1551702,1777289442.1378372,1777289440.7550712,0,0,-1982.6669692993164,-599.9009609222412,1,1,0.0,0.0,0.0,0.0,0.0,0.0,0.0,0.0,0.0,0.0,0.0,0.0,0.0,0.0,0.0,0.0,0.0,0.0,0.0,0.0,0.0,0.0,0.0,0.0,0.0,0.0,0.0,0.0,0.0,0.0,0.0,0.0,0.0,0.0,0.0,0.0,0.0,0.0,0.0,0.0,0.0,0.0,0.0,0.0,0.0,0.0,0.0,0.0,0.0,0.0,0.0,0.0,0.0,0.0,0.0,0.0,0.0,0.0,0.0,0.0,0.0,0.0,0.0,0.0,0.0,0.0,0.0,0.0,0.0,0.0,0.0,0.0,0.0,0.0,0.0,0.6508,9.288,0.7896,-1.3428,19.4092,-15.686,79.9146,-1.0437,-36.8701,0.6114,0.1965,-0.2479,0.7253,-0.4163,9.8431,-1.0958,75.0732,-21.2402,11.1694,84.4189,2.6038,-26.7737,0.6495,0.1719,-0.1566,0.7239,-3.7324,9.9723,-2.7563,43.2739,-28.9307,-3.8452,99.0088,3.6035,-23.5986,0.7398,0.1754,-0.1093,0.6402,-1.0719,0.7752,9.9101,2.4414,1.9531,-1.2817,2.8729,4.9384,-89.1595,-0.0124,0.0483,-0.7003,0.7121,0.0096,11.4557,-3.986,-127.3804,31.7993,30.0903,97.5586,-1.8127,-32.8601,0.7243,0.2027,-0.1978,0.6286,2.9812,4.0961,-9.9292,48.5229,-45.2271,20.5078,146.25,-10.0031,-33.5468,0.92,0.2509,-0.1633,0.2528,14.767,3.9238,47.4879,-96.1304,-93.8721,-67.5049,57.821,4.6857,-99.8108,0.2837,0.3926,-0.6564,0.5784,0,0,0,0,0,0,0,0,0,0,0,0,0,0,0,0,0,0,64769,0,17931,16900,0,0,0,0,52239,55042,0,0,4610,0,33796,39682,34054,0
1777289443.7908874,358701,1777289440.1675143,1777289442.1378372,1777289440.7550712,0,0,-1970.322847366333,-587.5568389892578,1,1,0.0,0.0,0.0,0.0,0.0,0.0,0.0,0.0,0.0,0.0,0.0,0.0,0.0,0.0,0.0,0.0,0.0,0.0,0.0,0.0,0.0,0.0,0.0,0.0,0.0,0.0,0.0,0.0,0.0,0.0,0.0,0.0,0.0,0.0,0.0,0.0,0.0,0.0,0.0,0.0,0.0,0.0,0.0,0.0,0.0,0.0,0.0,0.0,0.0,0.0,0.0,0.0,0.0,0.0,0.0,0.0,0.0,0.0,0.0,0.0,0.0,0.0,0.0,0.0,0.0,0.0,0.0,0.0,0.0,0.0,0.0,0.0,0.0,0.0,0.0,0.6508,9.288,0.7896,-1.3428,19.4092,-15.686,79.9146,-1.0437,-36.8701,0.6114,0.1965,-0.2479,0.7253,-0.4163,9.8431,-1.0958,75.0732,-21.2402,11.1694,84.4189,2.6038,-26.7737,0.6495,0.1719,-0.1566,0.7239,-3.7324,9.9723,-2.7563,43.2739,-28.9307,-3.8452,99.0088,3.6035,-23.5986,0.7398,0.1754,-0.1093,0.6402,-1.0719,0.7752,9.9101,2.4414,1.9531,-1.2817,2.8729,4.9384,-89.1595,-0.0124,0.0483,-0.7003,0.7121,0.0096,11.4557,-3.986,-127.3804,31.7993,30.0903,97.5586,-1.8127,-32.8601,0.7243,0.2027,-0.1978,0.6286,2.9812,4.0961,-9.9292,48.5229,-45.2271,20.5078,146.25,-10.0031,-33.5468,0.92,0.2509,-0.1633,0.2528,14.767,3.9238,47.4879,-96.1304,-93.8721,-67.5049,57.821,4.6857,-99.8108,0.2837,0.3926,-0.6564,0.5784,0,0,0,0,0,0,0,0,0,0,0,0,0,0,0,0,0,0,64769,0,17931,16900,0,0,0,0,52239,55042,0,0,4610,0,33796,39682,34054,0
1777289443.7908874,358702,1777289440.1753356,1777289442.1378372,1777289440.7550712,0,0,-1962.5015258789062,-579.735517501831,1,1,0.0,0.0,0.0,0.0,0.0,0.0,0.0,0.0,0.0,0.0,0.0,0.0,0.0,0.0,0.0,0.0,0.0,0.0,0.0,0.0,0.0,0.0,0.0,0.0,0.0,0.0,0.0,0.0,0.0,0.0,0.0,0.0,0.0,0.0,0.0,0.0,0.0,0.0,0.0,0.0,0.0,0.0,0.0,0.0,0.0,0.0,0.0,0.0,0.0,0.0,0.0,0.0,0.0,0.0,0.0,0.0,0.0,0.0,0.0,0.0,0.0,0.0,0.0,0.0,0.0,0.0,0.0,0.0,0.0,0.0,0.0,0.0,0.0,0.0,0.0,0.6508,9.288,0.7896,-1.3428,19.4092,-15.686,79.9146,-1.0437,-36.8701,0.6114,0.1965,-0.2479,0.7253,-0.4163,9.8431,-1.0958,75.0732,-21.2402,11.1694,84.4189,2.6038,-26.7737,0.6495,0.1719,-0.1566,0.7239,-3.7324,9.9723,-2.7563,43.2739,-28.9307,-3.8452,99.0088,3.6035,-23.5986,0.7398,0.1754,-0.1093,0.6402,-1.0719,0.7752,9.9101,2.4414,1.9531,-1.2817,2.8729,4.9384,-89.1595,-0.0124,0.0483,-0.7003,0.7121,0.0096,11.4557,-3.986,-127.3804,31.7993,30.0903,97.5586,-1.8127,-32.8601,0.7243,0.2027,-0.1978,0.6286,2.9812,4.0961,-9.9292,48.5229,-45.2271,20.5078,146.25,-10.0031,-33.5468,0.92,0.2509,-0.1633,0.2528,14.767,3.9238,47.4879,-96.1304,-93.8721,-67.5049,57.821,4.6857,-99.8108,0.2837,0.3926,-0.6564,0.5784,0,0,0,0,0,0,0,0,0,0,0,0,0,0,0,0,0,0,64769,0,17931,16900,0,0,0,0,52239,55042,0,0,4610,0,33796,39682,34054,0
1777289443.7908874,358703,1777289440.1857047,1777289442.1378372,1777289440.7550712,0,0,-1952.1324634552002,-569.366455078125,1,1,0.0,0.0,0.0,0.0,0.0,0.0,0.0,0.0,0.0,0.0,0.0,0.0,0.0,0.0,0.0,0.0,0.0,0.0,0.0,0.0,0.0,0.0,0.0,0.0,0.0,0.0,0.0,0.0,0.0,0.0,0.0,0.0,0.0,0.0,0.0,0.0,0.0,0.0,0.0,0.0,0.0,0.0,0.0,0.0,0.0,0.0,0.0,0.0,0.0,0.0,0.0,0.0,0.0,0.0,0.0,0.0,0.0,0.0,0.0,0.0,0.0,0.0,0.0,0.0,0.0,0.0,0.0,0.0,0.0,0.0,0.0,0.0,0.0,0.0,0.0,0.6508,9.288,0.7896,-1.3428,19.4092,-15.686,79.9146,-1.0437,-36.8701,0.6114,0.1965,-0.2479,0.7253,-0.4163,9.8431,-1.0958,75.0732,-21.2402,11.1694,84.4189,2.6038,-26.7737,0.6495,0.1719,-0.1566,0.7239,-3.7324,9.9723,-2.7563,43.2739,-28.9307,-3.8452,99.0088,3.6035,-23.5986,0.7398,0.1754,-0.1093,0.6402,-1.0719,0.7752,9.9101,2.4414,1.9531,-1.2817,2.8729,4.9384,-89.1595,-0.0124,0.0483,-0.7003,0.7121,0.0096,11.4557,-3.986,-127.3804,31.7993,30.0903,97.5586,-1.8127,-32.8601,0.7243,0.2027,-0.1978,0.6286,2.9812,4.0961,-9.9292,48.5229,-45.2271,20.5078,146.25,-10.0031,-33.5468,0.92,0.2509,-0.1633,0.2528,14.767,3.9238,47.4879,-96.1304,-93.8721,-67.5049,57.821,4.6857,-99.8108,0.2837,0.3926,-0.6564,0.5784,0,0,0,0,0,0,0,0,0,0,0,0,0,0,0,0,0,0,64769,0,17931,16900,0,0,0,0,52239,55042,0,0,4610,0,33796,39682,34054,0
1777289443.7908874,358704,1777289440.194908,1777289442.1378372,1777289440.7550712,0,0,-1942.9292678833008,-560.1632595062256,1,1,0.0,0.0,0.0,0.0,0.0,0.0,0.0,0.0,0.0,0.0,0.0,0.0,0.0,0.0,0.0,0.0,0.0,0.0,0.0,0.0,0.0,0.0,0.0,0.0,0.0,0.0,0.0,0.0,0.0,0.0,0.0,0.0,0.0,0.0,0.0,0.0,0.0,0.0,0.0,0.0,0.0,0.0,0.0,0.0,0.0,0.0,0.0,0.0,0.0,0.0,0.0,0.0,0.0,0.0,0.0,0.0,0.0,0.0,0.0,0.0,0.0,0.0,0.0,0.0,0.0,0.0,0.0,0.0,0.0,0.0,0.0,0.0,0.0,0.0,0.0,0.6508,9.288,0.7896,-1.3428,19.4092,-15.686,79.9146,-1.0437,-36.8701,0.6114,0.1965,-0.2479,0.7253,-0.4163,9.8431,-1.0958,75.0732,-21.2402,11.1694,84.4189,2.6038,-26.7737,0.6495,0.1719,-0.1566,0.7239,-3.7324,9.9723,-2.7563,43.2739,-28.9307,-3.8452,99.0088,3.6035,-23.5986,0.7398,0.1754,-0.1093,0.6402,-1.0719,0.7752,9.9101,2.4414,1.9531,-1.2817,2.8729,4.9384,-89.1595,-0.0124,0.0483,-0.7003,0.7121,0.0096,11.4557,-3.986,-127.3804,31.7993,30.0903,97.5586,-1.8127,-32.8601,0.7243,0.2027,-0.1978,0.6286,2.9812,4.0961,-9.9292,48.5229,-45.2271,20.5078,146.25,-10.0031,-33.5468,0.92,0.2509,-0.1633,0.2528,14.767,3.9238,47.4879,-96.1304,-93.8721,-67.5049,57.821,4.6857,-99.8108,0.2837,0.3926,-0.6564,0.5784,0,0,0,0,0,0,0,0,0,0,0,0,0,0,0,0,0,0,64769,0,17931,16900,0,0,0,0,52239,55042,0,0,4610,0,33796,39682,34054,0
1777289443.7908874,358705,1777289440.219697,1777289442.1378372,1777289440.7550712,0,0,-1918.140172958374,-535.3741645812988,1,1,0.0,0.0,0.0,0.0,0.0,0.0,0.0,0.0,0.0,0.0,0.0,0.0,0.0,0.0,0.0,0.0,0.0,0.0,0.0,0.0,0.0,0.0,0.0,0.0,0.0,0.0,0.0,0.0,0.0,0.0,0.0,0.0,0.0,0.0,0.0,0.0,0.0,0.0,0.0,0.0,0.0,0.0,0.0,0.0,0.0,0.0,0.0,0.0,0.0,0.0,0.0,0.0,0.0,0.0,0.0,0.0,0.0,0.0,0.0,0.0,0.0,0.0,0.0,0.0,0.0,0.0,0.0,0.0,0.0,0.0,0.0,0.0,0.0,0.0,0.0,0.6508,9.288,0.7896,-1.3428,19.4092,-15.686,79.9146,-1.0437,-36.8701,0.6114,0.1965,-0.2479,0.7253,-0.4163,9.8431,-1.0958,75.0732,-21.2402,11.1694,84.4189,2.6038,-26.7737,0.6495,0.1719,-0.1566,0.7239,-3.7324,9.9723,-2.7563,43.2739,-28.9307,-3.8452,99.0088,3.6035,-23.5986,0.7398,0.1754,-0.1093,0.6402,-1.0719,0.7752,9.9101,2.4414,1.9531,-1.2817,2.8729,4.9384,-89.1595,-0.0124,0.0483,-0.7003,0.7121,0.0096,11.4557,-3.986,-127.3804,31.7993,30.0903,97.5586,-1.8127,-32.8601,0.7243,0.2027,-0.1978,0.6286,2.9812,4.0961,-9.9292,48.5229,-45.2271,20.5078,146.25,-10.0031,-33.5468,0.92,0.2509,-0.1633,0.2528,14.767,3.9238,47.4879,-96.1304,-93.8721,-67.5049,57.821,4.6857,-99.8108,0.2837,0.3926,-0.6564,0.5784,0,0,0,0,0,0,0,0,0,0,0,0,0,0,0,0,0,0,64769,0,17931,16900,0,0,0,0,52239,55042,0,0,4610,0,33796,39682,34054,0
1777289443.7908874,358706,1777289440.2211788,1777289442.1378372,1777289440.7550712,0,0,-1916.6584014892578,-533.8923931121826,1,1,0.0,0.0,0.0,0.0,0.0,0.0,0.0,0.0,0.0,0.0,0.0,0.0,0.0,0.0,0.0,0.0,0.0,0.0,0.0,0.0,0.0,0.0,0.0,0.0,0.0,0.0,0.0,0.0,0.0,0.0,0.0,0.0,0.0,0.0,0.0,0.0,0.0,0.0,0.0,0.0,0.0,0.0,0.0,0.0,0.0,0.0,0.0,0.0,0.0,0.0,0.0,0.0,0.0,0.0,0.0,0.0,0.0,0.0,0.0,0.0,0.0,0.0,0.0,0.0,0.0,0.0,0.0,0.0,0.0,0.0,0.0,0.0,0.0,0.0,0.0,0.6508,9.288,0.7896,-1.3428,19.4092,-15.686,79.9146,-1.0437,-36.8701,0.6114,0.1965,-0.2479,0.7253,-0.4163,9.8431,-1.0958,75.0732,-21.2402,11.1694,84.4189,2.6038,-26.7737,0.6495,0.1719,-0.1566,0.7239,-3.7324,9.9723,-2.7563,43.2739,-28.9307,-3.8452,99.0088,3.6035,-23.5986,0.7398,0.1754,-0.1093,0.6402,-1.0719,0.7752,9.9101,2.4414,1.9531,-1.2817,2.8729,4.9384,-89.1595,-0.0124,0.0483,-0.7003,0.7121,0.0096,11.4557,-3.986,-127.3804,31.7993,30.0903,97.5586,-1.8127,-32.8601,0.7243,0.2027,-0.1978,0.6286,2.9812,4.0961,-9.9292,48.5229,-45.2271,20.5078,146.25,-10.0031,-33.5468,0.92,0.2509,-0.1633,0.2528,14.767,3.9238,47.4879,-96.1304,-93.8721,-67.5049,57.821,4.6857,-99.8108,0.2837,0.3926,-0.6564,0.5784,0,0,0,0,0,0,0,0,0,0,0,0,0,0,0,0,0,0,64769,0,17931,16900,0,0,0,0,52239,55042,0,0,4610,0,33796,39682,34054,0
1777289443.7908874,358707,1777289440.2237573,1777289442.1378372,1777289440.7550712,0,0,-1914.0799045562744,-531.3138961791992,1,1,0.0,0.0,0.0,0.0,0.0,0.0,0.0,0.0,0.0,0.0,0.0,0.0,0.0,0.0,0.0,0.0,0.0,0.0,0.0,0.0,0.0,0.0,0.0,0.0,0.0,0.0,0.0,0.0,0.0,0.0,0.0,0.0,0.0,0.0,0.0,0.0,0.0,0.0,0.0,0.0,0.0,0.0,0.0,0.0,0.0,0.0,0.0,0.0,0.0,0.0,0.0,0.0,0.0,0.0,0.0,0.0,0.0,0.0,0.0,0.0,0.0,0.0,0.0,0.0,0.0,0.0,0.0,0.0,0.0,0.0,0.0,0.0,0.0,0.0,0.0,0.6508,9.288,0.7896,-1.3428,19.4092,-15.686,79.9146,-1.0437,-36.8701,0.6114,0.1965,-0.2479,0.7253,-0.4163,9.8431,-1.0958,75.0732,-21.2402,11.1694,84.4189,2.6038,-26.7737,0.6495,0.1719,-0.1566,0.7239,-3.7324,9.9723,-2.7563,43.2739,-28.9307,-3.8452,99.0088,3.6035,-23.5986,0.7398,0.1754,-0.1093,0.6402,-1.0719,0.7752,9.9101,2.4414,1.9531,-1.2817,2.8729,4.9384,-89.1595,-0.0124,0.0483,-0.7003,0.7121,0.0096,11.4557,-3.986,-127.3804,31.7993,30.0903,97.5586,-1.8127,-32.8601,0.7243,0.2027,-0.1978,0.6286,2.9812,4.0961,-9.9292,48.5229,-45.2271,20.5078,146.25,-10.0031,-33.5468,0.92,0.2509,-0.1633,0.2528,14.767,3.9238,47.4879,-96.1304,-93.8721,-67.5049,57.821,4.6857,-99.8108,0.2837,0.3926,-0.6564,0.5784,0,0,0,0,0,0,0,0,0,0,0,0,0,0,0,0,0,0,64769,0,17931,16900,0,0,0,0,52239,55042,0,0,4610,0,33796,39682,34054,0
1777289443.7920434,358708,1777289440.2358487,1777289442.1378372,1777289440.7550712,0,0,-1901.9885063171387,-519.2224979400635,1,1,0.0,0.0,0.0,0.0,0.0,0.0,0.0,0.0,0.0,0.0,0.0,0.0,0.0,0.0,0.0,0.0,0.0,0.0,0.0,0.0,0.0,0.0,0.0,0.0,0.0,0.0,0.0,0.0,0.0,0.0,0.0,0.0,0.0,0.0,0.0,0.0,0.0,0.0,0.0,0.0,0.0,0.0,0.0,0.0,0.0,0.0,0.0,0.0,0.0,0.0,0.0,0.0,0.0,0.0,0.0,0.0,0.0,0.0,0.0,0.0,0.0,0.0,0.0,0.0,0.0,0.0,0.0,0.0,0.0,0.0,0.0,0.0,0.0,0.0,0.0,0.6508,9.288,0.7896,-1.3428,19.4092,-15.686,79.9146,-1.0437,-36.8701,0.6114,0.1965,-0.2479,0.7253,-0.4163,9.8431,-1.0958,75.0732,-21.2402,11.1694,84.4189,2.6038,-26.7737,0.6495,0.1719,-0.1566,0.7239,-3.7324,9.9723,-2.7563,43.2739,-28.9307,-3.8452,99.0088,3.6035,-23.5986,0.7398,0.1754,-0.1093,0.6402,-1.0719,0.7752,9.9101,2.4414,1.9531,-1.2817,2.8729,4.9384,-89.1595,-0.0124,0.0483,-0.7003,0.7121,0.0096,11.4557,-3.986,-127.3804,31.7993,30.0903,97.5586,-1.8127,-32.8601,0.7243,0.2027,-0.1978,0.6286,2.9812,4.0961,-9.9292,48.5229,-45.2271,20.5078,146.25,-10.0031,-33.5468,0.92,0.2509,-0.1633,0.2528,14.767,3.9238,47.4879,-96.1304,-93.8721,-67.5049,57.821,4.6857,-99.8108,0.2837,0.3926,-0.6564,0.5784,0,0,0,0,0,0,0,0,0,0,0,0,0,0,0,0,0,0,64769,0,17931,16900,0,0,0,0,52239,55042,0,0,4610,0,33796,39682,34054,0
1777289443.7920434,358709,1777289440.2451897,1777289442.1378372,1777289440.7550712,0,0,-1892.6475048065186,-509.88149642944336,1,1,0.0,0.0,0.0,0.0,0.0,0.0,0.0,0.0,0.0,0.0,0.0,0.0,0.0,0.0,0.0,0.0,0.0,0.0,0.0,0.0,0.0,0.0,0.0,0.0,0.0,0.0,0.0,0.0,0.0,0.0,0.0,0.0,0.0,0.0,0.0,0.0,0.0,0.0,0.0,0.0,0.0,0.0,0.0,0.0,0.0,0.0,0.0,0.0,0.0,0.0,0.0,0.0,0.0,0.0,0.0,0.0,0.0,0.0,0.0,0.0,0.0,0.0,0.0,0.0,0.0,0.0,0.0,0.0,0.0,0.0,0.0,0.0,0.0,0.0,0.0,0.6508,9.288,0.7896,-1.3428,19.4092,-15.686,79.9146,-1.0437,-36.8701,0.6114,0.1965,-0.2479,0.7253,-0.4163,9.8431,-1.0958,75.0732,-21.2402,11.1694,84.4189,2.6038,-26.7737,0.6495,0.1719,-0.1566,0.7239,-3.7324,9.9723,-2.7563,43.2739,-28.9307,-3.8452,99.0088,3.6035,-23.5986,0.7398,0.1754,-0.1093,0.6402,-1.0719,0.7752,9.9101,2.4414,1.9531,-1.2817,2.8729,4.9384,-89.1595,-0.0124,0.0483,-0.7003,0.7121,0.0096,11.4557,-3.986,-127.3804,31.7993,30.0903,97.5586,-1.8127,-32.8601,0.7243,0.2027,-0.1978,0.6286,2.9812,4.0961,-9.9292,48.5229,-45.2271,20.5078,146.25,-10.0031,-33.5468,0.92,0.2509,-0.1633,0.2528,14.767,3.9238,47.4879,-96.1304,-93.8721,-67.5049,57.821,4.6857,-99.8108,0.2837,0.3926,-0.6564,0.5784,0,0,0,0,0,0,0,0,0,0,0,0,0,0,0,0,0,0,64769,0,17931,16900,0,0,0,0,52239,55042,0,0,4610,0,33796,39682,34054,0
1777289443.7920434,358710,1777289440.2587035,1777289442.1378372,1777289440.7550712,0,0,-1879.133701324463,-496.3676929473877,1,1,0.0,0.0,0.0,0.0,0.0,0.0,0.0,0.0,0.0,0.0,0.0,0.0,0.0,0.0,0.0,0.0,0.0,0.0,0.0,0.0,0.0,0.0,0.0,0.0,0.0,0.0,0.0,0.0,0.0,0.0,0.0,0.0,0.0,0.0,0.0,0.0,0.0,0.0,0.0,0.0,0.0,0.0,0.0,0.0,0.0,0.0,0.0,0.0,0.0,0.0,0.0,0.0,0.0,0.0,0.0,0.0,0.0,0.0,0.0,0.0,0.0,0.0,0.0,0.0,0.0,0.0,0.0,0.0,0.0,0.0,0.0,0.0,0.0,0.0,0.0,0.6508,9.288,0.7896,-1.3428,19.4092,-15.686,79.9146,-1.0437,-36.8701,0.6114,0.1965,-0.2479,0.7253,-0.4163,9.8431,-1.0958,75.0732,-21.2402,11.1694,84.4189,2.6038,-26.7737,0.6495,0.1719,-0.1566,0.7239,-3.7324,9.9723,-2.7563,43.2739,-28.9307,-3.8452,99.0088,3.6035,-23.5986,0.7398,0.1754,-0.1093,0.6402,-1.0719,0.7752,9.9101,2.4414,1.9531,-1.2817,2.8729,4.9384,-89.1595,-0.0124,0.0483,-0.7003,0.7121,0.0096,11.4557,-3.986,-127.3804,31.7993,30.0903,97.5586,-1.8127,-32.8601,0.7243,0.2027,-0.1978,0.6286,2.9812,4.0961,-9.9292,48.5229,-45.2271,20.5078,146.25,-10.0031,-33.5468,0.92,0.2509,-0.1633,0.2528,14.767,3.9238,47.4879,-96.1304,-93.8721,-67.5049,57.821,4.6857,-99.8108,0.2837,0.3926,-0.6564,0.5784,0,0,0,0,0,0,0,0,0,0,0,0,0,0,0,0,0,0,64769,0,17931,16900,0,0,0,0,52239,55042,0,0,4610,0,33796,39682,34054,0
1777289443.7920434,358711,1777289440.2651062,1777289442.1378372,1777289440.7550712,0,0,-1872.7309703826904,-489.96496200561523,1,1,0.0,0.0,0.0,0.0,0.0,0.0,0.0,0.0,0.0,0.0,0.0,0.0,0.0,0.0,0.0,0.0,0.0,0.0,0.0,0.0,0.0,0.0,0.0,0.0,0.0,0.0,0.0,0.0,0.0,0.0,0.0,0.0,0.0,0.0,0.0,0.0,0.0,0.0,0.0,0.0,0.0,0.0,0.0,0.0,0.0,0.0,0.0,0.0,0.0,0.0,0.0,0.0,0.0,0.0,0.0,0.0,0.0,0.0,0.0,0.0,0.0,0.0,0.0,0.0,0.0,0.0,0.0,0.0,0.0,0.0,0.0,0.0,0.0,0.0,0.0,0.6508,9.288,0.7896,-1.3428,19.4092,-15.686,79.9146,-1.0437,-36.8701,0.6114,0.1965,-0.2479,0.7253,-0.4163,9.8431,-1.0958,75.0732,-21.2402,11.1694,84.4189,2.6038,-26.7737,0.6495,0.1719,-0.1566,0.7239,-3.7324,9.9723,-2.7563,43.2739,-28.9307,-3.8452,99.0088,3.6035,-23.5986,0.7398,0.1754,-0.1093,0.6402,-1.0719,0.7752,9.9101,2.4414,1.9531,-1.2817,2.8729,4.9384,-89.1595,-0.0124,0.0483,-0.7003,0.7121,0.0096,11.4557,-3.986,-127.3804,31.7993,30.0903,97.5586,-1.8127,-32.8601,0.7243,0.2027,-0.1978,0.6286,2.9812,4.0961,-9.9292,48.5229,-45.2271,20.5078,146.25,-10.0031,-33.5468,0.92,0.2509,-0.1633,0.2528,14.767,3.9238,47.4879,-96.1304,-93.8721,-67.5049,57.821,4.6857,-99.8108,0.2837,0.3926,-0.6564,0.5784,0,0,0,0,0,0,0,0,0,0,0,0,0,0,0,0,0,0,64769,0,17931,16900,0,0,0,0,52239,55042,0,0,4610,0,33796,39682,34054,0
1777289443.7920434,358712,1777289440.2759717,1777289442.1378372,1777289440.7550712,0,0,-1861.865520477295,-479.0995121002197,1,1,0.0,0.0,0.0,0.0,0.0,0.0,0.0,0.0,0.0,0.0,0.0,0.0,0.0,0.0,0.0,0.0,0.0,0.0,0.0,0.0,0.0,0.0,0.0,0.0,0.0,0.0,0.0,0.0,0.0,0.0,0.0,0.0,0.0,0.0,0.0,0.0,0.0,0.0,0.0,0.0,0.0,0.0,0.0,0.0,0.0,0.0,0.0,0.0,0.0,0.0,0.0,0.0,0.0,0.0,0.0,0.0,0.0,0.0,0.0,0.0,0.0,0.0,0.0,0.0,0.0,0.0,0.0,0.0,0.0,0.0,0.0,0.0,0.0,0.0,0.0,0.6508,9.288,0.7896,-1.3428,19.4092,-15.686,79.9146,-1.0437,-36.8701,0.6114,0.1965,-0.2479,0.7253,-0.4163,9.8431,-1.0958,75.0732,-21.2402,11.1694,84.4189,2.6038,-26.7737,0.6495,0.1719,-0.1566,0.7239,-3.7324,9.9723,-2.7563,43.2739,-28.9307,-3.8452,99.0088,3.6035,-23.5986,0.7398,0.1754,-0.1093,0.6402,-1.0719,0.7752,9.9101,2.4414,1.9531,-1.2817,2.8729,4.9384,-89.1595,-0.0124,0.0483,-0.7003,0.7121,0.0096,11.4557,-3.986,-127.3804,31.7993,30.0903,97.5586,-1.8127,-32.8601,0.7243,0.2027,-0.1978,0.6286,2.9812,4.0961,-9.9292,48.5229,-45.2271,20.5078,146.25,-10.0031,-33.5468,0.92,0.2509,-0.1633,0.2528,14.767,3.9238,47.4879,-96.1304,-93.8721,-67.5049,57.821,4.6857,-99.8108,0.2837,0.3926,-0.6564,0.5784,0,0,0,0,0,0,0,0,0,0,0,0,0,0,0,0,0,0,64769,0,17931,16900,0,0,0,0,52239,55042,0,0,4610,0,33796,39682,34054,0
1777289443.7920434,358713,1777289440.2859206,1777289442.1378372,1777289440.7550712,0,0,-1851.9165515899658,-469.1505432128906,1,1,0.0,0.0,0.0,0.0,0.0,0.0,0.0,0.0,0.0,0.0,0.0,0.0,0.0,0.0,0.0,0.0,0.0,0.0,0.0,0.0,0.0,0.0,0.0,0.0,0.0,0.0,0.0,0.0,0.0,0.0,0.0,0.0,0.0,0.0,0.0,0.0,0.0,0.0,0.0,0.0,0.0,0.0,0.0,0.0,0.0,0.0,0.0,0.0,0.0,0.0,0.0,0.0,0.0,0.0,0.0,0.0,0.0,0.0,0.0,0.0,0.0,0.0,0.0,0.0,0.0,0.0,0.0,0.0,0.0,0.0,0.0,0.0,0.0,0.0,0.0,0.6508,9.288,0.7896,-1.3428,19.4092,-15.686,79.9146,-1.0437,-36.8701,0.6114,0.1965,-0.2479,0.7253,-0.4163,9.8431,-1.0958,75.0732,-21.2402,11.1694,84.4189,2.6038,-26.7737,0.6495,0.1719,-0.1566,0.7239,-3.7324,9.9723,-2.7563,43.2739,-28.9307,-3.8452,99.0088,3.6035,-23.5986,0.7398,0.1754,-0.1093,0.6402,-1.0719,0.7752,9.9101,2.4414,1.9531,-1.2817,2.8729,4.9384,-89.1595,-0.0124,0.0483,-0.7003,0.7121,0.0096,11.4557,-3.986,-127.3804,31.7993,30.0903,97.5586,-1.8127,-32.8601,0.7243,0.2027,-0.1978,0.6286,2.9812,4.0961,-9.9292,48.5229,-45.2271,20.5078,146.25,-10.0031,-33.5468,0.92,0.2509,-0.1633,0.2528,14.767,3.9238,47.4879,-96.1304,-93.8721,-67.5049,57.821,4.6857,-99.8108,0.2837,0.3926,-0.6564,0.5784,0,0,0,0,0,0,0,0,0,0,0,0,0,0,0,0,0,0,64769,0,17931,16900,0,0,0,0,52239,55042,0,0,4610,0,33796,39682,34054,0
1777289443.7920434,358714,1777289440.295823,1777289442.1378372,1777289440.7550712,0,0,-1842.0140743255615,-459.2480659484863,1,1,0.0,0.0,0.0,0.0,0.0,0.0,0.0,0.0,0.0,0.0,0.0,0.0,0.0,0.0,0.0,0.0,0.0,0.0,0.0,0.0,0.0,0.0,0.0,0.0,0.0,0.0,0.0,0.0,0.0,0.0,0.0,0.0,0.0,0.0,0.0,0.0,0.0,0.0,0.0,0.0,0.0,0.0,0.0,0.0,0.0,0.0,0.0,0.0,0.0,0.0,0.0,0.0,0.0,0.0,0.0,0.0,0.0,0.0,0.0,0.0,0.0,0.0,0.0,0.0,0.0,0.0,0.0,0.0,0.0,0.0,0.0,0.0,0.0,0.0,0.0,0.6508,9.288,0.7896,-1.3428,19.4092,-15.686,79.9146,-1.0437,-36.8701,0.6114,0.1965,-0.2479,0.7253,-0.4163,9.8431,-1.0958,75.0732,-21.2402,11.1694,84.4189,2.6038,-26.7737,0.6495,0.1719,-0.1566,0.7239,-3.7324,9.9723,-2.7563,43.2739,-28.9307,-3.8452,99.0088,3.6035,-23.5986,0.7398,0.1754,-0.1093,0.6402,-1.0719,0.7752,9.9101,2.4414,1.9531,-1.2817,2.8729,4.9384,-89.1595,-0.0124,0.0483,-0.7003,0.7121,0.0096,11.4557,-3.986,-127.3804,31.7993,30.0903,97.5586,-1.8127,-32.8601,0.7243,0.2027,-0.1978,0.6286,2.9812,4.0961,-9.9292,48.5229,-45.2271,20.5078,146.25,-10.0031,-33.5468,0.92,0.2509,-0.1633,0.2528,14.767,3.9238,47.4879,-96.1304,-93.8721,-67.5049,57.821,4.6857,-99.8108,0.2837,0.3926,-0.6564,0.5784,0,0,0,0,0,0,0,0,0,0,0,0,0,0,0,0,0,0,64769,0,17931,16900,0,0,0,0,52239,55042,0,0,4610,0,33796,39682,34054,0
1777289443.7920434,358715,1777289440.305048,1777289442.1378372,1777289440.7550712,0,0,-1832.7891826629639,-450.0231742858887,1,1,0.0,0.0,0.0,0.0,0.0,0.0,0.0,0.0,0.0,0.0,0.0,0.0,0.0,0.0,0.0,0.0,0.0,0.0,0.0,0.0,0.0,0.0,0.0,0.0,0.0,0.0,0.0,0.0,0.0,0.0,0.0,0.0,0.0,0.0,0.0,0.0,0.0,0.0,0.0,0.0,0.0,0.0,0.0,0.0,0.0,0.0,0.0,0.0,0.0,0.0,0.0,0.0,0.0,0.0,0.0,0.0,0.0,0.0,0.0,0.0,0.0,0.0,0.0,0.0,0.0,0.0,0.0,0.0,0.0,0.0,0.0,0.0,0.0,0.0,0.0,0.6508,9.288,0.7896,-1.3428,19.4092,-15.686,79.9146,-1.0437,-36.8701,0.6114,0.1965,-0.2479,0.7253,-0.4163,9.8431,-1.0958,75.0732,-21.2402,11.1694,84.4189,2.6038,-26.7737,0.6495,0.1719,-0.1566,0.7239,-3.7324,9.9723,-2.7563,43.2739,-28.9307,-3.8452,99.0088,3.6035,-23.5986,0.7398,0.1754,-0.1093,0.6402,-1.0719,0.7752,9.9101,2.4414,1.9531,-1.2817,2.8729,4.9384,-89.1595,-0.0124,0.0483,-0.7003,0.7121,0.0096,11.4557,-3.986,-127.3804,31.7993,30.0903,97.5586,-1.8127,-32.8601,0.7243,0.2027,-0.1978,0.6286,2.9812,4.0961,-9.9292,48.5229,-45.2271,20.5078,146.25,-10.0031,-33.5468,0.92,0.2509,-0.1633,0.2528,14.767,3.9238,47.4879,-96.1304,-93.8721,-67.5049,57.821,4.6857,-99.8108,0.2837,0.3926,-0.6564,0.5784,0,0,0,0,0,0,0,0,0,0,0,0,0,0,0,0,0,0,64769,0,17931,16900,0,0,0,0,52239,55042,0,0,4610,0,33796,39682,34054,0
1777289443.7920434,358716,1777289440.3278635,1777289442.1378372,1777289440.7550712,0,0,-1809.9737167358398,-427.20770835876465,1,1,0.0,0.0,0.0,0.0,0.0,0.0,0.0,0.0,0.0,0.0,0.0,0.0,0.0,0.0,0.0,0.0,0.0,0.0,0.0,0.0,0.0,0.0,0.0,0.0,0.0,0.0,0.0,0.0,0.0,0.0,0.0,0.0,0.0,0.0,0.0,0.0,0.0,0.0,0.0,0.0,0.0,0.0,0.0,0.0,0.0,0.0,0.0,0.0,0.0,0.0,0.0,0.0,0.0,0.0,0.0,0.0,0.0,0.0,0.0,0.0,0.0,0.0,0.0,0.0,0.0,0.0,0.0,0.0,0.0,0.0,0.0,0.0,0.0,0.0,0.0,0.6508,9.288,0.7896,-1.3428,19.4092,-15.686,79.9146,-1.0437,-36.8701,0.6114,0.1965,-0.2479,0.7253,-0.4163,9.8431,-1.0958,75.0732,-21.2402,11.1694,84.4189,2.6038,-26.7737,0.6495,0.1719,-0.1566,0.7239,-3.7324,9.9723,-2.7563,43.2739,-28.9307,-3.8452,99.0088,3.6035,-23.5986,0.7398,0.1754,-0.1093,0.6402,-1.0719,0.7752,9.9101,2.4414,1.9531,-1.2817,2.8729,4.9384,-89.1595,-0.0124,0.0483,-0.7003,0.7121,0.0096,11.4557,-3.986,-127.3804,31.7993,30.0903,97.5586,-1.8127,-32.8601,0.7243,0.2027,-0.1978,0.6286,2.9812,4.0961,-9.9292,48.5229,-45.2271,20.5078,146.25,-10.0031,-33.5468,0.92,0.2509,-0.1633,0.2528,14.767,3.9238,47.4879,-96.1304,-93.8721,-67.5049,57.821,4.6857,-99.8108,0.2837,0.3926,-0.6564,0.5784,0,0,0,0,0,0,0,0,0,0,0,0,0,0,0,0,0,0,64769,0,17931,16900,0,0,0,0,52239,55042,0,0,4610,0,33796,39682,34054,0
1777289443.7920434,358717,1777289440.329989,1777289442.1378372,1777289440.7550712,0,0,-1807.8482151031494,-425.0822067260742,1,1,0.0,0.0,0.0,0.0,0.0,0.0,0.0,0.0,0.0,0.0,0.0,0.0,0.0,0.0,0.0,0.0,0.0,0.0,0.0,0.0,0.0,0.0,0.0,0.0,0.0,0.0,0.0,0.0,0.0,0.0,0.0,0.0,0.0,0.0,0.0,0.0,0.0,0.0,0.0,0.0,0.0,0.0,0.0,0.0,0.0,0.0,0.0,0.0,0.0,0.0,0.0,0.0,0.0,0.0,0.0,0.0,0.0,0.0,0.0,0.0,0.0,0.0,0.0,0.0,0.0,0.0,0.0,0.0,0.0,0.0,0.0,0.0,0.0,0.0,0.0,0.6508,9.288,0.7896,-1.3428,19.4092,-15.686,79.9146,-1.0437,-36.8701,0.6114,0.1965,-0.2479,0.7253,-0.4163,9.8431,-1.0958,75.0732,-21.2402,11.1694,84.4189,2.6038,-26.7737,0.6495,0.1719,-0.1566,0.7239,-3.7324,9.9723,-2.7563,43.2739,-28.9307,-3.8452,99.0088,3.6035,-23.5986,0.7398,0.1754,-0.1093,0.6402,-1.0719,0.7752,9.9101,2.4414,1.9531,-1.2817,2.8729,4.9384,-89.1595,-0.0124,0.0483,-0.7003,0.7121,0.0096,11.4557,-3.986,-127.3804,31.7993,30.0903,97.5586,-1.8127,-32.8601,0.7243,0.2027,-0.1978,0.6286,2.9812,4.0961,-9.9292,48.5229,-45.2271,20.5078,146.25,-10.0031,-33.5468,0.92,0.2509,-0.1633,0.2528,14.767,3.9238,47.4879,-96.1304,-93.8721,-67.5049,57.821,4.6857,-99.8108,0.2837,0.3926,-0.6564,0.5784,0,0,0,0,0,0,0,0,0,0,0,0,0,0,0,0,0,0,64769,0,17931,16900,0,0,0,0,52239,55042,0,0,4610,0,33796,39682,34054,0
1777289443.7920434,358718,1777289440.3348475,1777289442.1378372,1777289440.7550712,0,0,-1802.9897212982178,-420.2237129211426,1,1,0.0,0.0,0.0,0.0,0.0,0.0,0.0,0.0,0.0,0.0,0.0,0.0,0.0,0.0,0.0,0.0,0.0,0.0,0.0,0.0,0.0,0.0,0.0,0.0,0.0,0.0,0.0,0.0,0.0,0.0,0.0,0.0,0.0,0.0,0.0,0.0,0.0,0.0,0.0,0.0,0.0,0.0,0.0,0.0,0.0,0.0,0.0,0.0,0.0,0.0,0.0,0.0,0.0,0.0,0.0,0.0,0.0,0.0,0.0,0.0,0.0,0.0,0.0,0.0,0.0,0.0,0.0,0.0,0.0,0.0,0.0,0.0,0.0,0.0,0.0,0.6508,9.288,0.7896,-1.3428,19.4092,-15.686,79.9146,-1.0437,-36.8701,0.6114,0.1965,-0.2479,0.7253,-0.4163,9.8431,-1.0958,75.0732,-21.2402,11.1694,84.4189,2.6038,-26.7737,0.6495,0.1719,-0.1566,0.7239,-3.7324,9.9723,-2.7563,43.2739,-28.9307,-3.8452,99.0088,3.6035,-23.5986,0.7398,0.1754,-0.1093,0.6402,-1.0719,0.7752,9.9101,2.4414,1.9531,-1.2817,2.8729,4.9384,-89.1595,-0.0124,0.0483,-0.7003,0.7121,0.0096,11.4557,-3.986,-127.3804,31.7993,30.0903,97.5586,-1.8127,-32.8601,0.7243,0.2027,-0.1978,0.6286,2.9812,4.0961,-9.9292,48.5229,-45.2271,20.5078,146.25,-10.0031,-33.5468,0.92,0.2509,-0.1633,0.2528,14.767,3.9238,47.4879,-96.1304,-93.8721,-67.5049,57.821,4.6857,-99.8108,0.2837,0.3926,-0.6564,0.5784,0,0,0,0,0,0,0,0,0,0,0,0,0,0,0,0,0,0,64769,0,17931,16900,0,0,0,0,52239,55042,0,0,4610,0,33796,39682,34054,0
1777289443.7930436,358719,1777289440.349373,1777289442.1378372,1777289440.7550712,0,0,-1788.464069366455,-405.6980609893799,1,1,0.0,0.0,0.0,0.0,0.0,0.0,0.0,0.0,0.0,0.0,0.0,0.0,0.0,0.0,0.0,0.0,0.0,0.0,0.0,0.0,0.0,0.0,0.0,0.0,0.0,0.0,0.0,0.0,0.0,0.0,0.0,0.0,0.0,0.0,0.0,0.0,0.0,0.0,0.0,0.0,0.0,0.0,0.0,0.0,0.0,0.0,0.0,0.0,0.0,0.0,0.0,0.0,0.0,0.0,0.0,0.0,0.0,0.0,0.0,0.0,0.0,0.0,0.0,0.0,0.0,0.0,0.0,0.0,0.0,0.0,0.0,0.0,0.0,0.0,0.0,0.6508,9.288,0.7896,-1.3428,19.4092,-15.686,79.9146,-1.0437,-36.8701,0.6114,0.1965,-0.2479,0.7253,-0.4163,9.8431,-1.0958,75.0732,-21.2402,11.1694,84.4189,2.6038,-26.7737,0.6495,0.1719,-0.1566,0.7239,-3.7324,9.9723,-2.7563,43.2739,-28.9307,-3.8452,99.0088,3.6035,-23.5986,0.7398,0.1754,-0.1093,0.6402,-1.0719,0.7752,9.9101,2.4414,1.9531,-1.2817,2.8729,4.9384,-89.1595,-0.0124,0.0483,-0.7003,0.7121,0.0096,11.4557,-3.986,-127.3804,31.7993,30.0903,97.5586,-1.8127,-32.8601,0.7243,0.2027,-0.1978,0.6286,2.9812,4.0961,-9.9292,48.5229,-45.2271,20.5078,146.25,-10.0031,-33.5468,0.92,0.2509,-0.1633,0.2528,14.767,3.9238,47.4879,-96.1304,-93.8721,-67.5049,57.821,4.6857,-99.8108,0.2837,0.3926,-0.6564,0.5784,0,0,0,0,0,0,0,0,0,0,0,0,0,0,0,0,0,0,64769,0,17931,16900,0,0,0,0,52239,55042,0,0,4610,0,33796,39682,34054,0
1777289443.7930436,358720,1777289440.3549864,1777289442.1378372,1777289440.7550712,0,0,-1782.850742340088,-400.0847339630127,1,1,0.0,0.0,0.0,0.0,0.0,0.0,0.0,0.0,0.0,0.0,0.0,0.0,0.0,0.0,0.0,0.0,0.0,0.0,0.0,0.0,0.0,0.0,0.0,0.0,0.0,0.0,0.0,0.0,0.0,0.0,0.0,0.0,0.0,0.0,0.0,0.0,0.0,0.0,0.0,0.0,0.0,0.0,0.0,0.0,0.0,0.0,0.0,0.0,0.0,0.0,0.0,0.0,0.0,0.0,0.0,0.0,0.0,0.0,0.0,0.0,0.0,0.0,0.0,0.0,0.0,0.0,0.0,0.0,0.0,0.0,0.0,0.0,0.0,0.0,0.0,0.6508,9.288,0.7896,-1.3428,19.4092,-15.686,79.9146,-1.0437,-36.8701,0.6114,0.1965,-0.2479,0.7253,-0.4163,9.8431,-1.0958,75.0732,-21.2402,11.1694,84.4189,2.6038,-26.7737,0.6495,0.1719,-0.1566,0.7239,-3.7324,9.9723,-2.7563,43.2739,-28.9307,-3.8452,99.0088,3.6035,-23.5986,0.7398,0.1754,-0.1093,0.6402,-1.0719,0.7752,9.9101,2.4414,1.9531,-1.2817,2.8729,4.9384,-89.1595,-0.0124,0.0483,-0.7003,0.7121,0.0096,11.4557,-3.986,-127.3804,31.7993,30.0903,97.5586,-1.8127,-32.8601,0.7243,0.2027,-0.1978,0.6286,2.9812,4.0961,-9.9292,48.5229,-45.2271,20.5078,146.25,-10.0031,-33.5468,0.92,0.2509,-0.1633,0.2528,14.767,3.9238,47.4879,-96.1304,-93.8721,-67.5049,57.821,4.6857,-99.8108,0.2837,0.3926,-0.6564,0.5784,0,0,0,0,0,0,0,0,0,0,0,0,0,0,0,0,0,0,64769,0,17931,16900,0,0,0,0,52239,55042,0,0,4610,0,33796,39682,34054,0
1777289443.7930436,358721,1777289440.365686,1777289442.1378372,1777289440.7550712,0,0,-1772.151231765747,-389.3852233886719,1,1,0.0,0.0,0.0,0.0,0.0,0.0,0.0,0.0,0.0,0.0,0.0,0.0,0.0,0.0,0.0,0.0,0.0,0.0,0.0,0.0,0.0,0.0,0.0,0.0,0.0,0.0,0.0,0.0,0.0,0.0,0.0,0.0,0.0,0.0,0.0,0.0,0.0,0.0,0.0,0.0,0.0,0.0,0.0,0.0,0.0,0.0,0.0,0.0,0.0,0.0,0.0,0.0,0.0,0.0,0.0,0.0,0.0,0.0,0.0,0.0,0.0,0.0,0.0,0.0,0.0,0.0,0.0,0.0,0.0,0.0,0.0,0.0,0.0,0.0,0.0,0.6508,9.288,0.7896,-1.3428,19.4092,-15.686,79.9146,-1.0437,-36.8701,0.6114,0.1965,-0.2479,0.7253,-0.4163,9.8431,-1.0958,75.0732,-21.2402,11.1694,84.4189,2.6038,-26.7737,0.6495,0.1719,-0.1566,0.7239,-3.7324,9.9723,-2.7563,43.2739,-28.9307,-3.8452,99.0088,3.6035,-23.5986,0.7398,0.1754,-0.1093,0.6402,-1.0719,0.7752,9.9101,2.4414,1.9531,-1.2817,2.8729,4.9384,-89.1595,-0.0124,0.0483,-0.7003,0.7121,0.0096,11.4557,-3.986,-127.3804,31.7993,30.0903,97.5586,-1.8127,-32.8601,0.7243,0.2027,-0.1978,0.6286,2.9812,4.0961,-9.9292,48.5229,-45.2271,20.5078,146.25,-10.0031,-33.5468,0.92,0.2509,-0.1633,0.2528,14.767,3.9238,47.4879,-96.1304,-93.8721,-67.5049,57.821,4.6857,-99.8108,0.2837,0.3926,-0.6564,0.5784,0,0,0,0,0,0,0,0,0,0,0,0,0,0,0,0,0,0,64769,0,17931,16900,0,0,0,0,52239,55042,0,0,4610,0,33796,39682,34054,0
1777289443.7930436,358722,1777289440.3751245,1777289442.1378372,1777289440.7550712,0,0,-1762.7127170562744,-379.9467086791992,1,1,0.0,0.0,0.0,0.0,0.0,0.0,0.0,0.0,0.0,0.0,0.0,0.0,0.0,0.0,0.0,0.0,0.0,0.0,0.0,0.0,0.0,0.0,0.0,0.0,0.0,0.0,0.0,0.0,0.0,0.0,0.0,0.0,0.0,0.0,0.0,0.0,0.0,0.0,0.0,0.0,0.0,0.0,0.0,0.0,0.0,0.0,0.0,0.0,0.0,0.0,0.0,0.0,0.0,0.0,0.0,0.0,0.0,0.0,0.0,0.0,0.0,0.0,0.0,0.0,0.0,0.0,0.0,0.0,0.0,0.0,0.0,0.0,0.0,0.0,0.0,0.6508,9.288,0.7896,-1.3428,19.4092,-15.686,79.9146,-1.0437,-36.8701,0.6114,0.1965,-0.2479,0.7253,-0.4163,9.8431,-1.0958,75.0732,-21.2402,11.1694,84.4189,2.6038,-26.7737,0.6495,0.1719,-0.1566,0.7239,-3.7324,9.9723,-2.7563,43.2739,-28.9307,-3.8452,99.0088,3.6035,-23.5986,0.7398,0.1754,-0.1093,0.6402,-1.0719,0.7752,9.9101,2.4414,1.9531,-1.2817,2.8729,4.9384,-89.1595,-0.0124,0.0483,-0.7003,0.7121,0.0096,11.4557,-3.986,-127.3804,31.7993,30.0903,97.5586,-1.8127,-32.8601,0.7243,0.2027,-0.1978,0.6286,2.9812,4.0961,-9.9292,48.5229,-45.2271,20.5078,146.25,-10.0031,-33.5468,0.92,0.2509,-0.1633,0.2528,14.767,3.9238,47.4879,-96.1304,-93.8721,-67.5049,57.821,4.6857,-99.8108,0.2837,0.3926,-0.6564,0.5784,0,0,0,0,0,0,0,0,0,0,0,0,0,0,0,0,0,0,64769,0,17931,16900,0,0,0,0,52239,55042,0,0,4610,0,33796,39682,34054,0
1777289443.7930436,358723,1777289440.3859396,1777289442.1378372,1777289440.7550712,0,0,-1751.8975734710693,-369.13156509399414,1,1,0.0,0.0,0.0,0.0,0.0,0.0,0.0,0.0,0.0,0.0,0.0,0.0,0.0,0.0,0.0,0.0,0.0,0.0,0.0,0.0,0.0,0.0,0.0,0.0,0.0,0.0,0.0,0.0,0.0,0.0,0.0,0.0,0.0,0.0,0.0,0.0,0.0,0.0,0.0,0.0,0.0,0.0,0.0,0.0,0.0,0.0,0.0,0.0,0.0,0.0,0.0,0.0,0.0,0.0,0.0,0.0,0.0,0.0,0.0,0.0,0.0,0.0,0.0,0.0,0.0,0.0,0.0,0.0,0.0,0.0,0.0,0.0,0.0,0.0,0.0,0.6508,9.288,0.7896,-1.3428,19.4092,-15.686,79.9146,-1.0437,-36.8701,0.6114,0.1965,-0.2479,0.7253,-0.4163,9.8431,-1.0958,75.0732,-21.2402,11.1694,84.4189,2.6038,-26.7737,0.6495,0.1719,-0.1566,0.7239,-3.7324,9.9723,-2.7563,43.2739,-28.9307,-3.8452,99.0088,3.6035,-23.5986,0.7398,0.1754,-0.1093,0.6402,-1.0719,0.7752,9.9101,2.4414,1.9531,-1.2817,2.8729,4.9384,-89.1595,-0.0124,0.0483,-0.7003,0.7121,0.0096,11.4557,-3.986,-127.3804,31.7993,30.0903,97.5586,-1.8127,-32.8601,0.7243,0.2027,-0.1978,0.6286,2.9812,4.0961,-9.9292,48.5229,-45.2271,20.5078,146.25,-10.0031,-33.5468,0.92,0.2509,-0.1633,0.2528,14.767,3.9238,47.4879,-96.1304,-93.8721,-67.5049,57.821,4.6857,-99.8108,0.2837,0.3926,-0.6564,0.5784,0,0,0,0,0,0,0,0,0,0,0,0,0,0,0,0,0,0,64769,0,17931,16900,0,0,0,0,52239,55042,0,0,4610,0,33796,39682,34054,0
1777289443.7930436,358724,1777289440.3956387,1777289442.1378372,1777289440.7550712,0,0,-1742.1984672546387,-359.4324588775635,1,1,0.0,0.0,0.0,0.0,0.0,0.0,0.0,0.0,0.0,0.0,0.0,0.0,0.0,0.0,0.0,0.0,0.0,0.0,0.0,0.0,0.0,0.0,0.0,0.0,0.0,0.0,0.0,0.0,0.0,0.0,0.0,0.0,0.0,0.0,0.0,0.0,0.0,0.0,0.0,0.0,0.0,0.0,0.0,0.0,0.0,0.0,0.0,0.0,0.0,0.0,0.0,0.0,0.0,0.0,0.0,0.0,0.0,0.0,0.0,0.0,0.0,0.0,0.0,0.0,0.0,0.0,0.0,0.0,0.0,0.0,0.0,0.0,0.0,0.0,0.0,0.6508,9.288,0.7896,-1.3428,19.4092,-15.686,79.9146,-1.0437,-36.8701,0.6114,0.1965,-0.2479,0.7253,-0.4163,9.8431,-1.0958,75.0732,-21.2402,11.1694,84.4189,2.6038,-26.7737,0.6495,0.1719,-0.1566,0.7239,-3.7324,9.9723,-2.7563,43.2739,-28.9307,-3.8452,99.0088,3.6035,-23.5986,0.7398,0.1754,-0.1093,0.6402,-1.0719,0.7752,9.9101,2.4414,1.9531,-1.2817,2.8729,4.9384,-89.1595,-0.0124,0.0483,-0.7003,0.7121,0.0096,11.4557,-3.986,-127.3804,31.7993,30.0903,97.5586,-1.8127,-32.8601,0.7243,0.2027,-0.1978,0.6286,2.9812,4.0961,-9.9292,48.5229,-45.2271,20.5078,146.25,-10.0031,-33.5468,0.92,0.2509,-0.1633,0.2528,14.767,3.9238,47.4879,-96.1304,-93.8721,-67.5049,57.821,4.6857,-99.8108,0.2837,0.3926,-0.6564,0.5784,0,0,0,0,0,0,0,0,0,0,0,0,0,0,0,0,0,0,64769,0,17931,16900,0,0,0,0,52239,55042,0,0,4610,0,33796,39682,34054,0
1777289443.7930436,358725,1777289440.4058828,1777289442.1378372,1777289440.7550712,0,0,-1731.9543361663818,-349.18832778930664,1,1,0.0,0.0,0.0,0.0,0.0,0.0,0.0,0.0,0.0,0.0,0.0,0.0,0.0,0.0,0.0,0.0,0.0,0.0,0.0,0.0,0.0,0.0,0.0,0.0,0.0,0.0,0.0,0.0,0.0,0.0,0.0,0.0,0.0,0.0,0.0,0.0,0.0,0.0,0.0,0.0,0.0,0.0,0.0,0.0,0.0,0.0,0.0,0.0,0.0,0.0,0.0,0.0,0.0,0.0,0.0,0.0,0.0,0.0,0.0,0.0,0.0,0.0,0.0,0.0,0.0,0.0,0.0,0.0,0.0,0.0,0.0,0.0,0.0,0.0,0.0,0.6508,9.288,0.7896,-1.3428,19.4092,-15.686,79.9146,-1.0437,-36.8701,0.6114,0.1965,-0.2479,0.7253,-0.4163,9.8431,-1.0958,75.0732,-21.2402,11.1694,84.4189,2.6038,-26.7737,0.6495,0.1719,-0.1566,0.7239,-3.7324,9.9723,-2.7563,43.2739,-28.9307,-3.8452,99.0088,3.6035,-23.5986,0.7398,0.1754,-0.1093,0.6402,-1.0719,0.7752,9.9101,2.4414,1.9531,-1.2817,2.8729,4.9384,-89.1595,-0.0124,0.0483,-0.7003,0.7121,0.0096,11.4557,-3.986,-127.3804,31.7993,30.0903,97.5586,-1.8127,-32.8601,0.7243,0.2027,-0.1978,0.6286,2.9812,4.0961,-9.9292,48.5229,-45.2271,20.5078,146.25,-10.0031,-33.5468,0.92,0.2509,-0.1633,0.2528,14.767,3.9238,47.4879,-96.1304,-93.8721,-67.5049,57.821,4.6857,-99.8108,0.2837,0.3926,-0.6564,0.5784,0,0,0,0,0,0,0,0,0,0,0,0,0,0,0,0,0,0,64769,0,17931,16900,0,0,0,0,52239,55042,0,0,4610,0,33796,39682,34054,0
1777289443.7930436,358726,1777289440.4148612,1777289442.1378372,1777289440.7550712,0,0,-1722.9759693145752,-340.2099609375,1,1,0.0,0.0,0.0,0.0,0.0,0.0,0.0,0.0,0.0,0.0,0.0,0.0,0.0,0.0,0.0,0.0,0.0,0.0,0.0,0.0,0.0,0.0,0.0,0.0,0.0,0.0,0.0,0.0,0.0,0.0,0.0,0.0,0.0,0.0,0.0,0.0,0.0,0.0,0.0,0.0,0.0,0.0,0.0,0.0,0.0,0.0,0.0,0.0,0.0,0.0,0.0,0.0,0.0,0.0,0.0,0.0,0.0,0.0,0.0,0.0,0.0,0.0,0.0,0.0,0.0,0.0,0.0,0.0,0.0,0.0,0.0,0.0,0.0,0.0,0.0,0.6508,9.288,0.7896,-1.3428,19.4092,-15.686,79.9146,-1.0437,-36.8701,0.6114,0.1965,-0.2479,0.7253,-0.4163,9.8431,-1.0958,75.0732,-21.2402,11.1694,84.4189,2.6038,-26.7737,0.6495,0.1719,-0.1566,0.7239,-3.7324,9.9723,-2.7563,43.2739,-28.9307,-3.8452,99.0088,3.6035,-23.5986,0.7398,0.1754,-0.1093,0.6402,-1.0719,0.7752,9.9101,2.4414,1.9531,-1.2817,2.8729,4.9384,-89.1595,-0.0124,0.0483,-0.7003,0.7121,0.0096,11.4557,-3.986,-127.3804,31.7993,30.0903,97.5586,-1.8127,-32.8601,0.7243,0.2027,-0.1978,0.6286,2.9812,4.0961,-9.9292,48.5229,-45.2271,20.5078,146.25,-10.0031,-33.5468,0.92,0.2509,-0.1633,0.2528,14.767,3.9238,47.4879,-96.1304,-93.8721,-67.5049,57.821,4.6857,-99.8108,0.2837,0.3926,-0.6564,0.5784,0,0,0,0,0,0,0,0,0,0,0,0,0,0,0,0,0,0,64769,0,17931,16900,0,0,0,0,52239,55042,0,0,4610,0,33796,39682,34054,0
1777289443.7930436,358727,1777289440.428548,1777289442.1378372,1777289440.7550712,0,0,-1709.2890739440918,-326.5230655670166,1,1,0.0,0.0,0.0,0.0,0.0,0.0,0.0,0.0,0.0,0.0,0.0,0.0,0.0,0.0,0.0,0.0,0.0,0.0,0.0,0.0,0.0,0.0,0.0,0.0,0.0,0.0,0.0,0.0,0.0,0.0,0.0,0.0,0.0,0.0,0.0,0.0,0.0,0.0,0.0,0.0,0.0,0.0,0.0,0.0,0.0,0.0,0.0,0.0,0.0,0.0,0.0,0.0,0.0,0.0,0.0,0.0,0.0,0.0,0.0,0.0,0.0,0.0,0.0,0.0,0.0,0.0,0.0,0.0,0.0,0.0,0.0,0.0,0.0,0.0,0.0,0.6508,9.288,0.7896,-1.3428,19.4092,-15.686,79.9146,-1.0437,-36.8701,0.6114,0.1965,-0.2479,0.7253,-0.4163,9.8431,-1.0958,75.0732,-21.2402,11.1694,84.4189,2.6038,-26.7737,0.6495,0.1719,-0.1566,0.7239,-3.7324,9.9723,-2.7563,43.2739,-28.9307,-3.8452,99.0088,3.6035,-23.5986,0.7398,0.1754,-0.1093,0.6402,-1.0719,0.7752,9.9101,2.4414,1.9531,-1.2817,2.8729,4.9384,-89.1595,-0.0124,0.0483,-0.7003,0.7121,0.0096,11.4557,-3.986,-127.3804,31.7993,30.0903,97.5586,-1.8127,-32.8601,0.7243,0.2027,-0.1978,0.6286,2.9812,4.0961,-9.9292,48.5229,-45.2271,20.5078,146.25,-10.0031,-33.5468,0.92,0.2509,-0.1633,0.2528,14.767,3.9238,47.4879,-96.1304,-93.8721,-67.5049,57.821,4.6857,-99.8108,0.2837,0.3926,-0.6564,0.5784,0,0,0,0,0,0,0,0,0,0,0,0,0,0,0,0,0,0,64769,0,17931,16900,0,0,0,0,52239,55042,0,0,4610,0,33796,39682,34054,0
1777289443.7930436,358728,1777289440.4355757,1777289442.1378372,1777289440.7550712,0,0,-1702.2614479064941,-319.49543952941895,1,1,0.0,0.0,0.0,0.0,0.0,0.0,0.0,0.0,0.0,0.0,0.0,0.0,0.0,0.0,0.0,0.0,0.0,0.0,0.0,0.0,0.0,0.0,0.0,0.0,0.0,0.0,0.0,0.0,0.0,0.0,0.0,0.0,0.0,0.0,0.0,0.0,0.0,0.0,0.0,0.0,0.0,0.0,0.0,0.0,0.0,0.0,0.0,0.0,0.0,0.0,0.0,0.0,0.0,0.0,0.0,0.0,0.0,0.0,0.0,0.0,0.0,0.0,0.0,0.0,0.0,0.0,0.0,0.0,0.0,0.0,0.0,0.0,0.0,0.0,0.0,0.6508,9.288,0.7896,-1.3428,19.4092,-15.686,79.9146,-1.0437,-36.8701,0.6114,0.1965,-0.2479,0.7253,-0.4163,9.8431,-1.0958,75.0732,-21.2402,11.1694,84.4189,2.6038,-26.7737,0.6495,0.1719,-0.1566,0.7239,-3.7324,9.9723,-2.7563,43.2739,-28.9307,-3.8452,99.0088,3.6035,-23.5986,0.7398,0.1754,-0.1093,0.6402,-1.0719,0.7752,9.9101,2.4414,1.9531,-1.2817,2.8729,4.9384,-89.1595,-0.0124,0.0483,-0.7003,0.7121,0.0096,11.4557,-3.986,-127.3804,31.7993,30.0903,97.5586,-1.8127,-32.8601,0.7243,0.2027,-0.1978,0.6286,2.9812,4.0961,-9.9292,48.5229,-45.2271,20.5078,146.25,-10.0031,-33.5468,0.92,0.2509,-0.1633,0.2528,14.767,3.9238,47.4879,-96.1304,-93.8721,-67.5049,57.821,4.6857,-99.8108,0.2837,0.3926,-0.6564,0.5784,0,0,0,0,0,0,0,0,0,0,0,0,0,0,0,0,0,0,64769,0,17931,16900,0,0,0,0,52239,55042,0,0,4610,0,33796,39682,34054,0
1777289443.7930436,358729,1777289440.4449706,1777289442.1378372,1777289440.7550712,0,0,-1692.866563796997,-310.1005554199219,1,1,0.0,0.0,0.0,0.0,0.0,0.0,0.0,0.0,0.0,0.0,0.0,0.0,0.0,0.0,0.0,0.0,0.0,0.0,0.0,0.0,0.0,0.0,0.0,0.0,0.0,0.0,0.0,0.0,0.0,0.0,0.0,0.0,0.0,0.0,0.0,0.0,0.0,0.0,0.0,0.0,0.0,0.0,0.0,0.0,0.0,0.0,0.0,0.0,0.0,0.0,0.0,0.0,0.0,0.0,0.0,0.0,0.0,0.0,0.0,0.0,0.0,0.0,0.0,0.0,0.0,0.0,0.0,0.0,0.0,0.0,0.0,0.0,0.0,0.0,0.0,0.6508,9.288,0.7896,-1.3428,19.4092,-15.686,79.9146,-1.0437,-36.8701,0.6114,0.1965,-0.2479,0.7253,-0.4163,9.8431,-1.0958,75.0732,-21.2402,11.1694,84.4189,2.6038,-26.7737,0.6495,0.1719,-0.1566,0.7239,-3.7324,9.9723,-2.7563,43.2739,-28.9307,-3.8452,99.0088,3.6035,-23.5986,0.7398,0.1754,-0.1093,0.6402,-1.0719,0.7752,9.9101,2.4414,1.9531,-1.2817,2.8729,4.9384,-89.1595,-0.0124,0.0483,-0.7003,0.7121,0.0096,11.4557,-3.986,-127.3804,31.7993,30.0903,97.5586,-1.8127,-32.8601,0.7243,0.2027,-0.1978,0.6286,2.9812,4.0961,-9.9292,48.5229,-45.2271,20.5078,146.25,-10.0031,-33.5468,0.92,0.2509,-0.1633,0.2528,14.767,3.9238,47.4879,-96.1304,-93.8721,-67.5049,57.821,4.6857,-99.8108,0.2837,0.3926,-0.6564,0.5784,0,0,0,0,0,0,0,0,0,0,0,0,0,0,0,0,0,0,64769,0,17931,16900,0,0,0,0,52239,55042,0,0,4610,0,33796,39682,34054,0
1777289443.794045,358730,1777289440.4559062,1777289442.1378372,1777289440.7550712,0,0,-1681.9310188293457,-299.1650104522705,1,1,0.0,0.0,0.0,0.0,0.0,0.0,0.0,0.0,0.0,0.0,0.0,0.0,0.0,0.0,0.0,0.0,0.0,0.0,0.0,0.0,0.0,0.0,0.0,0.0,0.0,0.0,0.0,0.0,0.0,0.0,0.0,0.0,0.0,0.0,0.0,0.0,0.0,0.0,0.0,0.0,0.0,0.0,0.0,0.0,0.0,0.0,0.0,0.0,0.0,0.0,0.0,0.0,0.0,0.0,0.0,0.0,0.0,0.0,0.0,0.0,0.0,0.0,0.0,0.0,0.0,0.0,0.0,0.0,0.0,0.0,0.0,0.0,0.0,0.0,0.0,0.6508,9.288,0.7896,-1.3428,19.4092,-15.686,79.9146,-1.0437,-36.8701,0.6114,0.1965,-0.2479,0.7253,-0.4163,9.8431,-1.0958,75.0732,-21.2402,11.1694,84.4189,2.6038,-26.7737,0.6495,0.1719,-0.1566,0.7239,-3.7324,9.9723,-2.7563,43.2739,-28.9307,-3.8452,99.0088,3.6035,-23.5986,0.7398,0.1754,-0.1093,0.6402,-1.0719,0.7752,9.9101,2.4414,1.9531,-1.2817,2.8729,4.9384,-89.1595,-0.0124,0.0483,-0.7003,0.7121,0.0096,11.4557,-3.986,-127.3804,31.7993,30.0903,97.5586,-1.8127,-32.8601,0.7243,0.2027,-0.1978,0.6286,2.9812,4.0961,-9.9292,48.5229,-45.2271,20.5078,146.25,-10.0031,-33.5468,0.92,0.2509,-0.1633,0.2528,14.767,3.9238,47.4879,-96.1304,-93.8721,-67.5049,57.821,4.6857,-99.8108,0.2837,0.3926,-0.6564,0.5784,0,0,0,0,0,0,0,0,0,0,0,0,0,0,0,0,0,0,64769,0,17931,16900,0,0,0,0,52239,55042,0,0,4610,0,33796,39682,34054,0
1777289443.794045,358731,1777289440.4659903,1777289442.1378372,1777289440.7550712,0,0,-1671.846866607666,-289.0808582305908,1,1,0.0,0.0,0.0,0.0,0.0,0.0,0.0,0.0,0.0,0.0,0.0,0.0,0.0,0.0,0.0,0.0,0.0,0.0,0.0,0.0,0.0,0.0,0.0,0.0,0.0,0.0,0.0,0.0,0.0,0.0,0.0,0.0,0.0,0.0,0.0,0.0,0.0,0.0,0.0,0.0,0.0,0.0,0.0,0.0,0.0,0.0,0.0,0.0,0.0,0.0,0.0,0.0,0.0,0.0,0.0,0.0,0.0,0.0,0.0,0.0,0.0,0.0,0.0,0.0,0.0,0.0,0.0,0.0,0.0,0.0,0.0,0.0,0.0,0.0,0.0,0.6508,9.288,0.7896,-1.3428,19.4092,-15.686,79.9146,-1.0437,-36.8701,0.6114,0.1965,-0.2479,0.7253,-0.4163,9.8431,-1.0958,75.0732,-21.2402,11.1694,84.4189,2.6038,-26.7737,0.6495,0.1719,-0.1566,0.7239,-3.7324,9.9723,-2.7563,43.2739,-28.9307,-3.8452,99.0088,3.6035,-23.5986,0.7398,0.1754,-0.1093,0.6402,-1.0719,0.7752,9.9101,2.4414,1.9531,-1.2817,2.8729,4.9384,-89.1595,-0.0124,0.0483,-0.7003,0.7121,0.0096,11.4557,-3.986,-127.3804,31.7993,30.0903,97.5586,-1.8127,-32.8601,0.7243,0.2027,-0.1978,0.6286,2.9812,4.0961,-9.9292,48.5229,-45.2271,20.5078,146.25,-10.0031,-33.5468,0.92,0.2509,-0.1633,0.2528,14.767,3.9238,47.4879,-96.1304,-93.8721,-67.5049,57.821,4.6857,-99.8108,0.2837,0.3926,-0.6564,0.5784,0,0,0,0,0,0,0,0,0,0,0,0,0,0,0,0,0,0,64769,0,17931,16900,0,0,0,0,52239,55042,0,0,4610,0,33796,39682,34054,0
1777289443.794045,358732,1777289440.47582,1777289442.1378372,1777289440.7550712,0,0,-1662.0171070098877,-279.2510986328125,1,1,0.0,0.0,0.0,0.0,0.0,0.0,0.0,0.0,0.0,0.0,0.0,0.0,0.0,0.0,0.0,0.0,0.0,0.0,0.0,0.0,0.0,0.0,0.0,0.0,0.0,0.0,0.0,0.0,0.0,0.0,0.0,0.0,0.0,0.0,0.0,0.0,0.0,0.0,0.0,0.0,0.0,0.0,0.0,0.0,0.0,0.0,0.0,0.0,0.0,0.0,0.0,0.0,0.0,0.0,0.0,0.0,0.0,0.0,0.0,0.0,0.0,0.0,0.0,0.0,0.0,0.0,0.0,0.0,0.0,0.0,0.0,0.0,0.0,0.0,0.0,0.6508,9.288,0.7896,-1.3428,19.4092,-15.686,79.9146,-1.0437,-36.8701,0.6114,0.1965,-0.2479,0.7253,-0.4163,9.8431,-1.0958,75.0732,-21.2402,11.1694,84.4189,2.6038,-26.7737,0.6495,0.1719,-0.1566,0.7239,-3.7324,9.9723,-2.7563,43.2739,-28.9307,-3.8452,99.0088,3.6035,-23.5986,0.7398,0.1754,-0.1093,0.6402,-1.0719,0.7752,9.9101,2.4414,1.9531,-1.2817,2.8729,4.9384,-89.1595,-0.0124,0.0483,-0.7003,0.7121,0.0096,11.4557,-3.986,-127.3804,31.7993,30.0903,97.5586,-1.8127,-32.8601,0.7243,0.2027,-0.1978,0.6286,2.9812,4.0961,-9.9292,48.5229,-45.2271,20.5078,146.25,-10.0031,-33.5468,0.92,0.2509,-0.1633,0.2528,14.767,3.9238,47.4879,-96.1304,-93.8721,-67.5049,57.821,4.6857,-99.8108,0.2837,0.3926,-0.6564,0.5784,0,0,0,0,0,0,0,0,0,0,0,0,0,0,0,0,0,0,64769,0,17931,16900,0,0,0,0,52239,55042,0,0,4610,0,33796,39682,34054,0
1777289443.794045,358733,1777289440.485834,1777289442.1378372,1777289440.7550712,0,0,-1652.003288269043,-269.2372798919678,1,1,0.0,0.0,0.0,0.0,0.0,0.0,0.0,0.0,0.0,0.0,0.0,0.0,0.0,0.0,0.0,0.0,0.0,0.0,0.0,0.0,0.0,0.0,0.0,0.0,0.0,0.0,0.0,0.0,0.0,0.0,0.0,0.0,0.0,0.0,0.0,0.0,0.0,0.0,0.0,0.0,0.0,0.0,0.0,0.0,0.0,0.0,0.0,0.0,0.0,0.0,0.0,0.0,0.0,0.0,0.0,0.0,0.0,0.0,0.0,0.0,0.0,0.0,0.0,0.0,0.0,0.0,0.0,0.0,0.0,0.0,0.0,0.0,0.0,0.0,0.0,0.6508,9.288,0.7896,-1.3428,19.4092,-15.686,79.9146,-1.0437,-36.8701,0.6114,0.1965,-0.2479,0.7253,-0.4163,9.8431,-1.0958,75.0732,-21.2402,11.1694,84.4189,2.6038,-26.7737,0.6495,0.1719,-0.1566,0.7239,-3.7324,9.9723,-2.7563,43.2739,-28.9307,-3.8452,99.0088,3.6035,-23.5986,0.7398,0.1754,-0.1093,0.6402,-1.0719,0.7752,9.9101,2.4414,1.9531,-1.2817,2.8729,4.9384,-89.1595,-0.0124,0.0483,-0.7003,0.7121,0.0096,11.4557,-3.986,-127.3804,31.7993,30.0903,97.5586,-1.8127,-32.8601,0.7243,0.2027,-0.1978,0.6286,2.9812,4.0961,-9.9292,48.5229,-45.2271,20.5078,146.25,-10.0031,-33.5468,0.92,0.2509,-0.1633,0.2528,14.767,3.9238,47.4879,-96.1304,-93.8721,-67.5049,57.821,4.6857,-99.8108,0.2837,0.3926,-0.6564,0.5784,0,0,0,0,0,0,0,0,0,0,0,0,0,0,0,0,0,0,64769,0,17931,16900,0,0,0,0,52239,55042,0,0,4610,0,33796,39682,34054,0
1777289443.794045,358734,1777289440.5014274,1777289442.1378372,1777289440.7550712,0,0,-1636.4097595214844,-253.64375114440918,1,1,0.0,0.0,0.0,0.0,0.0,0.0,0.0,0.0,0.0,0.0,0.0,0.0,0.0,0.0,0.0,0.0,0.0,0.0,0.0,0.0,0.0,0.0,0.0,0.0,0.0,0.0,0.0,0.0,0.0,0.0,0.0,0.0,0.0,0.0,0.0,0.0,0.0,0.0,0.0,0.0,0.0,0.0,0.0,0.0,0.0,0.0,0.0,0.0,0.0,0.0,0.0,0.0,0.0,0.0,0.0,0.0,0.0,0.0,0.0,0.0,0.0,0.0,0.0,0.0,0.0,0.0,0.0,0.0,0.0,0.0,0.0,0.0,0.0,0.0,0.0,0.6508,9.288,0.7896,-1.3428,19.4092,-15.686,79.9146,-1.0437,-36.8701,0.6114,0.1965,-0.2479,0.7253,-0.4163,9.8431,-1.0958,75.0732,-21.2402,11.1694,84.4189,2.6038,-26.7737,0.6495,0.1719,-0.1566,0.7239,-3.7324,9.9723,-2.7563,43.2739,-28.9307,-3.8452,99.0088,3.6035,-23.5986,0.7398,0.1754,-0.1093,0.6402,-1.0719,0.7752,9.9101,2.4414,1.9531,-1.2817,2.8729,4.9384,-89.1595,-0.0124,0.0483,-0.7003,0.7121,0.0096,11.4557,-3.986,-127.3804,31.7993,30.0903,97.5586,-1.8127,-32.8601,0.7243,0.2027,-0.1978,0.6286,2.9812,4.0961,-9.9292,48.5229,-45.2271,20.5078,146.25,-10.0031,-33.5468,0.92,0.2509,-0.1633,0.2528,14.767,3.9238,47.4879,-96.1304,-93.8721,-67.5049,57.821,4.6857,-99.8108,0.2837,0.3926,-0.6564,0.5784,0,0,0,0,0,0,0,0,0,0,0,0,0,0,0,0,0,0,64769,0,17931,16900,0,0,0,0,52239,55042,0,0,4610,0,33796,39682,34054,0
1777289443.794045,358735,1777289440.5121171,1777289442.1378372,1777289440.7550712,0,0,-1625.7200241088867,-242.95401573181152,1,1,0.0,0.0,0.0,0.0,0.0,0.0,0.0,0.0,0.0,0.0,0.0,0.0,0.0,0.0,0.0,0.0,0.0,0.0,0.0,0.0,0.0,0.0,0.0,0.0,0.0,0.0,0.0,0.0,0.0,0.0,0.0,0.0,0.0,0.0,0.0,0.0,0.0,0.0,0.0,0.0,0.0,0.0,0.0,0.0,0.0,0.0,0.0,0.0,0.0,0.0,0.0,0.0,0.0,0.0,0.0,0.0,0.0,0.0,0.0,0.0,0.0,0.0,0.0,0.0,0.0,0.0,0.0,0.0,0.0,0.0,0.0,0.0,0.0,0.0,0.0,0.6508,9.288,0.7896,-1.3428,19.4092,-15.686,79.9146,-1.0437,-36.8701,0.6114,0.1965,-0.2479,0.7253,-0.4163,9.8431,-1.0958,75.0732,-21.2402,11.1694,84.4189,2.6038,-26.7737,0.6495,0.1719,-0.1566,0.7239,-3.7324,9.9723,-2.7563,43.2739,-28.9307,-3.8452,99.0088,3.6035,-23.5986,0.7398,0.1754,-0.1093,0.6402,-1.0719,0.7752,9.9101,2.4414,1.9531,-1.2817,2.8729,4.9384,-89.1595,-0.0124,0.0483,-0.7003,0.7121,0.0096,11.4557,-3.986,-127.3804,31.7993,30.0903,97.5586,-1.8127,-32.8601,0.7243,0.2027,-0.1978,0.6286,2.9812,4.0961,-9.9292,48.5229,-45.2271,20.5078,146.25,-10.0031,-33.5468,0.92,0.2509,-0.1633,0.2528,14.767,3.9238,47.4879,-96.1304,-93.8721,-67.5049,57.821,4.6857,-99.8108,0.2837,0.3926,-0.6564,0.5784,0,0,0,0,0,0,0,0,0,0,0,0,0,0,0,0,0,0,64769,0,17931,16900,0,0,0,0,52239,55042,0,0,4610,0,33796,39682,34054,0
1777289443.794045,358736,1777289440.514671,1777289442.1378372,1777289440.7550712,0,0,-1623.1660842895508,-240.4000759124756,1,1,0.0,0.0,0.0,0.0,0.0,0.0,0.0,0.0,0.0,0.0,0.0,0.0,0.0,0.0,0.0,0.0,0.0,0.0,0.0,0.0,0.0,0.0,0.0,0.0,0.0,0.0,0.0,0.0,0.0,0.0,0.0,0.0,0.0,0.0,0.0,0.0,0.0,0.0,0.0,0.0,0.0,0.0,0.0,0.0,0.0,0.0,0.0,0.0,0.0,0.0,0.0,0.0,0.0,0.0,0.0,0.0,0.0,0.0,0.0,0.0,0.0,0.0,0.0,0.0,0.0,0.0,0.0,0.0,0.0,0.0,0.0,0.0,0.0,0.0,0.0,0.6508,9.288,0.7896,-1.3428,19.4092,-15.686,79.9146,-1.0437,-36.8701,0.6114,0.1965,-0.2479,0.7253,-0.4163,9.8431,-1.0958,75.0732,-21.2402,11.1694,84.4189,2.6038,-26.7737,0.6495,0.1719,-0.1566,0.7239,-3.7324,9.9723,-2.7563,43.2739,-28.9307,-3.8452,99.0088,3.6035,-23.5986,0.7398,0.1754,-0.1093,0.6402,-1.0719,0.7752,9.9101,2.4414,1.9531,-1.2817,2.8729,4.9384,-89.1595,-0.0124,0.0483,-0.7003,0.7121,0.0096,11.4557,-3.986,-127.3804,31.7993,30.0903,97.5586,-1.8127,-32.8601,0.7243,0.2027,-0.1978,0.6286,2.9812,4.0961,-9.9292,48.5229,-45.2271,20.5078,146.25,-10.0031,-33.5468,0.92,0.2509,-0.1633,0.2528,14.767,3.9238,47.4879,-96.1304,-93.8721,-67.5049,57.821,4.6857,-99.8108,0.2837,0.3926,-0.6564,0.5784,0,0,0,0,0,0,0,0,0,0,0,0,0,0,0,0,0,0,64769,0,17931,16900,0,0,0,0,52239,55042,0,0,4610,0,33796,39682,34054,0
1777289443.794045,358737,1777289440.5257037,1777289442.1378372,1777289440.7550712,0,0,-1612.133502960205,-229.36749458312988,1,1,0.0,0.0,0.0,0.0,0.0,0.0,0.0,0.0,0.0,0.0,0.0,0.0,0.0,0.0,0.0,0.0,0.0,0.0,0.0,0.0,0.0,0.0,0.0,0.0,0.0,0.0,0.0,0.0,0.0,0.0,0.0,0.0,0.0,0.0,0.0,0.0,0.0,0.0,0.0,0.0,0.0,0.0,0.0,0.0,0.0,0.0,0.0,0.0,0.0,0.0,0.0,0.0,0.0,0.0,0.0,0.0,0.0,0.0,0.0,0.0,0.0,0.0,0.0,0.0,0.0,0.0,0.0,0.0,0.0,0.0,0.0,0.0,0.0,0.0,0.0,0.6508,9.288,0.7896,-1.3428,19.4092,-15.686,79.9146,-1.0437,-36.8701,0.6114,0.1965,-0.2479,0.7253,-0.4163,9.8431,-1.0958,75.0732,-21.2402,11.1694,84.4189,2.6038,-26.7737,0.6495,0.1719,-0.1566,0.7239,-3.7324,9.9723,-2.7563,43.2739,-28.9307,-3.8452,99.0088,3.6035,-23.5986,0.7398,0.1754,-0.1093,0.6402,-1.0719,0.7752,9.9101,2.4414,1.9531,-1.2817,2.8729,4.9384,-89.1595,-0.0124,0.0483,-0.7003,0.7121,0.0096,11.4557,-3.986,-127.3804,31.7993,30.0903,97.5586,-1.8127,-32.8601,0.7243,0.2027,-0.1978,0.6286,2.9812,4.0961,-9.9292,48.5229,-45.2271,20.5078,146.25,-10.0031,-33.5468,0.92,0.2509,-0.1633,0.2528,14.767,3.9238,47.4879,-96.1304,-93.8721,-67.5049,57.821,4.6857,-99.8108,0.2837,0.3926,-0.6564,0.5784,0,0,0,0,0,0,0,0,0,0,0,0,0,0,0,0,0,0,64769,0,17931,16900,0,0,0,0,52239,55042,0,0,4610,0,33796,39682,34054,0
1777289443.794045,358738,1777289440.5356736,1777289442.1378372,1777289440.7550712,0,0,-1602.163553237915,-219.39754486083984,1,1,0.0,0.0,0.0,0.0,0.0,0.0,0.0,0.0,0.0,0.0,0.0,0.0,0.0,0.0,0.0,0.0,0.0,0.0,0.0,0.0,0.0,0.0,0.0,0.0,0.0,0.0,0.0,0.0,0.0,0.0,0.0,0.0,0.0,0.0,0.0,0.0,0.0,0.0,0.0,0.0,0.0,0.0,0.0,0.0,0.0,0.0,0.0,0.0,0.0,0.0,0.0,0.0,0.0,0.0,0.0,0.0,0.0,0.0,0.0,0.0,0.0,0.0,0.0,0.0,0.0,0.0,0.0,0.0,0.0,0.0,0.0,0.0,0.0,0.0,0.0,0.6508,9.288,0.7896,-1.3428,19.4092,-15.686,79.9146,-1.0437,-36.8701,0.6114,0.1965,-0.2479,0.7253,-0.4163,9.8431,-1.0958,75.0732,-21.2402,11.1694,84.4189,2.6038,-26.7737,0.6495,0.1719,-0.1566,0.7239,-3.7324,9.9723,-2.7563,43.2739,-28.9307,-3.8452,99.0088,3.6035,-23.5986,0.7398,0.1754,-0.1093,0.6402,-1.0719,0.7752,9.9101,2.4414,1.9531,-1.2817,2.8729,4.9384,-89.1595,-0.0124,0.0483,-0.7003,0.7121,0.0096,11.4557,-3.986,-127.3804,31.7993,30.0903,97.5586,-1.8127,-32.8601,0.7243,0.2027,-0.1978,0.6286,2.9812,4.0961,-9.9292,48.5229,-45.2271,20.5078,146.25,-10.0031,-33.5468,0.92,0.2509,-0.1633,0.2528,14.767,3.9238,47.4879,-96.1304,-93.8721,-67.5049,57.821,4.6857,-99.8108,0.2837,0.3926,-0.6564,0.5784,0,0,0,0,0,0,0,0,0,0,0,0,0,0,0,0,0,0,64769,0,17931,16900,0,0,0,0,52239,55042,0,0,4610,0,33796,39682,34054,0
1777289443.794045,358739,1777289440.5451849,1777289442.1378372,1777289440.7550712,0,0,-1592.6523208618164,-209.8863124847412,1,1,0.0,0.0,0.0,0.0,0.0,0.0,0.0,0.0,0.0,0.0,0.0,0.0,0.0,0.0,0.0,0.0,0.0,0.0,0.0,0.0,0.0,0.0,0.0,0.0,0.0,0.0,0.0,0.0,0.0,0.0,0.0,0.0,0.0,0.0,0.0,0.0,0.0,0.0,0.0,0.0,0.0,0.0,0.0,0.0,0.0,0.0,0.0,0.0,0.0,0.0,0.0,0.0,0.0,0.0,0.0,0.0,0.0,0.0,0.0,0.0,0.0,0.0,0.0,0.0,0.0,0.0,0.0,0.0,0.0,0.0,0.0,0.0,0.0,0.0,0.0,0.6508,9.288,0.7896,-1.3428,19.4092,-15.686,79.9146,-1.0437,-36.8701,0.6114,0.1965,-0.2479,0.7253,-0.4163,9.8431,-1.0958,75.0732,-21.2402,11.1694,84.4189,2.6038,-26.7737,0.6495,0.1719,-0.1566,0.7239,-3.7324,9.9723,-2.7563,43.2739,-28.9307,-3.8452,99.0088,3.6035,-23.5986,0.7398,0.1754,-0.1093,0.6402,-1.0719,0.7752,9.9101,2.4414,1.9531,-1.2817,2.8729,4.9384,-89.1595,-0.0124,0.0483,-0.7003,0.7121,0.0096,11.4557,-3.986,-127.3804,31.7993,30.0903,97.5586,-1.8127,-32.8601,0.7243,0.2027,-0.1978,0.6286,2.9812,4.0961,-9.9292,48.5229,-45.2271,20.5078,146.25,-10.0031,-33.5468,0.92,0.2509,-0.1633,0.2528,14.767,3.9238,47.4879,-96.1304,-93.8721,-67.5049,57.821,4.6857,-99.8108,0.2837,0.3926,-0.6564,0.5784,0,0,0,0,0,0,0,0,0,0,0,0,0,0,0,0,0,0,64769,0,17931,16900,0,0,0,0,52239,55042,0,0,4610,0,33796,39682,34054,0
1777289443.794045,358740,1777289440.555784,1777289442.1378372,1777289440.7550712,0,0,-1582.0531845092773,-199.28717613220215,1,1,0.0,0.0,0.0,0.0,0.0,0.0,0.0,0.0,0.0,0.0,0.0,0.0,0.0,0.0,0.0,0.0,0.0,0.0,0.0,0.0,0.0,0.0,0.0,0.0,0.0,0.0,0.0,0.0,0.0,0.0,0.0,0.0,0.0,0.0,0.0,0.0,0.0,0.0,0.0,0.0,0.0,0.0,0.0,0.0,0.0,0.0,0.0,0.0,0.0,0.0,0.0,0.0,0.0,0.0,0.0,0.0,0.0,0.0,0.0,0.0,0.0,0.0,0.0,0.0,0.0,0.0,0.0,0.0,0.0,0.0,0.0,0.0,0.0,0.0,0.0,0.6508,9.288,0.7896,-1.3428,19.4092,-15.686,79.9146,-1.0437,-36.8701,0.6114,0.1965,-0.2479,0.7253,-0.4163,9.8431,-1.0958,75.0732,-21.2402,11.1694,84.4189,2.6038,-26.7737,0.6495,0.1719,-0.1566,0.7239,-3.7324,9.9723,-2.7563,43.2739,-28.9307,-3.8452,99.0088,3.6035,-23.5986,0.7398,0.1754,-0.1093,0.6402,-1.0719,0.7752,9.9101,2.4414,1.9531,-1.2817,2.8729,4.9384,-89.1595,-0.0124,0.0483,-0.7003,0.7121,0.0096,11.4557,-3.986,-127.3804,31.7993,30.0903,97.5586,-1.8127,-32.8601,0.7243,0.2027,-0.1978,0.6286,2.9812,4.0961,-9.9292,48.5229,-45.2271,20.5078,146.25,-10.0031,-33.5468,0.92,0.2509,-0.1633,0.2528,14.767,3.9238,47.4879,-96.1304,-93.8721,-67.5049,57.821,4.6857,-99.8108,0.2837,0.3926,-0.6564,0.5784,0,0,0,0,0,0,0,0,0,0,0,0,0,0,0,0,0,0,64769,0,17931,16900,0,0,0,0,52239,55042,0,0,4610,0,33796,39682,34054,0
1777289443.794045,358741,1777289440.5652788,1777289442.1378372,1777289440.7550712,0,0,-1572.5584030151367,-189.79239463806152,1,1,0.0,0.0,0.0,0.0,0.0,0.0,0.0,0.0,0.0,0.0,0.0,0.0,0.0,0.0,0.0,0.0,0.0,0.0,0.0,0.0,0.0,0.0,0.0,0.0,0.0,0.0,0.0,0.0,0.0,0.0,0.0,0.0,0.0,0.0,0.0,0.0,0.0,0.0,0.0,0.0,0.0,0.0,0.0,0.0,0.0,0.0,0.0,0.0,0.0,0.0,0.0,0.0,0.0,0.0,0.0,0.0,0.0,0.0,0.0,0.0,0.0,0.0,0.0,0.0,0.0,0.0,0.0,0.0,0.0,0.0,0.0,0.0,0.0,0.0,0.0,0.6508,9.288,0.7896,-1.3428,19.4092,-15.686,79.9146,-1.0437,-36.8701,0.6114,0.1965,-0.2479,0.7253,-0.4163,9.8431,-1.0958,75.0732,-21.2402,11.1694,84.4189,2.6038,-26.7737,0.6495,0.1719,-0.1566,0.7239,-3.7324,9.9723,-2.7563,43.2739,-28.9307,-3.8452,99.0088,3.6035,-23.5986,0.7398,0.1754,-0.1093,0.6402,-1.0719,0.7752,9.9101,2.4414,1.9531,-1.2817,2.8729,4.9384,-89.1595,-0.0124,0.0483,-0.7003,0.7121,0.0096,11.4557,-3.986,-127.3804,31.7993,30.0903,97.5586,-1.8127,-32.8601,0.7243,0.2027,-0.1978,0.6286,2.9812,4.0961,-9.9292,48.5229,-45.2271,20.5078,146.25,-10.0031,-33.5468,0.92,0.2509,-0.1633,0.2528,14.767,3.9238,47.4879,-96.1304,-93.8721,-67.5049,57.821,4.6857,-99.8108,0.2837,0.3926,-0.6564,0.5784,0,0,0,0,0,0,0,0,0,0,0,0,0,0,0,0,0,0,64769,0,17931,16900,0,0,0,0,52239,55042,0,0,4610,0,33796,39682,34054,0
1777289443.795057,358742,1777289440.5757954,1777289442.1378372,1777289440.7550712,0,0,-1562.0417594909668,-179.2757511138916,1,1,0.0,0.0,0.0,0.0,0.0,0.0,0.0,0.0,0.0,0.0,0.0,0.0,0.0,0.0,0.0,0.0,0.0,0.0,0.0,0.0,0.0,0.0,0.0,0.0,0.0,0.0,0.0,0.0,0.0,0.0,0.0,0.0,0.0,0.0,0.0,0.0,0.0,0.0,0.0,0.0,0.0,0.0,0.0,0.0,0.0,0.0,0.0,0.0,0.0,0.0,0.0,0.0,0.0,0.0,0.0,0.0,0.0,0.0,0.0,0.0,0.0,0.0,0.0,0.0,0.0,0.0,0.0,0.0,0.0,0.0,0.0,0.0,0.0,0.0,0.0,0.6508,9.288,0.7896,-1.3428,19.4092,-15.686,79.9146,-1.0437,-36.8701,0.6114,0.1965,-0.2479,0.7253,-0.4163,9.8431,-1.0958,75.0732,-21.2402,11.1694,84.4189,2.6038,-26.7737,0.6495,0.1719,-0.1566,0.7239,-3.7324,9.9723,-2.7563,43.2739,-28.9307,-3.8452,99.0088,3.6035,-23.5986,0.7398,0.1754,-0.1093,0.6402,-1.0719,0.7752,9.9101,2.4414,1.9531,-1.2817,2.8729,4.9384,-89.1595,-0.0124,0.0483,-0.7003,0.7121,0.0096,11.4557,-3.986,-127.3804,31.7993,30.0903,97.5586,-1.8127,-32.8601,0.7243,0.2027,-0.1978,0.6286,2.9812,4.0961,-9.9292,48.5229,-45.2271,20.5078,146.25,-10.0031,-33.5468,0.92,0.2509,-0.1633,0.2528,14.767,3.9238,47.4879,-96.1304,-93.8721,-67.5049,57.821,4.6857,-99.8108,0.2837,0.3926,-0.6564,0.5784,0,0,0,0,0,0,0,0,0,0,0,0,0,0,0,0,0,0,64769,0,17931,16900,0,0,0,0,52239,55042,0,0,4610,0,33796,39682,34054,0
1777289443.795057,358743,1777289440.585422,1777289442.1378372,1777289440.7550712,0,0,-1552.415132522583,-169.6491241455078,1,1,0.0,0.0,0.0,0.0,0.0,0.0,0.0,0.0,0.0,0.0,0.0,0.0,0.0,0.0,0.0,0.0,0.0,0.0,0.0,0.0,0.0,0.0,0.0,0.0,0.0,0.0,0.0,0.0,0.0,0.0,0.0,0.0,0.0,0.0,0.0,0.0,0.0,0.0,0.0,0.0,0.0,0.0,0.0,0.0,0.0,0.0,0.0,0.0,0.0,0.0,0.0,0.0,0.0,0.0,0.0,0.0,0.0,0.0,0.0,0.0,0.0,0.0,0.0,0.0,0.0,0.0,0.0,0.0,0.0,0.0,0.0,0.0,0.0,0.0,0.0,0.6508,9.288,0.7896,-1.3428,19.4092,-15.686,79.9146,-1.0437,-36.8701,0.6114,0.1965,-0.2479,0.7253,-0.4163,9.8431,-1.0958,75.0732,-21.2402,11.1694,84.4189,2.6038,-26.7737,0.6495,0.1719,-0.1566,0.7239,-3.7324,9.9723,-2.7563,43.2739,-28.9307,-3.8452,99.0088,3.6035,-23.5986,0.7398,0.1754,-0.1093,0.6402,-1.0719,0.7752,9.9101,2.4414,1.9531,-1.2817,2.8729,4.9384,-89.1595,-0.0124,0.0483,-0.7003,0.7121,0.0096,11.4557,-3.986,-127.3804,31.7993,30.0903,97.5586,-1.8127,-32.8601,0.7243,0.2027,-0.1978,0.6286,2.9812,4.0961,-9.9292,48.5229,-45.2271,20.5078,146.25,-10.0031,-33.5468,0.92,0.2509,-0.1633,0.2528,14.767,3.9238,47.4879,-96.1304,-93.8721,-67.5049,57.821,4.6857,-99.8108,0.2837,0.3926,-0.6564,0.5784,0,0,0,0,0,0,0,0,0,0,0,0,0,0,0,0,0,0,64769,0,17931,16900,0,0,0,0,52239,55042,0,0,4610,0,33796,39682,34054,0
1777289443.795057,358744,1777289440.595356,1777289442.1378372,1777289440.7550712,0,0,-1542.4811840057373,-159.7151756286621,1,1,0.0,0.0,0.0,0.0,0.0,0.0,0.0,0.0,0.0,0.0,0.0,0.0,0.0,0.0,0.0,0.0,0.0,0.0,0.0,0.0,0.0,0.0,0.0,0.0,0.0,0.0,0.0,0.0,0.0,0.0,0.0,0.0,0.0,0.0,0.0,0.0,0.0,0.0,0.0,0.0,0.0,0.0,0.0,0.0,0.0,0.0,0.0,0.0,0.0,0.0,0.0,0.0,0.0,0.0,0.0,0.0,0.0,0.0,0.0,0.0,0.0,0.0,0.0,0.0,0.0,0.0,0.0,0.0,0.0,0.0,0.0,0.0,0.0,0.0,0.0,0.6508,9.288,0.7896,-1.3428,19.4092,-15.686,79.9146,-1.0437,-36.8701,0.6114,0.1965,-0.2479,0.7253,-0.4163,9.8431,-1.0958,75.0732,-21.2402,11.1694,84.4189,2.6038,-26.7737,0.6495,0.1719,-0.1566,0.7239,-3.7324,9.9723,-2.7563,43.2739,-28.9307,-3.8452,99.0088,3.6035,-23.5986,0.7398,0.1754,-0.1093,0.6402,-1.0719,0.7752,9.9101,2.4414,1.9531,-1.2817,2.8729,4.9384,-89.1595,-0.0124,0.0483,-0.7003,0.7121,0.0096,11.4557,-3.986,-127.3804,31.7993,30.0903,97.5586,-1.8127,-32.8601,0.7243,0.2027,-0.1978,0.6286,2.9812,4.0961,-9.9292,48.5229,-45.2271,20.5078,146.25,-10.0031,-33.5468,0.92,0.2509,-0.1633,0.2528,14.767,3.9238,47.4879,-96.1304,-93.8721,-67.5049,57.821,4.6857,-99.8108,0.2837,0.3926,-0.6564,0.5784,0,0,0,0,0,0,0,0,0,0,0,0,0,0,0,0,0,0,64769,0,17931,16900,0,0,0,0,52239,55042,0,0,4610,0,33796,39682,34054,0
1777289443.795057,358745,1777289440.6080804,1777289442.1378372,1777289440.7550712,0,0,-1529.756784439087,-146.99077606201172,1,1,0.0,0.0,0.0,0.0,0.0,0.0,0.0,0.0,0.0,0.0,0.0,0.0,0.0,0.0,0.0,0.0,0.0,0.0,0.0,0.0,0.0,0.0,0.0,0.0,0.0,0.0,0.0,0.0,0.0,0.0,0.0,0.0,0.0,0.0,0.0,0.0,0.0,0.0,0.0,0.0,0.0,0.0,0.0,0.0,0.0,0.0,0.0,0.0,0.0,0.0,0.0,0.0,0.0,0.0,0.0,0.0,0.0,0.0,0.0,0.0,0.0,0.0,0.0,0.0,0.0,0.0,0.0,0.0,0.0,0.0,0.0,0.0,0.0,0.0,0.0,0.6508,9.288,0.7896,-1.3428,19.4092,-15.686,79.9146,-1.0437,-36.8701,0.6114,0.1965,-0.2479,0.7253,-0.4163,9.8431,-1.0958,75.0732,-21.2402,11.1694,84.4189,2.6038,-26.7737,0.6495,0.1719,-0.1566,0.7239,-3.7324,9.9723,-2.7563,43.2739,-28.9307,-3.8452,99.0088,3.6035,-23.5986,0.7398,0.1754,-0.1093,0.6402,-1.0719,0.7752,9.9101,2.4414,1.9531,-1.2817,2.8729,4.9384,-89.1595,-0.0124,0.0483,-0.7003,0.7121,0.0096,11.4557,-3.986,-127.3804,31.7993,30.0903,97.5586,-1.8127,-32.8601,0.7243,0.2027,-0.1978,0.6286,2.9812,4.0961,-9.9292,48.5229,-45.2271,20.5078,146.25,-10.0031,-33.5468,0.92,0.2509,-0.1633,0.2528,14.767,3.9238,47.4879,-96.1304,-93.8721,-67.5049,57.821,4.6857,-99.8108,0.2837,0.3926,-0.6564,0.5784,0,0,0,0,0,0,0,0,0,0,0,0,0,0,0,0,0,0,64769,0,17931,16900,0,0,0,0,52239,55042,0,0,4610,0,33796,39682,34054,0
1777289443.795057,358746,1777289440.6147447,1777289442.1378372,1777289440.7550712,0,0,-1523.09250831604,-140.32649993896484,1,1,0.0,0.0,0.0,0.0,0.0,0.0,0.0,0.0,0.0,0.0,0.0,0.0,0.0,0.0,0.0,0.0,0.0,0.0,0.0,0.0,0.0,0.0,0.0,0.0,0.0,0.0,0.0,0.0,0.0,0.0,0.0,0.0,0.0,0.0,0.0,0.0,0.0,0.0,0.0,0.0,0.0,0.0,0.0,0.0,0.0,0.0,0.0,0.0,0.0,0.0,0.0,0.0,0.0,0.0,0.0,0.0,0.0,0.0,0.0,0.0,0.0,0.0,0.0,0.0,0.0,0.0,0.0,0.0,0.0,0.0,0.0,0.0,0.0,0.0,0.0,0.6508,9.288,0.7896,-1.3428,19.4092,-15.686,79.9146,-1.0437,-36.8701,0.6114,0.1965,-0.2479,0.7253,-0.4163,9.8431,-1.0958,75.0732,-21.2402,11.1694,84.4189,2.6038,-26.7737,0.6495,0.1719,-0.1566,0.7239,-3.7324,9.9723,-2.7563,43.2739,-28.9307,-3.8452,99.0088,3.6035,-23.5986,0.7398,0.1754,-0.1093,0.6402,-1.0719,0.7752,9.9101,2.4414,1.9531,-1.2817,2.8729,4.9384,-89.1595,-0.0124,0.0483,-0.7003,0.7121,0.0096,11.4557,-3.986,-127.3804,31.7993,30.0903,97.5586,-1.8127,-32.8601,0.7243,0.2027,-0.1978,0.6286,2.9812,4.0961,-9.9292,48.5229,-45.2271,20.5078,146.25,-10.0031,-33.5468,0.92,0.2509,-0.1633,0.2528,14.767,3.9238,47.4879,-96.1304,-93.8721,-67.5049,57.821,4.6857,-99.8108,0.2837,0.3926,-0.6564,0.5784,0,0,0,0,0,0,0,0,0,0,0,0,0,0,0,0,0,0,64769,0,17931,16900,0,0,0,0,52239,55042,0,0,4610,0,33796,39682,34054,0
1777289443.795057,358747,1777289440.6257348,1777289442.1378372,1777289440.7550712,0,0,-1512.1023654937744,-129.33635711669922,1,1,0.0,0.0,0.0,0.0,0.0,0.0,0.0,0.0,0.0,0.0,0.0,0.0,0.0,0.0,0.0,0.0,0.0,0.0,0.0,0.0,0.0,0.0,0.0,0.0,0.0,0.0,0.0,0.0,0.0,0.0,0.0,0.0,0.0,0.0,0.0,0.0,0.0,0.0,0.0,0.0,0.0,0.0,0.0,0.0,0.0,0.0,0.0,0.0,0.0,0.0,0.0,0.0,0.0,0.0,0.0,0.0,0.0,0.0,0.0,0.0,0.0,0.0,0.0,0.0,0.0,0.0,0.0,0.0,0.0,0.0,0.0,0.0,0.0,0.0,0.0,0.6508,9.288,0.7896,-1.3428,19.4092,-15.686,79.9146,-1.0437,-36.8701,0.6114,0.1965,-0.2479,0.7253,-0.4163,9.8431,-1.0958,75.0732,-21.2402,11.1694,84.4189,2.6038,-26.7737,0.6495,0.1719,-0.1566,0.7239,-3.7324,9.9723,-2.7563,43.2739,-28.9307,-3.8452,99.0088,3.6035,-23.5986,0.7398,0.1754,-0.1093,0.6402,-1.0719,0.7752,9.9101,2.4414,1.9531,-1.2817,2.8729,4.9384,-89.1595,-0.0124,0.0483,-0.7003,0.7121,0.0096,11.4557,-3.986,-127.3804,31.7993,30.0903,97.5586,-1.8127,-32.8601,0.7243,0.2027,-0.1978,0.6286,2.9812,4.0961,-9.9292,48.5229,-45.2271,20.5078,146.25,-10.0031,-33.5468,0.92,0.2509,-0.1633,0.2528,14.767,3.9238,47.4879,-96.1304,-93.8721,-67.5049,57.821,4.6857,-99.8108,0.2837,0.3926,-0.6564,0.5784,0,0,0,0,0,0,0,0,0,0,0,0,0,0,0,0,0,0,64769,0,17931,16900,0,0,0,0,52239,55042,0,0,4610,0,33796,39682,34054,0
1777289443.795057,358748,1777289440.635865,1777289442.1378372,1777289440.7550712,0,0,-1501.9721984863281,-119.20619010925293,1,1,0.0,0.0,0.0,0.0,0.0,0.0,0.0,0.0,0.0,0.0,0.0,0.0,0.0,0.0,0.0,0.0,0.0,0.0,0.0,0.0,0.0,0.0,0.0,0.0,0.0,0.0,0.0,0.0,0.0,0.0,0.0,0.0,0.0,0.0,0.0,0.0,0.0,0.0,0.0,0.0,0.0,0.0,0.0,0.0,0.0,0.0,0.0,0.0,0.0,0.0,0.0,0.0,0.0,0.0,0.0,0.0,0.0,0.0,0.0,0.0,0.0,0.0,0.0,0.0,0.0,0.0,0.0,0.0,0.0,0.0,0.0,0.0,0.0,0.0,0.0,0.6508,9.288,0.7896,-1.3428,19.4092,-15.686,79.9146,-1.0437,-36.8701,0.6114,0.1965,-0.2479,0.7253,-0.4163,9.8431,-1.0958,75.0732,-21.2402,11.1694,84.4189,2.6038,-26.7737,0.6495,0.1719,-0.1566,0.7239,-3.7324,9.9723,-2.7563,43.2739,-28.9307,-3.8452,99.0088,3.6035,-23.5986,0.7398,0.1754,-0.1093,0.6402,-1.0719,0.7752,9.9101,2.4414,1.9531,-1.2817,2.8729,4.9384,-89.1595,-0.0124,0.0483,-0.7003,0.7121,0.0096,11.4557,-3.986,-127.3804,31.7993,30.0903,97.5586,-1.8127,-32.8601,0.7243,0.2027,-0.1978,0.6286,2.9812,4.0961,-9.9292,48.5229,-45.2271,20.5078,146.25,-10.0031,-33.5468,0.92,0.2509,-0.1633,0.2528,14.767,3.9238,47.4879,-96.1304,-93.8721,-67.5049,57.821,4.6857,-99.8108,0.2837,0.3926,-0.6564,0.5784,0,0,0,0,0,0,0,0,0,0,0,0,0,0,0,0,0,0,64769,0,17931,16900,0,0,0,0,52239,55042,0,0,4610,0,33796,39682,34054,0
1777289443.795057,358749,1777289440.6529944,1777289442.1378372,1777289440.7550712,0,0,-1484.8427772521973,-102.07676887512207,1,1,0.0,0.0,0.0,0.0,0.0,0.0,0.0,0.0,0.0,0.0,0.0,0.0,0.0,0.0,0.0,0.0,0.0,0.0,0.0,0.0,0.0,0.0,0.0,0.0,0.0,0.0,0.0,0.0,0.0,0.0,0.0,0.0,0.0,0.0,0.0,0.0,0.0,0.0,0.0,0.0,0.0,0.0,0.0,0.0,0.0,0.0,0.0,0.0,0.0,0.0,0.0,0.0,0.0,0.0,0.0,0.0,0.0,0.0,0.0,0.0,0.0,0.0,0.0,0.0,0.0,0.0,0.0,0.0,0.0,0.0,0.0,0.0,0.0,0.0,0.0,0.6508,9.288,0.7896,-1.3428,19.4092,-15.686,79.9146,-1.0437,-36.8701,0.6114,0.1965,-0.2479,0.7253,-0.4163,9.8431,-1.0958,75.0732,-21.2402,11.1694,84.4189,2.6038,-26.7737,0.6495,0.1719,-0.1566,0.7239,-3.7324,9.9723,-2.7563,43.2739,-28.9307,-3.8452,99.0088,3.6035,-23.5986,0.7398,0.1754,-0.1093,0.6402,-1.0719,0.7752,9.9101,2.4414,1.9531,-1.2817,2.8729,4.9384,-89.1595,-0.0124,0.0483,-0.7003,0.7121,0.0096,11.4557,-3.986,-127.3804,31.7993,30.0903,97.5586,-1.8127,-32.8601,0.7243,0.2027,-0.1978,0.6286,2.9812,4.0961,-9.9292,48.5229,-45.2271,20.5078,146.25,-10.0031,-33.5468,0.92,0.2509,-0.1633,0.2528,14.767,3.9238,47.4879,-96.1304,-93.8721,-67.5049,57.821,4.6857,-99.8108,0.2837,0.3926,-0.6564,0.5784,0,0,0,0,0,0,0,0,0,0,0,0,0,0,0,0,0,0,64769,0,17931,16900,0,0,0,0,52239,55042,0,0,4610,0,33796,39682,34054,0
1777289443.795057,358750,1777289440.6566503,1777289442.1378372,1777289440.7550712,0,0,-1481.186866760254,-98.42085838317871,1,1,0.0,0.0,0.0,0.0,0.0,0.0,0.0,0.0,0.0,0.0,0.0,0.0,0.0,0.0,0.0,0.0,0.0,0.0,0.0,0.0,0.0,0.0,0.0,0.0,0.0,0.0,0.0,0.0,0.0,0.0,0.0,0.0,0.0,0.0,0.0,0.0,0.0,0.0,0.0,0.0,0.0,0.0,0.0,0.0,0.0,0.0,0.0,0.0,0.0,0.0,0.0,0.0,0.0,0.0,0.0,0.0,0.0,0.0,0.0,0.0,0.0,0.0,0.0,0.0,0.0,0.0,0.0,0.0,0.0,0.0,0.0,0.0,0.0,0.0,0.0,0.6508,9.288,0.7896,-1.3428,19.4092,-15.686,79.9146,-1.0437,-36.8701,0.6114,0.1965,-0.2479,0.7253,-0.4163,9.8431,-1.0958,75.0732,-21.2402,11.1694,84.4189,2.6038,-26.7737,0.6495,0.1719,-0.1566,0.7239,-3.7324,9.9723,-2.7563,43.2739,-28.9307,-3.8452,99.0088,3.6035,-23.5986,0.7398,0.1754,-0.1093,0.6402,-1.0719,0.7752,9.9101,2.4414,1.9531,-1.2817,2.8729,4.9384,-89.1595,-0.0124,0.0483,-0.7003,0.7121,0.0096,11.4557,-3.986,-127.3804,31.7993,30.0903,97.5586,-1.8127,-32.8601,0.7243,0.2027,-0.1978,0.6286,2.9812,4.0961,-9.9292,48.5229,-45.2271,20.5078,146.25,-10.0031,-33.5468,0.92,0.2509,-0.1633,0.2528,14.767,3.9238,47.4879,-96.1304,-93.8721,-67.5049,57.821,4.6857,-99.8108,0.2837,0.3926,-0.6564,0.5784,0,0,0,0,0,0,0,0,0,0,0,0,0,0,0,0,0,0,64769,0,17931,16900,0,0,0,0,52239,55042,0,0,4610,0,33796,39682,34054,0
1777289443.795057,358751,1777289440.6650934,1777289442.1378372,1777289440.7550712,0,0,-1472.7437496185303,-89.97774124145508,1,1,0.0,0.0,0.0,0.0,0.0,0.0,0.0,0.0,0.0,0.0,0.0,0.0,0.0,0.0,0.0,0.0,0.0,0.0,0.0,0.0,0.0,0.0,0.0,0.0,0.0,0.0,0.0,0.0,0.0,0.0,0.0,0.0,0.0,0.0,0.0,0.0,0.0,0.0,0.0,0.0,0.0,0.0,0.0,0.0,0.0,0.0,0.0,0.0,0.0,0.0,0.0,0.0,0.0,0.0,0.0,0.0,0.0,0.0,0.0,0.0,0.0,0.0,0.0,0.0,0.0,0.0,0.0,0.0,0.0,0.0,0.0,0.0,0.0,0.0,0.0,0.6508,9.288,0.7896,-1.3428,19.4092,-15.686,79.9146,-1.0437,-36.8701,0.6114,0.1965,-0.2479,0.7253,-0.4163,9.8431,-1.0958,75.0732,-21.2402,11.1694,84.4189,2.6038,-26.7737,0.6495,0.1719,-0.1566,0.7239,-3.7324,9.9723,-2.7563,43.2739,-28.9307,-3.8452,99.0088,3.6035,-23.5986,0.7398,0.1754,-0.1093,0.6402,-1.0719,0.7752,9.9101,2.4414,1.9531,-1.2817,2.8729,4.9384,-89.1595,-0.0124,0.0483,-0.7003,0.7121,0.0096,11.4557,-3.986,-127.3804,31.7993,30.0903,97.5586,-1.8127,-32.8601,0.7243,0.2027,-0.1978,0.6286,2.9812,4.0961,-9.9292,48.5229,-45.2271,20.5078,146.25,-10.0031,-33.5468,0.92,0.2509,-0.1633,0.2528,14.767,3.9238,47.4879,-96.1304,-93.8721,-67.5049,57.821,4.6857,-99.8108,0.2837,0.3926,-0.6564,0.5784,0,0,0,0,0,0,0,0,0,0,0,0,0,0,0,0,0,0,64769,0,17931,16900,0,0,0,0,52239,55042,0,0,4610,0,33796,39682,34054,0
1777289443.795057,358752,1777289440.6752517,1777289442.1378372,1777289440.7550712,0,0,-1462.58544921875,-79.8194408416748,1,1,0.0,0.0,0.0,0.0,0.0,0.0,0.0,0.0,0.0,0.0,0.0,0.0,0.0,0.0,0.0,0.0,0.0,0.0,0.0,0.0,0.0,0.0,0.0,0.0,0.0,0.0,0.0,0.0,0.0,0.0,0.0,0.0,0.0,0.0,0.0,0.0,0.0,0.0,0.0,0.0,0.0,0.0,0.0,0.0,0.0,0.0,0.0,0.0,0.0,0.0,0.0,0.0,0.0,0.0,0.0,0.0,0.0,0.0,0.0,0.0,0.0,0.0,0.0,0.0,0.0,0.0,0.0,0.0,0.0,0.0,0.0,0.0,0.0,0.0,0.0,0.6508,9.288,0.7896,-1.3428,19.4092,-15.686,79.9146,-1.0437,-36.8701,0.6114,0.1965,-0.2479,0.7253,-0.4163,9.8431,-1.0958,75.0732,-21.2402,11.1694,84.4189,2.6038,-26.7737,0.6495,0.1719,-0.1566,0.7239,-3.7324,9.9723,-2.7563,43.2739,-28.9307,-3.8452,99.0088,3.6035,-23.5986,0.7398,0.1754,-0.1093,0.6402,-1.0719,0.7752,9.9101,2.4414,1.9531,-1.2817,2.8729,4.9384,-89.1595,-0.0124,0.0483,-0.7003,0.7121,0.0096,11.4557,-3.986,-127.3804,31.7993,30.0903,97.5586,-1.8127,-32.8601,0.7243,0.2027,-0.1978,0.6286,2.9812,4.0961,-9.9292,48.5229,-45.2271,20.5078,146.25,-10.0031,-33.5468,0.92,0.2509,-0.1633,0.2528,14.767,3.9238,47.4879,-96.1304,-93.8721,-67.5049,57.821,4.6857,-99.8108,0.2837,0.3926,-0.6564,0.5784,0,0,0,0,0,0,0,0,0,0,0,0,0,0,0,0,0,0,64769,0,17931,16900,0,0,0,0,52239,55042,0,0,4610,0,33796,39682,34054,0
1777289443.7960505,358753,1777289440.685675,1777289442.1378372,1777289440.7550712,0,0,-1452.162265777588,-69.3962574005127,1,1,0.0,0.0,0.0,0.0,0.0,0.0,0.0,0.0,0.0,0.0,0.0,0.0,0.0,0.0,0.0,0.0,0.0,0.0,0.0,0.0,0.0,0.0,0.0,0.0,0.0,0.0,0.0,0.0,0.0,0.0,0.0,0.0,0.0,0.0,0.0,0.0,0.0,0.0,0.0,0.0,0.0,0.0,0.0,0.0,0.0,0.0,0.0,0.0,0.0,0.0,0.0,0.0,0.0,0.0,0.0,0.0,0.0,0.0,0.0,0.0,0.0,0.0,0.0,0.0,0.0,0.0,0.0,0.0,0.0,0.0,0.0,0.0,0.0,0.0,0.0,0.6508,9.288,0.7896,-1.3428,19.4092,-15.686,79.9146,-1.0437,-36.8701,0.6114,0.1965,-0.2479,0.7253,-0.4163,9.8431,-1.0958,75.0732,-21.2402,11.1694,84.4189,2.6038,-26.7737,0.6495,0.1719,-0.1566,0.7239,-3.7324,9.9723,-2.7563,43.2739,-28.9307,-3.8452,99.0088,3.6035,-23.5986,0.7398,0.1754,-0.1093,0.6402,-1.0719,0.7752,9.9101,2.4414,1.9531,-1.2817,2.8729,4.9384,-89.1595,-0.0124,0.0483,-0.7003,0.7121,0.0096,11.4557,-3.986,-127.3804,31.7993,30.0903,97.5586,-1.8127,-32.8601,0.7243,0.2027,-0.1978,0.6286,2.9812,4.0961,-9.9292,48.5229,-45.2271,20.5078,146.25,-10.0031,-33.5468,0.92,0.2509,-0.1633,0.2528,14.767,3.9238,47.4879,-96.1304,-93.8721,-67.5049,57.821,4.6857,-99.8108,0.2837,0.3926,-0.6564,0.5784,0,0,0,0,0,0,0,0,0,0,0,0,0,0,0,0,0,0,64769,0,17931,16900,0,0,0,0,52239,55042,0,0,4610,0,33796,39682,34054,0
1777289443.7960505,358754,1777289440.6958303,1777289442.1378372,1777289440.7550712,0,0,-1442.0068264007568,-59.24081802368164,1,1,0.0,0.0,0.0,0.0,0.0,0.0,0.0,0.0,0.0,0.0,0.0,0.0,0.0,0.0,0.0,0.0,0.0,0.0,0.0,0.0,0.0,0.0,0.0,0.0,0.0,0.0,0.0,0.0,0.0,0.0,0.0,0.0,0.0,0.0,0.0,0.0,0.0,0.0,0.0,0.0,0.0,0.0,0.0,0.0,0.0,0.0,0.0,0.0,0.0,0.0,0.0,0.0,0.0,0.0,0.0,0.0,0.0,0.0,0.0,0.0,0.0,0.0,0.0,0.0,0.0,0.0,0.0,0.0,0.0,0.0,0.0,0.0,0.0,0.0,0.0,0.6508,9.288,0.7896,-1.3428,19.4092,-15.686,79.9146,-1.0437,-36.8701,0.6114,0.1965,-0.2479,0.7253,-0.4163,9.8431,-1.0958,75.0732,-21.2402,11.1694,84.4189,2.6038,-26.7737,0.6495,0.1719,-0.1566,0.7239,-3.7324,9.9723,-2.7563,43.2739,-28.9307,-3.8452,99.0088,3.6035,-23.5986,0.7398,0.1754,-0.1093,0.6402,-1.0719,0.7752,9.9101,2.4414,1.9531,-1.2817,2.8729,4.9384,-89.1595,-0.0124,0.0483,-0.7003,0.7121,0.0096,11.4557,-3.986,-127.3804,31.7993,30.0903,97.5586,-1.8127,-32.8601,0.7243,0.2027,-0.1978,0.6286,2.9812,4.0961,-9.9292,48.5229,-45.2271,20.5078,146.25,-10.0031,-33.5468,0.92,0.2509,-0.1633,0.2528,14.767,3.9238,47.4879,-96.1304,-93.8721,-67.5049,57.821,4.6857,-99.8108,0.2837,0.3926,-0.6564,0.5784,0,0,0,0,0,0,0,0,0,0,0,0,0,0,0,0,0,0,64769,0,17931,16900,0,0,0,0,52239,55042,0,0,4610,0,33796,39682,34054,0
1777289443.7960505,358755,1777289440.7053485,1777289442.1378372,1777289440.7550712,0,0,-1432.4886798858643,-49.72267150878906,1,1,0.0,0.0,0.0,0.0,0.0,0.0,0.0,0.0,0.0,0.0,0.0,0.0,0.0,0.0,0.0,0.0,0.0,0.0,0.0,0.0,0.0,0.0,0.0,0.0,0.0,0.0,0.0,0.0,0.0,0.0,0.0,0.0,0.0,0.0,0.0,0.0,0.0,0.0,0.0,0.0,0.0,0.0,0.0,0.0,0.0,0.0,0.0,0.0,0.0,0.0,0.0,0.0,0.0,0.0,0.0,0.0,0.0,0.0,0.0,0.0,0.0,0.0,0.0,0.0,0.0,0.0,0.0,0.0,0.0,0.0,0.0,0.0,0.0,0.0,0.0,0.6508,9.288,0.7896,-1.3428,19.4092,-15.686,79.9146,-1.0437,-36.8701,0.6114,0.1965,-0.2479,0.7253,-0.4163,9.8431,-1.0958,75.0732,-21.2402,11.1694,84.4189,2.6038,-26.7737,0.6495,0.1719,-0.1566,0.7239,-3.7324,9.9723,-2.7563,43.2739,-28.9307,-3.8452,99.0088,3.6035,-23.5986,0.7398,0.1754,-0.1093,0.6402,-1.0719,0.7752,9.9101,2.4414,1.9531,-1.2817,2.8729,4.9384,-89.1595,-0.0124,0.0483,-0.7003,0.7121,0.0096,11.4557,-3.986,-127.3804,31.7993,30.0903,97.5586,-1.8127,-32.8601,0.7243,0.2027,-0.1978,0.6286,2.9812,4.0961,-9.9292,48.5229,-45.2271,20.5078,146.25,-10.0031,-33.5468,0.92,0.2509,-0.1633,0.2528,14.767,3.9238,47.4879,-96.1304,-93.8721,-67.5049,57.821,4.6857,-99.8108,0.2837,0.3926,-0.6564,0.5784,0,0,0,0,0,0,0,0,0,0,0,0,0,0,0,0,0,0,64769,0,17931,16900,0,0,0,0,52239,55042,0,0,4610,0,33796,39682,34054,0
1777289443.7960505,358756,1777289440.7230031,1777289442.1378372,1777289440.7550712,0,0,-1414.8340225219727,-32.06801414489746,1,1,0.0,0.0,0.0,0.0,0.0,0.0,0.0,0.0,0.0,0.0,0.0,0.0,0.0,0.0,0.0,0.0,0.0,0.0,0.0,0.0,0.0,0.0,0.0,0.0,0.0,0.0,0.0,0.0,0.0,0.0,0.0,0.0,0.0,0.0,0.0,0.0,0.0,0.0,0.0,0.0,0.0,0.0,0.0,0.0,0.0,0.0,0.0,0.0,0.0,0.0,0.0,0.0,0.0,0.0,0.0,0.0,0.0,0.0,0.0,0.0,0.0,0.0,0.0,0.0,0.0,0.0,0.0,0.0,0.0,0.0,0.0,0.0,0.0,0.0,0.0,0.6508,9.288,0.7896,-1.3428,19.4092,-15.686,79.9146,-1.0437,-36.8701,0.6114,0.1965,-0.2479,0.7253,-0.4163,9.8431,-1.0958,75.0732,-21.2402,11.1694,84.4189,2.6038,-26.7737,0.6495,0.1719,-0.1566,0.7239,-3.7324,9.9723,-2.7563,43.2739,-28.9307,-3.8452,99.0088,3.6035,-23.5986,0.7398,0.1754,-0.1093,0.6402,-1.0719,0.7752,9.9101,2.4414,1.9531,-1.2817,2.8729,4.9384,-89.1595,-0.0124,0.0483,-0.7003,0.7121,0.0096,11.4557,-3.986,-127.3804,31.7993,30.0903,97.5586,-1.8127,-32.8601,0.7243,0.2027,-0.1978,0.6286,2.9812,4.0961,-9.9292,48.5229,-45.2271,20.5078,146.25,-10.0031,-33.5468,0.92,0.2509,-0.1633,0.2528,14.767,3.9238,47.4879,-96.1304,-93.8721,-67.5049,57.821,4.6857,-99.8108,0.2837,0.3926,-0.6564,0.5784,0,0,0,0,0,0,0,0,0,0,0,0,0,0,0,0,0,0,64769,0,17931,16900,0,0,0,0,52239,55042,0,0,4610,0,33796,39682,34054,0
1777289443.7960505,358757,1777289440.7251937,1777289442.1378372,1777289440.7550712,0,0,-1412.6434326171875,-29.877424240112305,1,1,0.0,0.0,0.0,0.0,0.0,0.0,0.0,0.0,0.0,0.0,0.0,0.0,0.0,0.0,0.0,0.0,0.0,0.0,0.0,0.0,0.0,0.0,0.0,0.0,0.0,0.0,0.0,0.0,0.0,0.0,0.0,0.0,0.0,0.0,0.0,0.0,0.0,0.0,0.0,0.0,0.0,0.0,0.0,0.0,0.0,0.0,0.0,0.0,0.0,0.0,0.0,0.0,0.0,0.0,0.0,0.0,0.0,0.0,0.0,0.0,0.0,0.0,0.0,0.0,0.0,0.0,0.0,0.0,0.0,0.0,0.0,0.0,0.0,0.0,0.0,0.6508,9.288,0.7896,-1.3428,19.4092,-15.686,79.9146,-1.0437,-36.8701,0.6114,0.1965,-0.2479,0.7253,-0.4163,9.8431,-1.0958,75.0732,-21.2402,11.1694,84.4189,2.6038,-26.7737,0.6495,0.1719,-0.1566,0.7239,-3.7324,9.9723,-2.7563,43.2739,-28.9307,-3.8452,99.0088,3.6035,-23.5986,0.7398,0.1754,-0.1093,0.6402,-1.0719,0.7752,9.9101,2.4414,1.9531,-1.2817,2.8729,4.9384,-89.1595,-0.0124,0.0483,-0.7003,0.7121,0.0096,11.4557,-3.986,-127.3804,31.7993,30.0903,97.5586,-1.8127,-32.8601,0.7243,0.2027,-0.1978,0.6286,2.9812,4.0961,-9.9292,48.5229,-45.2271,20.5078,146.25,-10.0031,-33.5468,0.92,0.2509,-0.1633,0.2528,14.767,3.9238,47.4879,-96.1304,-93.8721,-67.5049,57.821,4.6857,-99.8108,0.2837,0.3926,-0.6564,0.5784,0,0,0,0,0,0,0,0,0,0,0,0,0,0,0,0,0,0,64769,0,17931,16900,0,0,0,0,52239,55042,0,0,4610,0,33796,39682,34054,0
1777289443.7960505,358758,1777289440.7387943,1777289442.1378372,1777289440.7550712,0,0,-1399.0428447723389,-16.276836395263672,1,1,0.0,0.0,0.0,0.0,0.0,0.0,0.0,0.0,0.0,0.0,0.0,0.0,0.0,0.0,0.0,0.0,0.0,0.0,0.0,0.0,0.0,0.0,0.0,0.0,0.0,0.0,0.0,0.0,0.0,0.0,0.0,0.0,0.0,0.0,0.0,0.0,0.0,0.0,0.0,0.0,0.0,0.0,0.0,0.0,0.0,0.0,0.0,0.0,0.0,0.0,0.0,0.0,0.0,0.0,0.0,0.0,0.0,0.0,0.0,0.0,0.0,0.0,0.0,0.0,0.0,0.0,0.0,0.0,0.0,0.0,0.0,0.0,0.0,0.0,0.0,0.6508,9.288,0.7896,-1.3428,19.4092,-15.686,79.9146,-1.0437,-36.8701,0.6114,0.1965,-0.2479,0.7253,-0.4163,9.8431,-1.0958,75.0732,-21.2402,11.1694,84.4189,2.6038,-26.7737,0.6495,0.1719,-0.1566,0.7239,-3.7324,9.9723,-2.7563,43.2739,-28.9307,-3.8452,99.0088,3.6035,-23.5986,0.7398,0.1754,-0.1093,0.6402,-1.0719,0.7752,9.9101,2.4414,1.9531,-1.2817,2.8729,4.9384,-89.1595,-0.0124,0.0483,-0.7003,0.7121,0.0096,11.4557,-3.986,-127.3804,31.7993,30.0903,97.5586,-1.8127,-32.8601,0.7243,0.2027,-0.1978,0.6286,2.9812,4.0961,-9.9292,48.5229,-45.2271,20.5078,146.25,-10.0031,-33.5468,0.92,0.2509,-0.1633,0.2528,14.767,3.9238,47.4879,-96.1304,-93.8721,-67.5049,57.821,4.6857,-99.8108,0.2837,0.3926,-0.6564,0.5784,0,0,0,0,0,0,0,0,0,0,0,0,0,0,0,0,0,0,64769,0,17931,16900,0,0,0,0,52239,55042,0,0,4610,0,33796,39682,34054,0
1777289443.7960505,358759,1777289440.7447712,1777289442.1378372,1777289440.7550712,0,0,-1393.0659294128418,-10.299921035766602,1,1,0.0,0.0,0.0,0.0,0.0,0.0,0.0,0.0,0.0,0.0,0.0,0.0,0.0,0.0,0.0,0.0,0.0,0.0,0.0,0.0,0.0,0.0,0.0,0.0,0.0,0.0,0.0,0.0,0.0,0.0,0.0,0.0,0.0,0.0,0.0,0.0,0.0,0.0,0.0,0.0,0.0,0.0,0.0,0.0,0.0,0.0,0.0,0.0,0.0,0.0,0.0,0.0,0.0,0.0,0.0,0.0,0.0,0.0,0.0,0.0,0.0,0.0,0.0,0.0,0.0,0.0,0.0,0.0,0.0,0.0,0.0,0.0,0.0,0.0,0.0,0.6508,9.288,0.7896,-1.3428,19.4092,-15.686,79.9146,-1.0437,-36.8701,0.6114,0.1965,-0.2479,0.7253,-0.4163,9.8431,-1.0958,75.0732,-21.2402,11.1694,84.4189,2.6038,-26.7737,0.6495,0.1719,-0.1566,0.7239,-3.7324,9.9723,-2.7563,43.2739,-28.9307,-3.8452,99.0088,3.6035,-23.5986,0.7398,0.1754,-0.1093,0.6402,-1.0719,0.7752,9.9101,2.4414,1.9531,-1.2817,2.8729,4.9384,-89.1595,-0.0124,0.0483,-0.7003,0.7121,0.0096,11.4557,-3.986,-127.3804,31.7993,30.0903,97.5586,-1.8127,-32.8601,0.7243,0.2027,-0.1978,0.6286,2.9812,4.0961,-9.9292,48.5229,-45.2271,20.5078,146.25,-10.0031,-33.5468,0.92,0.2509,-0.1633,0.2528,14.767,3.9238,47.4879,-96.1304,-93.8721,-67.5049,57.821,4.6857,-99.8108,0.2837,0.3926,-0.6564,0.5784,0,0,0,0,0,0,0,0,0,0,0,0,0,0,0,0,0,0,64769,0,17931,16900,0,0,0,0,52239,55042,0,0,4610,0,33796,39682,34054,0
1777289443.7960505,358760,1777289440.7557209,1777289442.1378372,1777289440.7550712,0,0,-1382.1163177490234,0.6496906280517578,1,1,0.0,0.0,0.0,0.0,0.0,0.0,0.0,0.0,0.0,0.0,0.0,0.0,0.0,0.0,0.0,0.0,0.0,0.0,0.0,0.0,0.0,0.0,0.0,0.0,0.0,0.0,0.0,0.0,0.0,0.0,0.0,0.0,0.0,0.0,0.0,0.0,0.0,0.0,0.0,0.0,0.0,0.0,0.0,0.0,0.0,0.0,0.0,0.0,0.0,0.0,0.0,0.0,0.0,0.0,0.0,0.0,0.0,0.0,0.0,0.0,0.0,0.0,0.0,0.0,0.0,0.0,0.0,0.0,0.0,0.0,0.0,0.0,0.0,0.0,0.0,0.6508,9.288,0.7896,-1.3428,19.4092,-15.686,79.9146,-1.0437,-36.8701,0.6114,0.1965,-0.2479,0.7253,-0.4163,9.8431,-1.0958,75.0732,-21.2402,11.1694,84.4189,2.6038,-26.7737,0.6495,0.1719,-0.1566,0.7239,-3.7324,9.9723,-2.7563,43.2739,-28.9307,-3.8452,99.0088,3.6035,-23.5986,0.7398,0.1754,-0.1093,0.6402,-1.0719,0.7752,9.9101,2.4414,1.9531,-1.2817,2.8729,4.9384,-89.1595,-0.0124,0.0483,-0.7003,0.7121,0.0096,11.4557,-3.986,-127.3804,31.7993,30.0903,97.5586,-1.8127,-32.8601,0.7243,0.2027,-0.1978,0.6286,2.9812,4.0961,-9.9292,48.5229,-45.2271,20.5078,146.25,-10.0031,-33.5468,0.92,0.2509,-0.1633,0.2528,14.767,3.9238,47.4879,-96.1304,-93.8721,-67.5049,57.821,4.6857,-99.8108,0.2837,0.3926,-0.6564,0.5784,0,0,0,0,0,0,0,0,0,0,0,0,0,0,0,0,0,0,64769,0,17931,16900,0,0,0,0,52239,55042,0,0,4610,0,33796,39682,34054,0
1777289443.7960505,358761,1777289440.7647424,1777289442.1378372,1777289440.7550712,0,0,-1373.0947971343994,9.671211242675781,1,1,0.0,0.0,0.0,0.0,0.0,0.0,0.0,0.0,0.0,0.0,0.0,0.0,0.0,0.0,0.0,0.0,0.0,0.0,0.0,0.0,0.0,0.0,0.0,0.0,0.0,0.0,0.0,0.0,0.0,0.0,0.0,0.0,0.0,0.0,0.0,0.0,0.0,0.0,0.0,0.0,0.0,0.0,0.0,0.0,0.0,0.0,0.0,0.0,0.0,0.0,0.0,0.0,0.0,0.0,0.0,0.0,0.0,0.0,0.0,0.0,0.0,0.0,0.0,0.0,0.0,0.0,0.0,0.0,0.0,0.0,0.0,0.0,0.0,0.0,0.0,0.6508,9.288,0.7896,-1.3428,19.4092,-15.686,79.9146,-1.0437,-36.8701,0.6114,0.1965,-0.2479,0.7253,-0.4163,9.8431,-1.0958,75.0732,-21.2402,11.1694,84.4189,2.6038,-26.7737,0.6495,0.1719,-0.1566,0.7239,-3.7324,9.9723,-2.7563,43.2739,-28.9307,-3.8452,99.0088,3.6035,-23.5986,0.7398,0.1754,-0.1093,0.6402,-1.0719,0.7752,9.9101,2.4414,1.9531,-1.2817,2.8729,4.9384,-89.1595,-0.0124,0.0483,-0.7003,0.7121,0.0096,11.4557,-3.986,-127.3804,31.7993,30.0903,97.5586,-1.8127,-32.8601,0.7243,0.2027,-0.1978,0.6286,2.9812,4.0961,-9.9292,48.5229,-45.2271,20.5078,146.25,-10.0031,-33.5468,0.92,0.2509,-0.1633,0.2528,14.767,3.9238,47.4879,-96.1304,-93.8721,-67.5049,57.821,4.6857,-99.8108,0.2837,0.3926,-0.6564,0.5784,0,0,0,0,0,0,0,0,0,0,0,0,0,0,0,0,0,0,64769,0,17931,16900,0,0,0,0,52239,55042,0,0,4610,0,33796,39682,34054,0
1777289443.7960505,358762,1777289441.0761306,1777289442.1378372,1777289440.7550712,0,0,-1061.70654296875,321.0594654083252,1,1,0.0,0.0,0.0,0.0,0.0,0.0,0.0,0.0,0.0,0.0,0.0,0.0,0.0,0.0,0.0,0.0,0.0,0.0,0.0,0.0,0.0,0.0,0.0,0.0,0.0,0.0,0.0,0.0,0.0,0.0,0.0,0.0,0.0,0.0,0.0,0.0,0.0,0.0,0.0,0.0,0.0,0.0,0.0,0.0,0.0,0.0,0.0,0.0,0.0,0.0,0.0,0.0,0.0,0.0,0.0,0.0,0.0,0.0,0.0,0.0,0.0,0.0,0.0,0.0,0.0,0.0,0.0,0.0,0.0,0.0,0.0,0.0,0.0,0.0,0.0,0.6508,9.288,0.7896,-1.3428,19.4092,-15.686,79.9146,-1.0437,-36.8701,0.6114,0.1965,-0.2479,0.7253,-0.4163,9.8431,-1.0958,75.0732,-21.2402,11.1694,84.4189,2.6038,-26.7737,0.6495,0.1719,-0.1566,0.7239,-3.7324,9.9723,-2.7563,43.2739,-28.9307,-3.8452,99.0088,3.6035,-23.5986,0.7398,0.1754,-0.1093,0.6402,-1.0719,0.7752,9.9101,2.4414,1.9531,-1.2817,2.8729,4.9384,-89.1595,-0.0124,0.0483,-0.7003,0.7121,0.0096,11.4557,-3.986,-127.3804,31.7993,30.0903,97.5586,-1.8127,-32.8601,0.7243,0.2027,-0.1978,0.6286,2.9812,4.0961,-9.9292,48.5229,-45.2271,20.5078,146.25,-10.0031,-33.5468,0.92,0.2509,-0.1633,0.2528,14.767,3.9238,47.4879,-96.1304,-93.8721,-67.5049,57.821,4.6857,-99.8108,0.2837,0.3926,-0.6564,0.5784,0,0,0,0,0,0,0,0,0,0,0,0,0,0,0,0,0,0,64769,0,17931,16900,0,0,0,0,52239,55042,0,0,4610,0,33796,39682,34054,0
1777289443.7960505,358792,1777289441.0782938,1777289442.1378372,1777289440.7550712,1,29,-1059.5433712005615,323.2226371765137,1,1,0.0,0.0,0.0,0.0,0.0,0.0,0.0,0.0,0.0,0.0,0.0,0.0,0.0,0.0,0.0,0.0,0.0,0.0,0.0,0.0,0.0,0.0,0.0,0.0,0.0,0.0,0.0,0.0,0.0,0.0,0.0,0.0,0.0,0.0,0.0,0.0,0.0,0.0,0.0,0.0,0.0,0.0,0.0,0.0,0.0,0.0,0.0,0.0,0.0,0.0,0.0,0.0,0.0,0.0,0.0,0.0,0.0,0.0,0.0,0.0,0.0,0.0,0.0,0.0,0.0,0.0,0.0,0.0,0.0,0.0,0.0,0.0,0.0,0.0,0.0,0.6508,9.288,0.7896,-1.3428,19.4092,-15.686,79.9146,-1.0437,-36.8701,0.6114,0.1965,-0.2479,0.7253,-0.4163,9.8431,-1.0958,75.0732,-21.2402,11.1694,84.4189,2.6038,-26.7737,0.6495,0.1719,-0.1566,0.7239,-3.7324,9.9723,-2.7563,43.2739,-28.9307,-3.8452,99.0088,3.6035,-23.5986,0.7398,0.1754,-0.1093,0.6402,-1.0719,0.7752,9.9101,2.4414,1.9531,-1.2817,2.8729,4.9384,-89.1595,-0.0124,0.0483,-0.7003,0.7121,0.0096,11.4557,-3.986,-127.3804,31.7993,30.0903,97.5586,-1.8127,-32.8601,0.7243,0.2027,-0.1978,0.6286,2.9812,4.0961,-9.9292,48.5229,-45.2271,20.5078,146.25,-10.0031,-33.5468,0.92,0.2509,-0.1633,0.2528,14.767,3.9238,47.4879,-96.1304,-93.8721,-67.5049,57.821,4.6857,-99.8108,0.2837,0.3926,-0.6564,0.5784,0,0,0,0,0,0,0,0,0,0,0,0,0,0,0,0,0,0,64769,0,17931,16900,0,0,0,0,52239,55042,0,0,4610,0,33796,39682,34054,0
1777289443.7960505,358793,1777289441.0856495,1777289442.1378372,1777289440.7550712,0,0,-1052.1876811981201,330.5783271789551,1,1,0.0,0.0,0.0,0.0,0.0,0.0,0.0,0.0,0.0,0.0,0.0,0.0,0.0,0.0,0.0,0.0,0.0,0.0,0.0,0.0,0.0,0.0,0.0,0.0,0.0,0.0,0.0,0.0,0.0,0.0,0.0,0.0,0.0,0.0,0.0,0.0,0.0,0.0,0.0,0.0,0.0,0.0,0.0,0.0,0.0,0.0,0.0,0.0,0.0,0.0,0.0,0.0,0.0,0.0,0.0,0.0,0.0,0.0,0.0,0.0,0.0,0.0,0.0,0.0,0.0,0.0,0.0,0.0,0.0,0.0,0.0,0.0,0.0,0.0,0.0,0.6508,9.288,0.7896,-1.3428,19.4092,-15.686,79.9146,-1.0437,-36.8701,0.6114,0.1965,-0.2479,0.7253,-0.4163,9.8431,-1.0958,75.0732,-21.2402,11.1694,84.4189,2.6038,-26.7737,0.6495,0.1719,-0.1566,0.7239,-3.7324,9.9723,-2.7563,43.2739,-28.9307,-3.8452,99.0088,3.6035,-23.5986,0.7398,0.1754,-0.1093,0.6402,-1.0719,0.7752,9.9101,2.4414,1.9531,-1.2817,2.8729,4.9384,-89.1595,-0.0124,0.0483,-0.7003,0.7121,0.0096,11.4557,-3.986,-127.3804,31.7993,30.0903,97.5586,-1.8127,-32.8601,0.7243,0.2027,-0.1978,0.6286,2.9812,4.0961,-9.9292,48.5229,-45.2271,20.5078,146.25,-10.0031,-33.5468,0.92,0.2509,-0.1633,0.2528,14.767,3.9238,47.4879,-96.1304,-93.8721,-67.5049,57.821,4.6857,-99.8108,0.2837,0.3926,-0.6564,0.5784,0,0,0,0,0,0,0,0,0,0,0,0,0,0,0,0,0,0,64769,0,17931,16900,0,0,0,0,52239,55042,0,0,4610,0,33796,39682,34054,0
1777289443.7970493,358794,1777289441.0953574,1777289442.1378372,1777289440.7550712,0,0,-1042.4797534942627,340.2862548828125,1,1,0.0,0.0,0.0,0.0,0.0,0.0,0.0,0.0,0.0,0.0,0.0,0.0,0.0,0.0,0.0,0.0,0.0,0.0,0.0,0.0,0.0,0.0,0.0,0.0,0.0,0.0,0.0,0.0,0.0,0.0,0.0,0.0,0.0,0.0,0.0,0.0,0.0,0.0,0.0,0.0,0.0,0.0,0.0,0.0,0.0,0.0,0.0,0.0,0.0,0.0,0.0,0.0,0.0,0.0,0.0,0.0,0.0,0.0,0.0,0.0,0.0,0.0,0.0,0.0,0.0,0.0,0.0,0.0,0.0,0.0,0.0,0.0,0.0,0.0,0.0,0.6508,9.288,0.7896,-1.3428,19.4092,-15.686,79.9146,-1.0437,-36.8701,0.6114,0.1965,-0.2479,0.7253,-0.4163,9.8431,-1.0958,75.0732,-21.2402,11.1694,84.4189,2.6038,-26.7737,0.6495,0.1719,-0.1566,0.7239,-3.7324,9.9723,-2.7563,43.2739,-28.9307,-3.8452,99.0088,3.6035,-23.5986,0.7398,0.1754,-0.1093,0.6402,-1.0719,0.7752,9.9101,2.4414,1.9531,-1.2817,2.8729,4.9384,-89.1595,-0.0124,0.0483,-0.7003,0.7121,0.0096,11.4557,-3.986,-127.3804,31.7993,30.0903,97.5586,-1.8127,-32.8601,0.7243,0.2027,-0.1978,0.6286,2.9812,4.0961,-9.9292,48.5229,-45.2271,20.5078,146.25,-10.0031,-33.5468,0.92,0.2509,-0.1633,0.2528,14.767,3.9238,47.4879,-96.1304,-93.8721,-67.5049,57.821,4.6857,-99.8108,0.2837,0.3926,-0.6564,0.5784,0,0,0,0,0,0,0,0,0,0,0,0,0,0,0,0,0,0,64769,0,17931,16900,0,0,0,0,52239,55042,0,0,4610,0,33796,39682,34054,0
1777289443.7970493,358795,1777289441.1060078,1777289442.1378372,1777289441.1060078,0,0,-1031.8293571472168,0.0,1,1,0.0,0.0,0.0,0.0,0.0,0.0,0.0,0.0,0.0,0.0,0.0,0.0,0.0,0.0,0.0,0.0,0.0,0.0,0.0,0.0,0.0,0.0,0.0,0.0,0.0,0.0,0.0,0.0,0.0,0.0,0.0,0.0,0.0,0.0,0.0,0.0,0.0,0.0,0.0,0.0,0.0,0.0,0.0,0.0,0.0,0.0,0.0,0.0,0.0,0.0,0.0,0.0,0.0,0.0,0.0,0.0,0.0,0.0,0.0,0.0,0.0,0.0,0.0,0.0,0.0,0.0,0.0,0.0,0.0,0.0,0.0,0.0,0.0,0.0,0.0,0.6508,9.288,0.7896,-1.3428,19.4092,-15.686,79.9146,-1.0437,-36.8701,0.6114,0.1965,-0.2479,0.7253,-0.4163,9.8431,-1.0958,75.0732,-21.2402,11.1694,84.4189,2.6038,-26.7737,0.6495,0.1719,-0.1566,0.7239,-3.7324,9.9723,-2.7563,43.2739,-28.9307,-3.8452,99.0088,3.6035,-23.5986,0.7398,0.1754,-0.1093,0.6402,-1.0719,0.7752,9.9101,2.4414,1.9531,-1.2817,2.8729,4.9384,-89.1595,-0.0124,0.0483,-0.7003,0.7121,0.0096,11.4557,-3.986,-127.3804,31.7993,30.0903,97.5586,-1.8127,-32.8601,0.7243,0.2027,-0.1978,0.6286,2.9812,4.0961,-9.9292,48.5229,-45.2271,20.5078,146.25,-10.0031,-33.5468,0.92,0.2509,-0.1633,0.2528,14.767,3.9238,47.4879,-96.1304,-93.8721,-67.5049,57.821,4.6857,-99.8108,0.2837,0.3926,-0.6564,0.5784,0,0,4622,46347,0,0,0,0,60177,6412,0,0,0,0,0,0,0,0,64769,0,17931,16900,0,0,0,0,52239,55042,0,0,4610,0,33796,39682,34054,0
1777289443.7970493,358796,1777289441.1212952,1777289442.1378372,1777289441.1060078,0,0,-1016.5419578552246,15.287399291992188,1,1,0.0,0.0,0.0,0.0,0.0,0.0,0.0,0.0,0.0,0.0,0.0,0.0,0.0,0.0,0.0,0.0,0.0,0.0,0.0,0.0,0.0,0.0,0.0,0.0,0.0,0.0,0.0,0.0,0.0,0.0,0.0,0.0,0.0,0.0,0.0,0.0,0.0,0.0,0.0,0.0,0.0,0.0,0.0,0.0,0.0,0.0,0.0,0.0,0.0,0.0,0.0,0.0,0.0,0.0,0.0,0.0,0.0,0.0,0.0,0.0,0.0,0.0,0.0,0.0,0.0,0.0,0.0,0.0,0.0,0.0,0.0,0.0,0.0,0.0,0.0,0.6508,9.288,0.7896,-1.3428,19.4092,-15.686,79.9146,-1.0437,-36.8701,0.6114,0.1965,-0.2479,0.7253,-0.4163,9.8431,-1.0958,75.0732,-21.2402,11.1694,84.4189,2.6038,-26.7737,0.6495,0.1719,-0.1566,0.7239,-3.7324,9.9723,-2.7563,43.2739,-28.9307,-3.8452,99.0088,3.6035,-23.5986,0.7398,0.1754,-0.1093,0.6402,-1.0719,0.7752,9.9101,2.4414,1.9531,-1.2817,2.8729,4.9384,-89.1595,-0.0124,0.0483,-0.7003,0.7121,0.0096,11.4557,-3.986,-127.3804,31.7993,30.0903,97.5586,-1.8127,-32.8601,0.7243,0.2027,-0.1978,0.6286,2.9812,4.0961,-9.9292,48.5229,-45.2271,20.5078,146.25,-10.0031,-33.5468,0.92,0.2509,-0.1633,0.2528,14.767,3.9238,47.4879,-96.1304,-93.8721,-67.5049,57.821,4.6857,-99.8108,0.2837,0.3926,-0.6564,0.5784,0,0,4622,46347,0,0,0,0,60177,6412,0,0,0,0,0,0,0,0,64769,0,17931,16900,0,0,0,0,52239,55042,0,0,4610,0,33796,39682,34054,0
