Recv_Timestamp,Device_Name,Acc_X,Acc_Y,Acc_Z,Gyro_X,Gyro_Y,Gyro_Z,Roll,Pitch,Yaw,Quat_x,Quat_y,Quat_z,Quat_w
1777287875.530703,Trunk,0.0,0.0,0.0,0.0,0.0,0.0,0.0,0.0,0.0,0.0,0.0,0.0,1.0
1777287875.530703,L_Femur,0.0,0.0,0.0,0.0,0.0,0.0,0.0,0.0,0.0,0.0,0.0,0.0,1.0
1777287875.530703,L_Tibia,1.1724,6.5987,-6.7949,-3.2349,-0.4883,1.2207,134.5441,-6.059,-30.3333,0.8943,0.2213,-0.148,0.3596
1777287875.530703,L_Foot,0.0,0.0,0.0,0.0,0.0,0.0,0.0,0.0,0.0,0.0,0.0,0.0,1.0
1777287875.530703,R_Femur,0.0,0.0,0.0,0.0,0.0,0.0,0.0,0.0,0.0,0.0,0.0,0.0,1.0
1777287875.530703,R_Tibia,0.0,0.0,0.0,0.0,0.0,0.0,0.0,0.0,0.0,0.0,0.0,0.0,1.0
1777287875.530703,R_Foot,0.0,0.0,0.0,0.0,0.0,0.0,0.0,0.0,0.0,0.0,0.0,0.0,1.0
1777287875.530703,Trunk,0.0,0.0,0.0,0.0,0.0,0.0,0.0,0.0,0.0,0.0,0.0,0.0,1.0
1777287875.530703,L_Femur,0.0,0.0,0.0,0.0,0.0,0.0,0.0,0.0,0.0,0.0,0.0,0.0,1.0
1777287875.530703,L_Tibia,1.1724,6.5987,-6.7949,-3.2349,-0.4883,1.2207,134.5441,-6.059,-30.3333,0.8943,0.2213,-0.148,0.3596
1777287875.530703,L_Foot,-0.8422,0.6125,9.9436,-1.6479,-1.2817,0.3052,3.5596,4.9823,-140.3339,-0.0303,0.0439,-0.9389,0.3401
1777287875.530703,R_Femur,0.0,0.0,0.0,0.0,0.0,0.0,0.0,0.0,0.0,0.0,0.0,0.0,1.0
1777287875.530703,R_Tibia,0.0,0.0,0.0,0.0,0.0,0.0,0.0,0.0,0.0,0.0,0.0,0.0,1.0
1777287875.530703,R_Foot,0.0,0.0,0.0,0.0,0.0,0.0,0.0,0.0,0.0,0.0,0.0,0.0,1.0
1777287875.531692,Trunk,0.0,0.0,0.0,0.0,0.0,0.0,0.0,0.0,0.0,0.0,0.0,0.0,1.0
1777287875.531692,L_Femur,0.0,0.0,0.0,0.0,0.0,0.0,0.0,0.0,0.0,0.0,0.0,0.0,1.0
1777287875.531692,L_Tibia,1.1724,6.5987,-6.7949,-3.2349,-0.4883,1.2207,134.5441,-6.059,-30.3333,0.8943,0.2213,-0.148,0.3596
1777287875.531692,L_Foot,-0.8422,0.6125,9.9436,-1.6479,-1.2817,0.3052,3.5596,4.9823,-140.3339,-0.0303,0.0439,-0.9389,0.3401
1777287875.531692,R_Femur,-1.7274,5.7661,7.7807,-1.1597,-0.7324,3.1128,38.0511,10.6403,-44.8956,0.2665,0.205,-0.3315,0.8815
1777287875.531692,R_Tibia,0.0,0.0,0.0,0.0,0.0,0.0,0.0,0.0,0.0,0.0,0.0,0.0,1.0
1777287875.531692,R_Foot,0.0,0.0,0.0,0.0,0.0,0.0,0.0,0.0,0.0,0.0,0.0,0.0,1.0
1777287875.531692,Trunk,0.0,0.0,0.0,0.0,0.0,0.0,0.0,0.0,0.0,0.0,0.0,0.0,1.0
1777287875.531692,L_Femur,0.0,0.0,0.0,0.0,0.0,0.0,0.0,0.0,0.0,0.0,0.0,0.0,1.0
1777287875.531692,L_Tibia,1.1724,6.5987,-6.7949,-3.2349,-0.4883,1.2207,134.5441,-6.059,-30.3333,0.8943,0.2213,-0.148,0.3596
1777287875.531692,L_Foot,-0.8422,0.6125,9.9436,-1.6479,-1.2817,0.3052,3.5596,4.9823,-140.3339,-0.0303,0.0439,-0.9389,0.3401
1777287875.531692,R_Femur,-1.7274,5.7661,7.7807,-1.1597,-0.7324,3.1128,38.0511,10.6403,-44.8956,0.2665,0.205,-0.3315,0.8815
1777287875.531692,R_Tibia,0.0,0.0,0.0,0.0,0.0,0.0,0.0,0.0,0.0,0.0,0.0,0.0,1.0
1777287875.531692,R_Foot,0.9953,0.201,9.9675,1.0376,0.1221,-0.061,0.7581,-5.5096,-89.6045,0.0386,-0.0294,-0.7041,0.7085
1777287875.531692,Trunk,1.7227,3.474,-8.9722,1.0376,0.8545,-0.9155,156.7859,-10.3107,-58.678,0.8593,0.4623,-0.1749,0.1316
1777287875.531692,L_Femur,0.0,0.0,0.0,0.0,0.0,0.0,0.0,0.0,0.0,0.0,0.0,0.0,1.0
1777287875.531692,L_Tibia,1.1724,6.5987,-6.7949,-3.2349,-0.4883,1.2207,134.5441,-6.059,-30.3333,0.8943,0.2213,-0.148,0.3596
1777287875.531692,L_Foot,-0.8422,0.6125,9.9436,-1.6479,-1.2817,0.3052,3.5596,4.9823,-140.3339,-0.0303,0.0439,-0.9389,0.3401
1777287875.531692,R_Femur,-1.7274,5.7661,7.7807,-1.1597,-0.7324,3.1128,38.0511,10.6403,-44.8956,0.2665,0.205,-0.3315,0.8815
1777287875.531692,R_Tibia,0.0,0.0,0.0,0.0,0.0,0.0,0.0,0.0,0.0,0.0,0.0,0.0,1.0
1777287875.531692,R_Foot,0.9953,0.201,9.9675,1.0376,0.1221,-0.061,0.7581,-5.5096,-89.6045,0.0386,-0.0294,-0.7041,0.7085
1777287875.531692,Trunk,1.7227,3.474,-8.9722,1.0376,0.8545,-0.9155,156.7859,-10.3107,-58.678,0.8593,0.4623,-0.1749,0.1316
1777287875.531692,L_Femur,-1.8327,7.2304,6.2829,-1.2207,1.3428,0.5493,49.444,12.3212,-45.1538,0.3465,0.2496,-0.3053,0.8511
1777287875.531692,L_Tibia,1.1724,6.5987,-6.7949,-3.2349,-0.4883,1.2207,134.5441,-6.059,-30.3333,0.8943,0.2213,-0.148,0.3596
1777287875.531692,L_Foot,-0.8422,0.6125,9.9436,-1.6479,-1.2817,0.3052,3.5596,4.9823,-140.3339,-0.0303,0.0439,-0.9389,0.3401
1777287875.531692,R_Femur,-1.7274,5.7661,7.7807,-1.1597,-0.7324,3.1128,38.0511,10.6403,-44.8956,0.2665,0.205,-0.3315,0.8815
1777287875.531692,R_Tibia,0.0,0.0,0.0,0.0,0.0,0.0,0.0,0.0,0.0,0.0,0.0,0.0,1.0
1777287875.531692,R_Foot,0.9953,0.201,9.9675,1.0376,0.1221,-0.061,0.7581,-5.5096,-89.6045,0.0386,-0.0294,-0.7041,0.7085
1777287875.532692,Trunk,1.7227,3.474,-8.9722,1.0376,0.8545,-0.9155,156.7859,-10.3107,-58.678,0.8593,0.4623,-0.1749,0.1316
1777287875.532692,L_Femur,-1.8327,7.2304,6.2829,-1.2207,1.3428,0.5493,49.444,12.3212,-45.1538,0.3465,0.2496,-0.3053,0.8511
1777287875.532692,L_Tibia,1.3638,6.7519,-6.7662,-0.1221,1.8311,0.3662,134.5331,-6.0699,-30.3168,0.8943,0.2211,-0.148,0.3597
1777287875.532692,L_Foot,-0.8422,0.6125,9.9436,-1.6479,-1.2817,0.3052,3.5596,4.9823,-140.3339,-0.0303,0.0439,-0.9389,0.3401
1777287875.532692,R_Femur,-1.7274,5.7661,7.7807,-1.1597,-0.7324,3.1128,38.0511,10.6403,-44.8956,0.2665,0.205,-0.3315,0.8815
1777287875.532692,R_Tibia,0.0,0.0,0.0,0.0,0.0,0.0,0.0,0.0,0.0,0.0,0.0,0.0,1.0
1777287875.532692,R_Foot,0.9953,0.201,9.9675,1.0376,0.1221,-0.061,0.7581,-5.5096,-89.6045,0.0386,-0.0294,-0.7041,0.7085
1777287875.532692,Trunk,1.7227,3.474,-8.9722,1.0376,0.8545,-0.9155,156.7859,-10.3107,-58.678,0.8593,0.4623,-0.1749,0.1316
1777287875.532692,L_Femur,-1.8327,7.2304,6.2829,-1.2207,1.3428,0.5493,49.444,12.3212,-45.1538,0.3465,0.2496,-0.3053,0.8511
1777287875.532692,L_Tibia,1.3638,6.7519,-6.7662,-0.1221,1.8311,0.3662,134.5331,-6.0699,-30.3168,0.8943,0.2211,-0.148,0.3597
1777287875.532692,L_Foot,-0.847,0.579,10.0345,-2.0752,-1.2207,0.3052,3.5321,4.9658,-140.3339,-0.0303,0.0437,-0.9389,0.3401
1777287875.532692,R_Femur,-1.7274,5.7661,7.7807,-1.1597,-0.7324,3.1128,38.0511,10.6403,-44.8956,0.2665,0.205,-0.3315,0.8815
1777287875.532692,R_Tibia,0.0,0.0,0.0,0.0,0.0,0.0,0.0,0.0,0.0,0.0,0.0,0.0,1.0
1777287875.532692,R_Foot,0.9953,0.201,9.9675,1.0376,0.1221,-0.061,0.7581,-5.5096,-89.6045,0.0386,-0.0294,-0.7041,0.7085
1777287875.532692,Trunk,1.7227,3.474,-8.9722,1.0376,0.8545,-0.9155,156.7859,-10.3107,-58.678,0.8593,0.4623,-0.1749,0.1316
1777287875.532692,L_Femur,-1.8327,7.2304,6.2829,-1.2207,1.3428,0.5493,49.444,12.3212,-45.1538,0.3465,0.2496,-0.3053,0.8511
1777287875.532692,L_Tibia,1.3638,6.7519,-6.7662,-0.1221,1.8311,0.3662,134.5331,-6.0699,-30.3168,0.8943,0.2211,-0.148,0.3597
1777287875.532692,L_Foot,-0.847,0.579,10.0345,-2.0752,-1.2207,0.3052,3.5321,4.9658,-140.3339,-0.0303,0.0437,-0.9389,0.3401
1777287875.532692,R_Femur,-1.9188,5.9671,7.7472,-2.1973,0.2441,1.709,38.0127,10.6128,-44.8407,0.2664,0.2045,-0.3312,0.8818
1777287875.532692,R_Tibia,0.0,0.0,0.0,0.0,0.0,0.0,0.0,0.0,0.0,0.0,0.0,0.0,1.0
1777287875.532692,R_Foot,0.9953,0.201,9.9675,1.0376,0.1221,-0.061,0.7581,-5.5096,-89.6045,0.0386,-0.0294,-0.7041,0.7085
1777287875.532692,Trunk,1.7227,3.474,-8.9722,1.0376,0.8545,-0.9155,156.7859,-10.3107,-58.678,0.8593,0.4623,-0.1749,0.1316
1777287875.532692,L_Femur,-1.8327,7.2304,6.2829,-1.2207,1.3428,0.5493,49.444,12.3212,-45.1538,0.3465,0.2496,-0.3053,0.8511
1777287875.532692,L_Tibia,1.3638,6.7519,-6.7662,-0.1221,1.8311,0.3662,134.5331,-6.0699,-30.3168,0.8943,0.2211,-0.148,0.3597
1777287875.532692,L_Foot,-0.847,0.579,10.0345,-2.0752,-1.2207,0.3052,3.5321,4.9658,-140.3339,-0.0303,0.0437,-0.9389,0.3401
1777287875.532692,R_Femur,-1.9188,5.9671,7.7472,-2.1973,0.2441,1.709,38.0127,10.6128,-44.8407,0.2664,0.2045,-0.3312,0.8818
1777287875.532692,R_Tibia,-1.7274,9.1923,-3.1056,0.4883,3.2349,-0.7324,108.4241,7.218,-34.8376,0.7614,0.2775,-0.126,0.5721
1777287875.532692,R_Foot,0.9953,0.201,9.9675,1.0376,0.1221,-0.061,0.7581,-5.5096,-89.6045,0.0386,-0.0294,-0.7041,0.7085
1777287875.532692,Trunk,1.7322,3.5075,-8.9578,-0.9155,1.77,-0.1831,156.7639,-10.3326,-58.6725,0.8593,0.4621,-0.1752,0.1316
1777287875.532692,L_Femur,-1.8327,7.2304,6.2829,-1.2207,1.3428,0.5493,49.444,12.3212,-45.1538,0.3465,0.2496,-0.3053,0.8511
1777287875.532692,L_Tibia,1.3638,6.7519,-6.7662,-0.1221,1.8311,0.3662,134.5331,-6.0699,-30.3168,0.8943,0.2211,-0.148,0.3597
1777287875.532692,L_Foot,-0.847,0.579,10.0345,-2.0752,-1.2207,0.3052,3.5321,4.9658,-140.3339,-0.0303,0.0437,-0.9389,0.3401
1777287875.532692,R_Femur,-1.9188,5.9671,7.7472,-2.1973,0.2441,1.709,38.0127,10.6128,-44.8407,0.2664,0.2045,-0.3312,0.8818
1777287875.532692,R_Tibia,-1.7274,9.1923,-3.1056,0.4883,3.2349,-0.7324,108.4241,7.218,-34.8376,0.7614,0.2775,-0.126,0.5721
1777287875.532692,R_Foot,0.9953,0.201,9.9675,1.0376,0.1221,-0.061,0.7581,-5.5096,-89.6045,0.0386,-0.0294,-0.7041,0.7085
1777287875.533693,Trunk,1.7322,3.5075,-8.9578,-0.9155,1.77,-0.1831,156.7639,-10.3326,-58.6725,0.8593,0.4621,-0.1752,0.1316
1777287875.533693,L_Femur,-2.0528,7.2639,6.1298,-1.709,1.709,0.1831,49.422,12.3376,-45.1208,0.3464,0.2496,-0.305,0.8513
1777287875.533693,L_Tibia,1.3638,6.7519,-6.7662,-0.1221,1.8311,0.3662,134.5331,-6.0699,-30.3168,0.8943,0.2211,-0.148,0.3597
1777287875.533693,L_Foot,-0.847,0.579,10.0345,-2.0752,-1.2207,0.3052,3.5321,4.9658,-140.3339,-0.0303,0.0437,-0.9389,0.3401
1777287875.533693,R_Femur,-1.9188,5.9671,7.7472,-2.1973,0.2441,1.709,38.0127,10.6128,-44.8407,0.2664,0.2045,-0.3312,0.8818
1777287875.533693,R_Tibia,-1.7274,9.1923,-3.1056,0.4883,3.2349,-0.7324,108.4241,7.218,-34.8376,0.7614,0.2775,-0.126,0.5721
1777287875.533693,R_Foot,0.9953,0.201,9.9675,1.0376,0.1221,-0.061,0.7581,-5.5096,-89.6045,0.0386,-0.0294,-0.7041,0.7085
1777287875.533693,Trunk,1.7322,3.5075,-8.9578,-0.9155,1.77,-0.1831,156.7639,-10.3326,-58.6725,0.8593,0.4621,-0.1752,0.1316
1777287875.533693,L_Femur,-2.0528,7.2639,6.1298,-1.709,1.709,0.1831,49.422,12.3376,-45.1208,0.3464,0.2496,-0.305,0.8513
1777287875.533693,L_Tibia,1.1341,6.7854,-6.6514,-0.3662,1.2207,0.3052,134.5331,-6.0864,-30.2948,0.8944,0.2209,-0.1481,0.3597
1777287875.533693,L_Foot,-0.847,0.579,10.0345,-2.0752,-1.2207,0.3052,3.5321,4.9658,-140.3339,-0.0303,0.0437,-0.9389,0.3401
1777287875.533693,R_Femur,-1.9188,5.9671,7.7472,-2.1973,0.2441,1.709,38.0127,10.6128,-44.8407,0.2664,0.2045,-0.3312,0.8818
1777287875.533693,R_Tibia,-1.7274,9.1923,-3.1056,0.4883,3.2349,-0.7324,108.4241,7.218,-34.8376,0.7614,0.2775,-0.126,0.5721
1777287875.533693,R_Foot,0.9953,0.201,9.9675,1.0376,0.1221,-0.061,0.7581,-5.5096,-89.6045,0.0386,-0.0294,-0.7041,0.7085
1777287875.533693,Trunk,1.7322,3.5075,-8.9578,-0.9155,1.77,-0.1831,156.7639,-10.3326,-58.6725,0.8593,0.4621,-0.1752,0.1316
1777287875.533693,L_Femur,-2.0528,7.2639,6.1298,-1.709,1.709,0.1831,49.422,12.3376,-45.1208,0.3464,0.2496,-0.305,0.8513
1777287875.533693,L_Tibia,1.1341,6.7854,-6.6514,-0.3662,1.2207,0.3052,134.5331,-6.0864,-30.2948,0.8944,0.2209,-0.1481,0.3597
1777287875.533693,L_Foot,-0.847,0.579,10.0345,-2.0752,-1.2207,0.3052,3.5321,4.9658,-140.3339,-0.0303,0.0437,-0.9389,0.3401
1777287875.533693,R_Femur,-2.1007,5.9767,7.7041,-2.4414,-1.5869,0.9155,37.9742,10.5963,-44.8297,0.2662,0.2042,-0.3313,0.8819
1777287875.533693,R_Tibia,-1.7274,9.1923,-3.1056,0.4883,3.2349,-0.7324,108.4241,7.218,-34.8376,0.7614,0.2775,-0.126,0.5721
1777287875.533693,R_Foot,0.9953,0.201,9.9675,1.0376,0.1221,-0.061,0.7581,-5.5096,-89.6045,0.0386,-0.0294,-0.7041,0.7085
1777287875.5346916,Trunk,1.7322,3.5075,-8.9578,-0.9155,1.77,-0.1831,156.7639,-10.3326,-58.6725,0.8593,0.4621,-0.1752,0.1316
1777287875.5346916,L_Femur,-2.0528,7.2639,6.1298,-1.709,1.709,0.1831,49.422,12.3376,-45.1208,0.3464,0.2496,-0.305,0.8513
1777287875.5346916,L_Tibia,1.1341,6.7854,-6.6514,-0.3662,1.2207,0.3052,134.5331,-6.0864,-30.2948,0.8944,0.2209,-0.1481,0.3597
1777287875.5346916,L_Foot,-0.847,0.579,10.0345,-2.0752,-1.2207,0.3052,3.5321,4.9658,-140.3339,-0.0303,0.0437,-0.9389,0.3401
1777287875.5346916,R_Femur,-2.1007,5.9767,7.7041,-2.4414,-1.5869,0.9155,37.9742,10.5963,-44.8297,0.2662,0.2042,-0.3313,0.8819
1777287875.5346916,R_Tibia,-1.7274,9.1923,-3.1056,0.4883,3.2349,-0.7324,108.4241,7.218,-34.8376,0.7614,0.2775,-0.126,0.5721
1777287875.5346916,R_Foot,1.0192,0.2249,9.9771,0.4883,0.1831,-0.2441,0.769,-5.5096,-89.6045,0.0386,-0.0294,-0.7041,0.7085
1777287875.599325,Trunk,1.6509,3.3975,-8.7042,0.6714,2.6855,1.6479,156.7584,-10.3766,-58.678,0.8593,0.4621,-0.1755,0.1315
1777287875.599325,L_Femur,-2.0528,7.2639,6.1298,-1.709,1.709,0.1831,49.422,12.3376,-45.1208,0.3464,0.2496,-0.305,0.8513
1777287875.599325,L_Tibia,1.1341,6.7854,-6.6514,-0.3662,1.2207,0.3052,134.5331,-6.0864,-30.2948,0.8944,0.2209,-0.1481,0.3597
1777287875.599325,L_Foot,-0.847,0.579,10.0345,-2.0752,-1.2207,0.3052,3.5321,4.9658,-140.3339,-0.0303,0.0437,-0.9389,0.3401
1777287875.599325,R_Femur,-2.1007,5.9767,7.7041,-2.4414,-1.5869,0.9155,37.9742,10.5963,-44.8297,0.2662,0.2042,-0.3313,0.8819
1777287875.599325,R_Tibia,-1.7274,9.1923,-3.1056,0.4883,3.2349,-0.7324,108.4241,7.218,-34.8376,0.7614,0.2775,-0.126,0.5721
1777287875.599325,R_Foot,1.0192,0.2249,9.9771,0.4883,0.1831,-0.2441,0.769,-5.5096,-89.6045,0.0386,-0.0294,-0.7041,0.7085
1777287875.6003292,Trunk,1.6509,3.3975,-8.7042,0.6714,2.6855,1.6479,156.7584,-10.3766,-58.678,0.8593,0.4621,-0.1755,0.1315
1777287875.6003292,L_Femur,-2.1581,7.0677,6.1489,-2.3193,-0.1831,-0.2441,49.3835,12.3486,-45.1154,0.3461,0.2496,-0.305,0.8514
1777287875.6003292,L_Tibia,1.1341,6.7854,-6.6514,-0.3662,1.2207,0.3052,134.5331,-6.0864,-30.2948,0.8944,0.2209,-0.1481,0.3597
1777287875.6003292,L_Foot,-0.847,0.579,10.0345,-2.0752,-1.2207,0.3052,3.5321,4.9658,-140.3339,-0.0303,0.0437,-0.9389,0.3401
1777287875.6003292,R_Femur,-2.1007,5.9767,7.7041,-2.4414,-1.5869,0.9155,37.9742,10.5963,-44.8297,0.2662,0.2042,-0.3313,0.8819
1777287875.6003292,R_Tibia,-1.7274,9.1923,-3.1056,0.4883,3.2349,-0.7324,108.4241,7.218,-34.8376,0.7614,0.2775,-0.126,0.5721
1777287875.6003292,R_Foot,1.0192,0.2249,9.9771,0.4883,0.1831,-0.2441,0.769,-5.5096,-89.6045,0.0386,-0.0294,-0.7041,0.7085
1777287875.6003292,Trunk,1.6509,3.3975,-8.7042,0.6714,2.6855,1.6479,156.7584,-10.3766,-58.678,0.8593,0.4621,-0.1755,0.1315
1777287875.6003292,L_Femur,-2.1581,7.0677,6.1489,-2.3193,-0.1831,-0.2441,49.3835,12.3486,-45.1154,0.3461,0.2496,-0.305,0.8514
1777287875.6003292,L_Tibia,0.9188,6.6705,-6.6705,-0.3662,-2.0752,0.8545,134.5331,-6.0754,-30.3113,0.8943,0.221,-0.1481,0.3597
1777287875.6003292,L_Foot,-0.847,0.579,10.0345,-2.0752,-1.2207,0.3052,3.5321,4.9658,-140.3339,-0.0303,0.0437,-0.9389,0.3401
1777287875.6003292,R_Femur,-2.1007,5.9767,7.7041,-2.4414,-1.5869,0.9155,37.9742,10.5963,-44.8297,0.2662,0.2042,-0.3313,0.8819
1777287875.6003292,R_Tibia,-1.7274,9.1923,-3.1056,0.4883,3.2349,-0.7324,108.4241,7.218,-34.8376,0.7614,0.2775,-0.126,0.5721
1777287875.6003292,R_Foot,1.0192,0.2249,9.9771,0.4883,0.1831,-0.2441,0.769,-5.5096,-89.6045,0.0386,-0.0294,-0.7041,0.7085
1777287875.6003292,Trunk,1.6509,3.3975,-8.7042,0.6714,2.6855,1.6479,156.7584,-10.3766,-58.678,0.8593,0.4621,-0.1755,0.1315
1777287875.6003292,L_Femur,-2.1581,7.0677,6.1489,-2.3193,-0.1831,-0.2441,49.3835,12.3486,-45.1154,0.3461,0.2496,-0.305,0.8514
1777287875.6003292,L_Tibia,0.9188,6.6705,-6.6705,-0.3662,-2.0752,0.8545,134.5331,-6.0754,-30.3113,0.8943,0.221,-0.1481,0.3597
1777287875.6003292,L_Foot,-0.847,0.6077,9.9579,-2.3804,-1.0376,-0.1221,3.5211,4.9603,-140.3339,-0.0303,0.0435,-0.9389,0.3401
1777287875.6003292,R_Femur,-2.1007,5.9767,7.7041,-2.4414,-1.5869,0.9155,37.9742,10.5963,-44.8297,0.2662,0.2042,-0.3313,0.8819
1777287875.6003292,R_Tibia,-1.7274,9.1923,-3.1056,0.4883,3.2349,-0.7324,108.4241,7.218,-34.8376,0.7614,0.2775,-0.126,0.5721
1777287875.6003292,R_Foot,1.0192,0.2249,9.9771,0.4883,0.1831,-0.2441,0.769,-5.5096,-89.6045,0.0386,-0.0294,-0.7041,0.7085
1777287875.6003292,Trunk,1.6509,3.3975,-8.7042,0.6714,2.6855,1.6479,156.7584,-10.3766,-58.678,0.8593,0.4621,-0.1755,0.1315
1777287875.6003292,L_Femur,-2.1581,7.0677,6.1489,-2.3193,-0.1831,-0.2441,49.3835,12.3486,-45.1154,0.3461,0.2496,-0.305,0.8514
1777287875.6003292,L_Tibia,0.9188,6.6705,-6.6705,-0.3662,-2.0752,0.8545,134.5331,-6.0754,-30.3113,0.8943,0.221,-0.1481,0.3597
1777287875.6003292,L_Foot,-0.847,0.6077,9.9579,-2.3804,-1.0376,-0.1221,3.5211,4.9603,-140.3339,-0.0303,0.0435,-0.9389,0.3401
1777287875.6003292,R_Femur,-2.0768,5.9862,7.5462,-2.3193,-4.2725,0.1831,37.9303,10.5469,-44.8462,0.266,0.2038,-0.3316,0.8819
1777287875.6003292,R_Tibia,-1.7274,9.1923,-3.1056,0.4883,3.2349,-0.7324,108.4241,7.218,-34.8376,0.7614,0.2775,-0.126,0.5721
1777287875.6003292,R_Foot,1.0192,0.2249,9.9771,0.4883,0.1831,-0.2441,0.769,-5.5096,-89.6045,0.0386,-0.0294,-0.7041,0.7085
1777287875.6013286,Trunk,1.6509,3.3975,-8.7042,0.6714,2.6855,1.6479,156.7584,-10.3766,-58.678,0.8593,0.4621,-0.1755,0.1315
1777287875.6013286,L_Femur,-2.1581,7.0677,6.1489,-2.3193,-0.1831,-0.2441,49.3835,12.3486,-45.1154,0.3461,0.2496,-0.305,0.8514
1777287875.6013286,L_Tibia,0.9188,6.6705,-6.6705,-0.3662,-2.0752,0.8545,134.5331,-6.0754,-30.3113,0.8943,0.221,-0.1481,0.3597
1777287875.6013286,L_Foot,-0.847,0.6077,9.9579,-2.3804,-1.0376,-0.1221,3.5211,4.9603,-140.3339,-0.0303,0.0435,-0.9389,0.3401
1777287875.6013286,R_Femur,-2.0768,5.9862,7.5462,-2.3193,-4.2725,0.1831,37.9303,10.5469,-44.8462,0.266,0.2038,-0.3316,0.8819
1777287875.6013286,R_Tibia,-1.3733,8.9626,-3.2778,-0.4272,-1.77,0.9766,108.4021,7.2345,-34.8651,0.7612,0.2777,-0.1261,0.5723
1777287875.6013286,R_Foot,1.0192,0.2249,9.9771,0.4883,0.1831,-0.2441,0.769,-5.5096,-89.6045,0.0386,-0.0294,-0.7041,0.7085
1777287875.6013286,Trunk,1.4834,3.2348,-8.374,4.3335,-2.3193,1.8921,156.8188,-10.3876,-58.7274,0.8592,0.4625,-0.1754,0.1309
1777287875.6013286,L_Femur,-2.1581,7.0677,6.1489,-2.3193,-0.1831,-0.2441,49.3835,12.3486,-45.1154,0.3461,0.2496,-0.305,0.8514
1777287875.6013286,L_Tibia,0.9188,6.6705,-6.6705,-0.3662,-2.0752,0.8545,134.5331,-6.0754,-30.3113,0.8943,0.221,-0.1481,0.3597
1777287875.6013286,L_Foot,-0.847,0.6077,9.9579,-2.3804,-1.0376,-0.1221,3.5211,4.9603,-140.3339,-0.0303,0.0435,-0.9389,0.3401
1777287875.6013286,R_Femur,-2.0768,5.9862,7.5462,-2.3193,-4.2725,0.1831,37.9303,10.5469,-44.8462,0.266,0.2038,-0.3316,0.8819
1777287875.6013286,R_Tibia,-1.3733,8.9626,-3.2778,-0.4272,-1.77,0.9766,108.4021,7.2345,-34.8651,0.7612,0.2777,-0.1261,0.5723
1777287875.6013286,R_Foot,1.0192,0.2249,9.9771,0.4883,0.1831,-0.2441,0.769,-5.5096,-89.6045,0.0386,-0.0294,-0.7041,0.7085
1777287875.6013286,Trunk,1.4834,3.2348,-8.374,4.3335,-2.3193,1.8921,156.8188,-10.3876,-58.7274,0.8592,0.4625,-0.1754,0.1309
1777287875.6013286,L_Femur,-2.1677,6.9337,6.3164,-2.8687,-0.4272,-0.061,49.3341,12.3431,-45.1154,0.3457,0.2494,-0.3052,0.8516
1777287875.6013286,L_Tibia,0.9188,6.6705,-6.6705,-0.3662,-2.0752,0.8545,134.5331,-6.0754,-30.3113,0.8943,0.221,-0.1481,0.3597
1777287875.6013286,L_Foot,-0.847,0.6077,9.9579,-2.3804,-1.0376,-0.1221,3.5211,4.9603,-140.3339,-0.0303,0.0435,-0.9389,0.3401
1777287875.6013286,R_Femur,-2.0768,5.9862,7.5462,-2.3193,-4.2725,0.1831,37.9303,10.5469,-44.8462,0.266,0.2038,-0.3316,0.8819
1777287875.6013286,R_Tibia,-1.3733,8.9626,-3.2778,-0.4272,-1.77,0.9766,108.4021,7.2345,-34.8651,0.7612,0.2777,-0.1261,0.5723
1777287875.6013286,R_Foot,1.0192,0.2249,9.9771,0.4883,0.1831,-0.2441,0.769,-5.5096,-89.6045,0.0386,-0.0294,-0.7041,0.7085
1777287875.6013286,Trunk,1.4834,3.2348,-8.374,4.3335,-2.3193,1.8921,156.8188,-10.3876,-58.7274,0.8592,0.4625,-0.1754,0.1309
1777287875.6013286,L_Femur,-2.1677,6.9337,6.3164,-2.8687,-0.4272,-0.061,49.3341,12.3431,-45.1154,0.3457,0.2494,-0.3052,0.8516
1777287875.6013286,L_Tibia,0.9714,6.6131,-6.6179,-1.0376,-4.2114,1.2207,134.5331,-6.037,-30.3717,0.8942,0.2216,-0.148,0.3597
1777287875.6013286,L_Foot,-0.847,0.6077,9.9579,-2.3804,-1.0376,-0.1221,3.5211,4.9603,-140.3339,-0.0303,0.0435,-0.9389,0.3401
1777287875.6013286,R_Femur,-2.0768,5.9862,7.5462,-2.3193,-4.2725,0.1831,37.9303,10.5469,-44.8462,0.266,0.2038,-0.3316,0.8819
1777287875.6013286,R_Tibia,-1.3733,8.9626,-3.2778,-0.4272,-1.77,0.9766,108.4021,7.2345,-34.8651,0.7612,0.2777,-0.1261,0.5723
1777287875.6013286,R_Foot,1.0192,0.2249,9.9771,0.4883,0.1831,-0.2441,0.769,-5.5096,-89.6045,0.0386,-0.0294,-0.7041,0.7085
1777287875.6022058,Trunk,1.4834,3.2348,-8.374,4.3335,-2.3193,1.8921,156.8188,-10.3876,-58.7274,0.8592,0.4625,-0.1754,0.1309
1777287875.6022058,L_Femur,-2.1677,6.9337,6.3164,-2.8687,-0.4272,-0.061,49.3341,12.3431,-45.1154,0.3457,0.2494,-0.3052,0.8516
1777287875.6022058,L_Tibia,0.9714,6.6131,-6.6179,-1.0376,-4.2114,1.2207,134.5331,-6.037,-30.3717,0.8942,0.2216,-0.148,0.3597
1777287875.6022058,L_Foot,-0.8805,0.5646,9.9292,-2.0752,-0.9155,-0.1831,3.5211,4.9603,-140.3339,-0.0303,0.0435,-0.9389,0.3401
1777287875.6022058,R_Femur,-2.0768,5.9862,7.5462,-2.3193,-4.2725,0.1831,37.9303,10.5469,-44.8462,0.266,0.2038,-0.3316,0.8819
1777287875.6022058,R_Tibia,-1.3733,8.9626,-3.2778,-0.4272,-1.77,0.9766,108.4021,7.2345,-34.8651,0.7612,0.2777,-0.1261,0.5723
1777287875.6022058,R_Foot,1.0192,0.2249,9.9771,0.4883,0.1831,-0.2441,0.769,-5.5096,-89.6045,0.0386,-0.0294,-0.7041,0.7085
1777287875.6022058,Trunk,1.4834,3.2348,-8.374,4.3335,-2.3193,1.8921,156.8188,-10.3876,-58.7274,0.8592,0.4625,-0.1754,0.1309
1777287875.6022058,L_Femur,-2.1677,6.9337,6.3164,-2.8687,-0.4272,-0.061,49.3341,12.3431,-45.1154,0.3457,0.2494,-0.3052,0.8516
1777287875.6022058,L_Tibia,0.9714,6.6131,-6.6179,-1.0376,-4.2114,1.2207,134.5331,-6.037,-30.3717,0.8942,0.2216,-0.148,0.3597
1777287875.6022058,L_Foot,-0.8805,0.5646,9.9292,-2.0752,-0.9155,-0.1831,3.5211,4.9603,-140.3339,-0.0303,0.0435,-0.9389,0.3401
1777287875.6022058,R_Femur,-1.8854,5.9862,7.594,-2.0752,-3.0518,-0.3052,37.8699,10.4919,-44.8846,0.2656,0.2033,-0.3322,0.8819
1777287875.6022058,R_Tibia,-1.3733,8.9626,-3.2778,-0.4272,-1.77,0.9766,108.4021,7.2345,-34.8651,0.7612,0.2777,-0.1261,0.5723
1777287875.6022058,R_Foot,1.0192,0.2249,9.9771,0.4883,0.1831,-0.2441,0.769,-5.5096,-89.6045,0.0386,-0.0294,-0.7041,0.7085
1777287875.6022058,Trunk,1.4834,3.2348,-8.374,4.3335,-2.3193,1.8921,156.8188,-10.3876,-58.7274,0.8592,0.4625,-0.1754,0.1309
1777287875.6022058,L_Femur,-2.1677,6.9337,6.3164,-2.8687,-0.4272,-0.061,49.3341,12.3431,-45.1154,0.3457,0.2494,-0.3052,0.8516
1777287875.6022058,L_Tibia,0.9714,6.6131,-6.6179,-1.0376,-4.2114,1.2207,134.5331,-6.037,-30.3717,0.8942,0.2216,-0.148,0.3597
1777287875.6022058,L_Foot,-0.8805,0.5646,9.9292,-2.0752,-0.9155,-0.1831,3.5211,4.9603,-140.3339,-0.0303,0.0435,-0.9389,0.3401
1777287875.6022058,R_Femur,-1.8854,5.9862,7.594,-2.0752,-3.0518,-0.3052,37.8699,10.4919,-44.8846,0.2656,0.2033,-0.3322,0.8819
1777287875.6022058,R_Tibia,-1.3733,8.9626,-3.2778,-0.4272,-1.77,0.9766,108.4021,7.2345,-34.8651,0.7612,0.2777,-0.1261,0.5723
1777287875.6022058,R_Foot,0.9475,0.1962,9.9436,-0.3662,0.1831,-0.1221,0.7745,-5.5151,-89.6045,0.0387,-0.0294,-0.7041,0.7085
1777287875.6022058,Trunk,1.6317,3.2635,-8.4841,5.9204,-7.019,0.8545,156.9012,-10.3162,-58.7823,0.859,0.4632,-0.1746,0.1305
1777287875.6022058,L_Femur,-2.1677,6.9337,6.3164,-2.8687,-0.4272,-0.061,49.3341,12.3431,-45.1154,0.3457,0.2494,-0.3052,0.8516
1777287875.6022058,L_Tibia,0.9714,6.6131,-6.6179,-1.0376,-4.2114,1.2207,134.5331,-6.037,-30.3717,0.8942,0.2216,-0.148,0.3597
1777287875.6022058,L_Foot,-0.8805,0.5646,9.9292,-2.0752,-0.9155,-0.1831,3.5211,4.9603,-140.3339,-0.0303,0.0435,-0.9389,0.3401
1777287875.6022058,R_Femur,-1.8854,5.9862,7.594,-2.0752,-3.0518,-0.3052,37.8699,10.4919,-44.8846,0.2656,0.2033,-0.3322,0.8819
1777287875.6022058,R_Tibia,-1.3733,8.9626,-3.2778,-0.4272,-1.77,0.9766,108.4021,7.2345,-34.8651,0.7612,0.2777,-0.1261,0.5723
1777287875.6022058,R_Foot,0.9475,0.1962,9.9436,-0.3662,0.1831,-0.1221,0.7745,-5.5151,-89.6045,0.0387,-0.0294,-0.7041,0.7085
1777287875.6022058,Trunk,1.6317,3.2635,-8.4841,5.9204,-7.019,0.8545,156.9012,-10.3162,-58.7823,0.859,0.4632,-0.1746,0.1305
1777287875.6022058,L_Femur,-2.0337,6.9624,6.4121,-1.5259,0.6714,0.2441,49.2957,12.3541,-45.0934,0.3454,0.2493,-0.305,0.8518
1777287875.6022058,L_Tibia,0.9714,6.6131,-6.6179,-1.0376,-4.2114,1.2207,134.5331,-6.037,-30.3717,0.8942,0.2216,-0.148,0.3597
1777287875.6022058,L_Foot,-0.8805,0.5646,9.9292,-2.0752,-0.9155,-0.1831,3.5211,4.9603,-140.3339,-0.0303,0.0435,-0.9389,0.3401
1777287875.6022058,R_Femur,-1.8854,5.9862,7.594,-2.0752,-3.0518,-0.3052,37.8699,10.4919,-44.8846,0.2656,0.2033,-0.3322,0.8819
1777287875.6022058,R_Tibia,-1.3733,8.9626,-3.2778,-0.4272,-1.77,0.9766,108.4021,7.2345,-34.8651,0.7612,0.2777,-0.1261,0.5723
1777287875.6022058,R_Foot,0.9475,0.1962,9.9436,-0.3662,0.1831,-0.1221,0.7745,-5.5151,-89.6045,0.0387,-0.0294,-0.7041,0.7085
1777287875.6032505,Trunk,1.6317,3.2635,-8.4841,5.9204,-7.019,0.8545,156.9012,-10.3162,-58.7823,0.859,0.4632,-0.1746,0.1305
1777287875.6032505,L_Femur,-2.0337,6.9624,6.4121,-1.5259,0.6714,0.2441,49.2957,12.3541,-45.0934,0.3454,0.2493,-0.305,0.8518
1777287875.6032505,L_Tibia,0.9044,6.5317,-6.7901,-1.6479,-4.5166,0.3052,134.5166,-5.9875,-30.4211,0.894,0.2222,-0.1478,0.3599
1777287875.6032505,L_Foot,-0.8805,0.5646,9.9292,-2.0752,-0.9155,-0.1831,3.5211,4.9603,-140.3339,-0.0303,0.0435,-0.9389,0.3401
1777287875.6032505,R_Femur,-1.8854,5.9862,7.594,-2.0752,-3.0518,-0.3052,37.8699,10.4919,-44.8846,0.2656,0.2033,-0.3322,0.8819
1777287875.6032505,R_Tibia,-1.3733,8.9626,-3.2778,-0.4272,-1.77,0.9766,108.4021,7.2345,-34.8651,0.7612,0.2777,-0.1261,0.5723
1777287875.6032505,R_Foot,0.9475,0.1962,9.9436,-0.3662,0.1831,-0.1221,0.7745,-5.5151,-89.6045,0.0387,-0.0294,-0.7041,0.7085
1777287875.6032505,Trunk,1.6317,3.2635,-8.4841,5.9204,-7.019,0.8545,156.9012,-10.3162,-58.7823,0.859,0.4632,-0.1746,0.1305
1777287875.6032505,L_Femur,-2.0337,6.9624,6.4121,-1.5259,0.6714,0.2441,49.2957,12.3541,-45.0934,0.3454,0.2493,-0.305,0.8518
1777287875.6032505,L_Tibia,0.9044,6.5317,-6.7901,-1.6479,-4.5166,0.3052,134.5166,-5.9875,-30.4211,0.894,0.2222,-0.1478,0.3599
1777287875.6032505,L_Foot,-0.9188,0.6221,9.9579,-2.1362,-1.2817,0.1221,3.5211,4.9603,-140.3339,-0.0303,0.0435,-0.9389,0.3401
1777287875.6032505,R_Femur,-1.8854,5.9862,7.594,-2.0752,-3.0518,-0.3052,37.8699,10.4919,-44.8846,0.2656,0.2033,-0.3322,0.8819
1777287875.6032505,R_Tibia,-1.3733,8.9626,-3.2778,-0.4272,-1.77,0.9766,108.4021,7.2345,-34.8651,0.7612,0.2777,-0.1261,0.5723
1777287875.6032505,R_Foot,0.9475,0.1962,9.9436,-0.3662,0.1831,-0.1221,0.7745,-5.5151,-89.6045,0.0387,-0.0294,-0.7041,0.7085
1777287875.6032505,Trunk,1.6317,3.2635,-8.4841,5.9204,-7.019,0.8545,156.9012,-10.3162,-58.7823,0.859,0.4632,-0.1746,0.1305
1777287875.6032505,L_Femur,-2.0337,6.9624,6.4121,-1.5259,0.6714,0.2441,49.2957,12.3541,-45.0934,0.3454,0.2493,-0.305,0.8518
1777287875.6032505,L_Tibia,0.9044,6.5317,-6.7901,-1.6479,-4.5166,0.3052,134.5166,-5.9875,-30.4211,0.894,0.2222,-0.1478,0.3599
1777287875.6032505,L_Foot,-0.9188,0.6221,9.9579,-2.1362,-1.2817,0.1221,3.5211,4.9603,-140.3339,-0.0303,0.0435,-0.9389,0.3401
1777287875.6032505,R_Femur,-1.6174,5.857,7.6993,-1.3428,-0.6714,-1.5869,37.8369,10.4919,-44.8956,0.2654,0.2032,-0.3323,0.882
1777287875.6032505,R_Tibia,-1.3733,8.9626,-3.2778,-0.4272,-1.77,0.9766,108.4021,7.2345,-34.8651,0.7612,0.2777,-0.1261,0.5723
1777287875.6032505,R_Foot,0.9475,0.1962,9.9436,-0.3662,0.1831,-0.1221,0.7745,-5.5151,-89.6045,0.0387,-0.0294,-0.7041,0.7085
1777287875.6032505,Trunk,1.6317,3.2635,-8.4841,5.9204,-7.019,0.8545,156.9012,-10.3162,-58.7823,0.859,0.4632,-0.1746,0.1305
1777287875.6032505,L_Femur,-2.0337,6.9624,6.4121,-1.5259,0.6714,0.2441,49.2957,12.3541,-45.0934,0.3454,0.2493,-0.305,0.8518
1777287875.6032505,L_Tibia,0.9044,6.5317,-6.7901,-1.6479,-4.5166,0.3052,134.5166,-5.9875,-30.4211,0.894,0.2222,-0.1478,0.3599
1777287875.6032505,L_Foot,-0.9188,0.6221,9.9579,-2.1362,-1.2817,0.1221,3.5211,4.9603,-140.3339,-0.0303,0.0435,-0.9389,0.3401
1777287875.6032505,R_Femur,-1.6174,5.857,7.6993,-1.3428,-0.6714,-1.5869,37.8369,10.4919,-44.8956,0.2654,0.2032,-0.3323,0.882
1777287875.6032505,R_Tibia,-1.5504,9.0679,-3.0338,-0.3052,-1.4648,1.5869,108.3801,7.207,-34.8871,0.7611,0.2777,-0.1264,0.5724
1777287875.6032505,R_Foot,0.9475,0.1962,9.9436,-0.3662,0.1831,-0.1221,0.7745,-5.5151,-89.6045,0.0387,-0.0294,-0.7041,0.7085
1777287875.6032505,Trunk,1.9715,3.407,-8.8334,7.3853,-7.3242,0.1831,157.0386,-10.1733,-58.8538,0.8589,0.4642,-0.1731,0.13
1777287875.6032505,L_Femur,-2.0337,6.9624,6.4121,-1.5259,0.6714,0.2441,49.2957,12.3541,-45.0934,0.3454,0.2493,-0.305,0.8518
1777287875.6032505,L_Tibia,0.9044,6.5317,-6.7901,-1.6479,-4.5166,0.3052,134.5166,-5.9875,-30.4211,0.894,0.2222,-0.1478,0.3599
1777287875.6032505,L_Foot,-0.9188,0.6221,9.9579,-2.1362,-1.2817,0.1221,3.5211,4.9603,-140.3339,-0.0303,0.0435,-0.9389,0.3401
1777287875.6032505,R_Femur,-1.6174,5.857,7.6993,-1.3428,-0.6714,-1.5869,37.8369,10.4919,-44.8956,0.2654,0.2032,-0.3323,0.882
1777287875.6032505,R_Tibia,-1.5504,9.0679,-3.0338,-0.3052,-1.4648,1.5869,108.3801,7.207,-34.8871,0.7611,0.2777,-0.1264,0.5724
1777287875.6032505,R_Foot,0.9475,0.1962,9.9436,-0.3662,0.1831,-0.1221,0.7745,-5.5151,-89.6045,0.0387,-0.0294,-0.7041,0.7085
1777287875.6042612,Trunk,1.9715,3.407,-8.8334,7.3853,-7.3242,0.1831,157.0386,-10.1733,-58.8538,0.8589,0.4642,-0.1731,0.13
1777287875.6042612,L_Femur,-2.1725,7.2687,6.5796,-0.9155,-0.6104,-0.6714,49.2737,12.3596,-45.0989,0.3452,0.2493,-0.3051,0.8518
1777287875.6042612,L_Tibia,0.9044,6.5317,-6.7901,-1.6479,-4.5166,0.3052,134.5166,-5.9875,-30.4211,0.894,0.2222,-0.1478,0.3599
1777287875.6042612,L_Foot,-0.9188,0.6221,9.9579,-2.1362,-1.2817,0.1221,3.5211,4.9603,-140.3339,-0.0303,0.0435,-0.9389,0.3401
1777287875.6042612,R_Femur,-1.6174,5.857,7.6993,-1.3428,-0.6714,-1.5869,37.8369,10.4919,-44.8956,0.2654,0.2032,-0.3323,0.882
1777287875.6042612,R_Tibia,-1.5504,9.0679,-3.0338,-0.3052,-1.4648,1.5869,108.3801,7.207,-34.8871,0.7611,0.2777,-0.1264,0.5724
1777287875.6042612,R_Foot,0.9475,0.1962,9.9436,-0.3662,0.1831,-0.1221,0.7745,-5.5151,-89.6045,0.0387,-0.0294,-0.7041,0.7085
1777287875.6042612,Trunk,1.9715,3.407,-8.8334,7.3853,-7.3242,0.1831,157.0386,-10.1733,-58.8538,0.8589,0.4642,-0.1731,0.13
1777287875.6042612,L_Femur,-2.1725,7.2687,6.5796,-0.9155,-0.6104,-0.6714,49.2737,12.3596,-45.0989,0.3452,0.2493,-0.3051,0.8518
1777287875.6042612,L_Tibia,0.9618,6.7949,-6.972,-0.9155,-3.9062,0.6104,134.5111,-5.9491,-30.4596,0.8939,0.2226,-0.1476,0.36
1777287875.6042612,L_Foot,-0.9188,0.6221,9.9579,-2.1362,-1.2817,0.1221,3.5211,4.9603,-140.3339,-0.0303,0.0435,-0.9389,0.3401
1777287875.6042612,R_Femur,-1.6174,5.857,7.6993,-1.3428,-0.6714,-1.5869,37.8369,10.4919,-44.8956,0.2654,0.2032,-0.3323,0.882
1777287875.6042612,R_Tibia,-1.5504,9.0679,-3.0338,-0.3052,-1.4648,1.5869,108.3801,7.207,-34.8871,0.7611,0.2777,-0.1264,0.5724
1777287875.6042612,R_Foot,0.9475,0.1962,9.9436,-0.3662,0.1831,-0.1221,0.7745,-5.5151,-89.6045,0.0387,-0.0294,-0.7041,0.7085
1777287875.6042612,Trunk,1.9715,3.407,-8.8334,7.3853,-7.3242,0.1831,157.0386,-10.1733,-58.8538,0.8589,0.4642,-0.1731,0.13
1777287875.6042612,L_Femur,-2.1725,7.2687,6.5796,-0.9155,-0.6104,-0.6714,49.2737,12.3596,-45.0989,0.3452,0.2493,-0.3051,0.8518
1777287875.6042612,L_Tibia,0.9618,6.7949,-6.972,-0.9155,-3.9062,0.6104,134.5111,-5.9491,-30.4596,0.8939,0.2226,-0.1476,0.36
1777287875.6042612,L_Foot,-0.8709,0.4881,9.9914,-1.2817,-1.0376,0.061,3.5156,4.9603,-140.3339,-0.0303,0.0435,-0.9389,0.3401
1777287875.6042612,R_Femur,-1.6174,5.857,7.6993,-1.3428,-0.6714,-1.5869,37.8369,10.4919,-44.8956,0.2654,0.2032,-0.3323,0.882
1777287875.6042612,R_Tibia,-1.5504,9.0679,-3.0338,-0.3052,-1.4648,1.5869,108.3801,7.207,-34.8871,0.7611,0.2777,-0.1264,0.5724
1777287875.6042612,R_Foot,0.9475,0.1962,9.9436,-0.3662,0.1831,-0.1221,0.7745,-5.5151,-89.6045,0.0387,-0.0294,-0.7041,0.7085
1777287875.6042612,Trunk,1.9715,3.407,-8.8334,7.3853,-7.3242,0.1831,157.0386,-10.1733,-58.8538,0.8589,0.4642,-0.1731,0.13
1777287875.6042612,L_Femur,-2.1725,7.2687,6.5796,-0.9155,-0.6104,-0.6714,49.2737,12.3596,-45.0989,0.3452,0.2493,-0.3051,0.8518
1777287875.6042612,L_Tibia,0.9618,6.7949,-6.972,-0.9155,-3.9062,0.6104,134.5111,-5.9491,-30.4596,0.8939,0.2226,-0.1476,0.36
1777287875.6042612,L_Foot,-0.8709,0.4881,9.9914,-1.2817,-1.0376,0.061,3.5156,4.9603,-140.3339,-0.0303,0.0435,-0.9389,0.3401
1777287875.6042612,R_Femur,-1.603,5.6608,7.8524,-1.4038,-0.061,-2.1973,37.804,10.5084,-44.9066,0.265,0.2033,-0.3324,0.882
1777287875.6042612,R_Tibia,-1.5504,9.0679,-3.0338,-0.3052,-1.4648,1.5869,108.3801,7.207,-34.8871,0.7611,0.2777,-0.1264,0.5724
1777287875.6042612,R_Foot,0.9475,0.1962,9.9436,-0.3662,0.1831,-0.1221,0.7745,-5.5151,-89.6045,0.0387,-0.0294,-0.7041,0.7085
1777287875.6052768,Trunk,1.9715,3.407,-8.8334,7.3853,-7.3242,0.1831,157.0386,-10.1733,-58.8538,0.8589,0.4642,-0.1731,0.13
1777287875.6052768,L_Femur,-2.1725,7.2687,6.5796,-0.9155,-0.6104,-0.6714,49.2737,12.3596,-45.0989,0.3452,0.2493,-0.3051,0.8518
1777287875.6052768,L_Tibia,0.9618,6.7949,-6.972,-0.9155,-3.9062,0.6104,134.5111,-5.9491,-30.4596,0.8939,0.2226,-0.1476,0.36
1777287875.6052768,L_Foot,-0.8709,0.4881,9.9914,-1.2817,-1.0376,0.061,3.5156,4.9603,-140.3339,-0.0303,0.0435,-0.9389,0.3401
1777287875.6052768,R_Femur,-1.603,5.6608,7.8524,-1.4038,-0.061,-2.1973,37.804,10.5084,-44.9066,0.265,0.2033,-0.3324,0.882
1777287875.6052768,R_Tibia,-1.5504,9.0679,-3.0338,-0.3052,-1.4648,1.5869,108.3801,7.207,-34.8871,0.7611,0.2777,-0.1264,0.5724
1777287875.6052768,R_Foot,0.9905,0.1483,9.9531,0.4272,-0.4883,-0.3052,0.78,-5.5151,-89.6045,0.0387,-0.0293,-0.7041,0.7085
1777287875.6293106,Trunk,2.0146,3.608,-9.0392,6.1035,-3.9673,0.5493,157.1265,-10.1184,-58.8922,0.8588,0.4647,-0.1724,0.1295
1777287875.6293106,L_Femur,-2.1725,7.2687,6.5796,-0.9155,-0.6104,-0.6714,49.2737,12.3596,-45.0989,0.3452,0.2493,-0.3051,0.8518
1777287875.6293106,L_Tibia,0.9618,6.7949,-6.972,-0.9155,-3.9062,0.6104,134.5111,-5.9491,-30.4596,0.8939,0.2226,-0.1476,0.36
1777287875.6293106,L_Foot,-0.8709,0.4881,9.9914,-1.2817,-1.0376,0.061,3.5156,4.9603,-140.3339,-0.0303,0.0435,-0.9389,0.3401
1777287875.6293106,R_Femur,-1.603,5.6608,7.8524,-1.4038,-0.061,-2.1973,37.804,10.5084,-44.9066,0.265,0.2033,-0.3324,0.882
1777287875.6293106,R_Tibia,-1.5504,9.0679,-3.0338,-0.3052,-1.4648,1.5869,108.3801,7.207,-34.8871,0.7611,0.2777,-0.1264,0.5724
1777287875.6293106,R_Foot,0.9905,0.1483,9.9531,0.4272,-0.4883,-0.3052,0.78,-5.5151,-89.6045,0.0387,-0.0293,-0.7041,0.7085
1777287875.6293106,Trunk,2.0146,3.608,-9.0392,6.1035,-3.9673,0.5493,157.1265,-10.1184,-58.8922,0.8588,0.4647,-0.1724,0.1295
1777287875.6293106,L_Femur,-2.4979,7.5031,6.4839,-1.3428,-4.0894,-1.709,49.2407,12.3541,-45.1428,0.3449,0.2493,-0.3055,0.8518
1777287875.6293106,L_Tibia,0.9618,6.7949,-6.972,-0.9155,-3.9062,0.6104,134.5111,-5.9491,-30.4596,0.8939,0.2226,-0.1476,0.36
1777287875.6293106,L_Foot,-0.8709,0.4881,9.9914,-1.2817,-1.0376,0.061,3.5156,4.9603,-140.3339,-0.0303,0.0435,-0.9389,0.3401
1777287875.6293106,R_Femur,-1.603,5.6608,7.8524,-1.4038,-0.061,-2.1973,37.804,10.5084,-44.9066,0.265,0.2033,-0.3324,0.882
1777287875.6293106,R_Tibia,-1.5504,9.0679,-3.0338,-0.3052,-1.4648,1.5869,108.3801,7.207,-34.8871,0.7611,0.2777,-0.1264,0.5724
1777287875.6293106,R_Foot,0.9905,0.1483,9.9531,0.4272,-0.4883,-0.3052,0.78,-5.5151,-89.6045,0.0387,-0.0293,-0.7041,0.7085
1777287875.6303222,Trunk,2.0146,3.608,-9.0392,6.1035,-3.9673,0.5493,157.1265,-10.1184,-58.8922,0.8588,0.4647,-0.1724,0.1295
1777287875.6303222,L_Femur,-2.4979,7.5031,6.4839,-1.3428,-4.0894,-1.709,49.2407,12.3541,-45.1428,0.3449,0.2493,-0.3055,0.8518
1777287875.6303222,L_Tibia,1.0479,7.1203,-6.8954,0.5493,0.2441,1.9531,134.5276,-5.9546,-30.4816,0.8939,0.2228,-0.1477,0.3598
1777287875.6303222,L_Foot,-0.8709,0.4881,9.9914,-1.2817,-1.0376,0.061,3.5156,4.9603,-140.3339,-0.0303,0.0435,-0.9389,0.3401
1777287875.6303222,R_Femur,-1.603,5.6608,7.8524,-1.4038,-0.061,-2.1973,37.804,10.5084,-44.9066,0.265,0.2033,-0.3324,0.882
1777287875.6303222,R_Tibia,-1.5504,9.0679,-3.0338,-0.3052,-1.4648,1.5869,108.3801,7.207,-34.8871,0.7611,0.2777,-0.1264,0.5724
1777287875.6303222,R_Foot,0.9905,0.1483,9.9531,0.4272,-0.4883,-0.3052,0.78,-5.5151,-89.6045,0.0387,-0.0293,-0.7041,0.7085
1777287875.6303222,Trunk,2.0146,3.608,-9.0392,6.1035,-3.9673,0.5493,157.1265,-10.1184,-58.8922,0.8588,0.4647,-0.1724,0.1295
1777287875.6303222,L_Femur,-2.4979,7.5031,6.4839,-1.3428,-4.0894,-1.709,49.2407,12.3541,-45.1428,0.3449,0.2493,-0.3055,0.8518
1777287875.6303222,L_Tibia,1.0479,7.1203,-6.8954,0.5493,0.2441,1.9531,134.5276,-5.9546,-30.4816,0.8939,0.2228,-0.1477,0.3598
1777287875.6303222,L_Foot,-0.8183,0.4929,9.9962,-0.7324,-0.7935,0.061,3.5156,4.9603,-140.3339,-0.0303,0.0435,-0.9389,0.3401
1777287875.6303222,R_Femur,-1.603,5.6608,7.8524,-1.4038,-0.061,-2.1973,37.804,10.5084,-44.9066,0.265,0.2033,-0.3324,0.882
1777287875.6303222,R_Tibia,-1.5504,9.0679,-3.0338,-0.3052,-1.4648,1.5869,108.3801,7.207,-34.8871,0.7611,0.2777,-0.1264,0.5724
1777287875.6303222,R_Foot,0.9905,0.1483,9.9531,0.4272,-0.4883,-0.3052,0.78,-5.5151,-89.6045,0.0387,-0.0293,-0.7041,0.7085
1777287875.6303222,Trunk,2.0146,3.608,-9.0392,6.1035,-3.9673,0.5493,157.1265,-10.1184,-58.8922,0.8588,0.4647,-0.1724,0.1295
1777287875.6303222,L_Femur,-2.4979,7.5031,6.4839,-1.3428,-4.0894,-1.709,49.2407,12.3541,-45.1428,0.3449,0.2493,-0.3055,0.8518
1777287875.6303222,L_Tibia,1.0479,7.1203,-6.8954,0.5493,0.2441,1.9531,134.5276,-5.9546,-30.4816,0.8939,0.2228,-0.1477,0.3598
1777287875.6303222,L_Foot,-0.8183,0.4929,9.9962,-0.7324,-0.7935,0.061,3.5156,4.9603,-140.3339,-0.0303,0.0435,-0.9389,0.3401
1777287875.6303222,R_Femur,-1.7562,5.6656,7.8237,-1.4648,-2.8076,-1.9531,37.7545,10.5084,-44.9506,0.2646,0.2032,-0.3328,0.882
1777287875.6303222,R_Tibia,-1.5504,9.0679,-3.0338,-0.3052,-1.4648,1.5869,108.3801,7.207,-34.8871,0.7611,0.2777,-0.1264,0.5724
1777287875.6303222,R_Foot,0.9905,0.1483,9.9531,0.4272,-0.4883,-0.3052,0.78,-5.5151,-89.6045,0.0387,-0.0293,-0.7041,0.7085
1777287875.6303222,Trunk,2.0146,3.608,-9.0392,6.1035,-3.9673,0.5493,157.1265,-10.1184,-58.8922,0.8588,0.4647,-0.1724,0.1295
1777287875.6303222,L_Femur,-2.4979,7.5031,6.4839,-1.3428,-4.0894,-1.709,49.2407,12.3541,-45.1428,0.3449,0.2493,-0.3055,0.8518
1777287875.6303222,L_Tibia,1.0479,7.1203,-6.8954,0.5493,0.2441,1.9531,134.5276,-5.9546,-30.4816,0.8939,0.2228,-0.1477,0.3598
1777287875.6303222,L_Foot,-0.8183,0.4929,9.9962,-0.7324,-0.7935,0.061,3.5156,4.9603,-140.3339,-0.0303,0.0435,-0.9389,0.3401
1777287875.6303222,R_Femur,-1.7562,5.6656,7.8237,-1.4648,-2.8076,-1.9531,37.7545,10.5084,-44.9506,0.2646,0.2032,-0.3328,0.882
1777287875.6303222,R_Tibia,-1.0288,9.1923,-2.8376,0.7324,-0.7324,1.5259,108.3691,7.1906,-34.942,0.761,0.278,-0.1268,0.5723
1777287875.6303222,R_Foot,0.9905,0.1483,9.9531,0.4272,-0.4883,-0.3052,0.78,-5.5151,-89.6045,0.0387,-0.0293,-0.7041,0.7085
1777287875.6303222,Trunk,1.9284,3.6654,-9.087,3.1128,-0.8545,0.7324,157.1759,-10.1019,-58.9197,0.8587,0.4651,-0.1721,0.1292
1777287875.6303222,L_Femur,-2.4979,7.5031,6.4839,-1.3428,-4.0894,-1.709,49.2407,12.3541,-45.1428,0.3449,0.2493,-0.3055,0.8518
1777287875.6303222,L_Tibia,1.0479,7.1203,-6.8954,0.5493,0.2441,1.9531,134.5276,-5.9546,-30.4816,0.8939,0.2228,-0.1477,0.3598
1777287875.6303222,L_Foot,-0.8183,0.4929,9.9962,-0.7324,-0.7935,0.061,3.5156,4.9603,-140.3339,-0.0303,0.0435,-0.9389,0.3401
1777287875.6303222,R_Femur,-1.7562,5.6656,7.8237,-1.4648,-2.8076,-1.9531,37.7545,10.5084,-44.9506,0.2646,0.2032,-0.3328,0.882
1777287875.6303222,R_Tibia,-1.0288,9.1923,-2.8376,0.7324,-0.7324,1.5259,108.3691,7.1906,-34.942,0.761,0.278,-0.1268,0.5723
1777287875.6303222,R_Foot,0.9905,0.1483,9.9531,0.4272,-0.4883,-0.3052,0.78,-5.5151,-89.6045,0.0387,-0.0293,-0.7041,0.7085
1777287875.6303222,Trunk,1.9284,3.6654,-9.087,3.1128,-0.8545,0.7324,157.1759,-10.1019,-58.9197,0.8587,0.4651,-0.1721,0.1292
1777287875.6303222,L_Femur,-2.2921,7.2399,6.3116,-2.6855,-5.4321,-2.9297,49.1638,12.3212,-45.2637,0.3442,0.2492,-0.3067,0.8517
1777287875.6303222,L_Tibia,1.0479,7.1203,-6.8954,0.5493,0.2441,1.9531,134.5276,-5.9546,-30.4816,0.8939,0.2228,-0.1477,0.3598
1777287875.6303222,L_Foot,-0.8183,0.4929,9.9962,-0.7324,-0.7935,0.061,3.5156,4.9603,-140.3339,-0.0303,0.0435,-0.9389,0.3401
1777287875.6303222,R_Femur,-1.7562,5.6656,7.8237,-1.4648,-2.8076,-1.9531,37.7545,10.5084,-44.9506,0.2646,0.2032,-0.3328,0.882
1777287875.6303222,R_Tibia,-1.0288,9.1923,-2.8376,0.7324,-0.7324,1.5259,108.3691,7.1906,-34.942,0.761,0.278,-0.1268,0.5723
1777287875.6303222,R_Foot,0.9905,0.1483,9.9531,0.4272,-0.4883,-0.3052,0.78,-5.5151,-89.6045,0.0387,-0.0293,-0.7041,0.7085
1777287875.6303222,Trunk,1.9284,3.6654,-9.087,3.1128,-0.8545,0.7324,157.1759,-10.1019,-58.9197,0.8587,0.4651,-0.1721,0.1292
1777287875.6303222,L_Femur,-2.2921,7.2399,6.3116,-2.6855,-5.4321,-2.9297,49.1638,12.3212,-45.2637,0.3442,0.2492,-0.3067,0.8517
1777287875.6303222,L_Tibia,0.847,6.7758,-6.8332,1.0376,-0.1221,3.2349,134.5496,-5.9821,-30.5035,0.894,0.2229,-0.1479,0.3595
1777287875.6303222,L_Foot,-0.8183,0.4929,9.9962,-0.7324,-0.7935,0.061,3.5156,4.9603,-140.3339,-0.0303,0.0435,-0.9389,0.3401
1777287875.6303222,R_Femur,-1.7562,5.6656,7.8237,-1.4648,-2.8076,-1.9531,37.7545,10.5084,-44.9506,0.2646,0.2032,-0.3328,0.882
1777287875.6303222,R_Tibia,-1.0288,9.1923,-2.8376,0.7324,-0.7324,1.5259,108.3691,7.1906,-34.942,0.761,0.278,-0.1268,0.5723
1777287875.6303222,R_Foot,0.9905,0.1483,9.9531,0.4272,-0.4883,-0.3052,0.78,-5.5151,-89.6045,0.0387,-0.0293,-0.7041,0.7085
1777287875.6303222,Trunk,1.9284,3.6654,-9.087,3.1128,-0.8545,0.7324,157.1759,-10.1019,-58.9197,0.8587,0.4651,-0.1721,0.1292
1777287875.6303222,L_Femur,-2.2921,7.2399,6.3116,-2.6855,-5.4321,-2.9297,49.1638,12.3212,-45.2637,0.3442,0.2492,-0.3067,0.8517
1777287875.6303222,L_Tibia,0.847,6.7758,-6.8332,1.0376,-0.1221,3.2349,134.5496,-5.9821,-30.5035,0.894,0.2229,-0.1479,0.3595
1777287875.6303222,L_Foot,-0.823,0.5646,9.9866,-0.7935,-1.0376,-0.1221,3.5156,4.9603,-140.3339,-0.0303,0.0435,-0.9389,0.3401
1777287875.6303222,R_Femur,-1.7562,5.6656,7.8237,-1.4648,-2.8076,-1.9531,37.7545,10.5084,-44.9506,0.2646,0.2032,-0.3328,0.882
1777287875.6303222,R_Tibia,-1.0288,9.1923,-2.8376,0.7324,-0.7324,1.5259,108.3691,7.1906,-34.942,0.761,0.278,-0.1268,0.5723
1777287875.6303222,R_Foot,0.9905,0.1483,9.9531,0.4272,-0.4883,-0.3052,0.78,-5.5151,-89.6045,0.0387,-0.0293,-0.7041,0.7085
1777287875.6318324,Trunk,1.9284,3.6654,-9.087,3.1128,-0.8545,0.7324,157.1759,-10.1019,-58.9197,0.8587,0.4651,-0.1721,0.1292
1777287875.6318324,L_Femur,-2.2921,7.2399,6.3116,-2.6855,-5.4321,-2.9297,49.1638,12.3212,-45.2637,0.3442,0.2492,-0.3067,0.8517
1777287875.6318324,L_Tibia,0.847,6.7758,-6.8332,1.0376,-0.1221,3.2349,134.5496,-5.9821,-30.5035,0.894,0.2229,-0.1479,0.3595
1777287875.6318324,L_Foot,-0.823,0.5646,9.9866,-0.7935,-1.0376,-0.1221,3.5156,4.9603,-140.3339,-0.0303,0.0435,-0.9389,0.3401
1777287875.6318324,R_Femur,-1.5743,5.7661,7.7232,-1.8311,-5.0659,-0.4272,37.7161,10.4645,-44.989,0.2644,0.2029,-0.3333,0.882
1777287875.6318324,R_Tibia,-1.0288,9.1923,-2.8376,0.7324,-0.7324,1.5259,108.3691,7.1906,-34.942,0.761,0.278,-0.1268,0.5723
1777287875.6318324,R_Foot,0.9905,0.1483,9.9531,0.4272,-0.4883,-0.3052,0.78,-5.5151,-89.6045,0.0387,-0.0293,-0.7041,0.7085
1777287875.6318324,Trunk,1.9284,3.6654,-9.087,3.1128,-0.8545,0.7324,157.1759,-10.1019,-58.9197,0.8587,0.4651,-0.1721,0.1292
1777287875.6318324,L_Femur,-2.2921,7.2399,6.3116,-2.6855,-5.4321,-2.9297,49.1638,12.3212,-45.2637,0.3442,0.2492,-0.3067,0.8517
1777287875.6318324,L_Tibia,0.847,6.7758,-6.8332,1.0376,-0.1221,3.2349,134.5496,-5.9821,-30.5035,0.894,0.2229,-0.1479,0.3595
1777287875.6318324,L_Foot,-0.823,0.5646,9.9866,-0.7935,-1.0376,-0.1221,3.5156,4.9603,-140.3339,-0.0303,0.0435,-0.9389,0.3401
1777287875.6318324,R_Femur,-1.5743,5.7661,7.7232,-1.8311,-5.0659,-0.4272,37.7161,10.4645,-44.989,0.2644,0.2029,-0.3333,0.882
1777287875.6318324,R_Tibia,-1.0288,9.1923,-2.8376,0.7324,-0.7324,1.5259,108.3691,7.1906,-34.942,0.761,0.278,-0.1268,0.5723
1777287875.6318324,R_Foot,1.0527,0.1771,9.9483,-0.4883,0.1221,-0.4272,0.7855,-5.5151,-89.6045,0.0388,-0.0293,-0.7041,0.7085
1777287875.6318324,Trunk,1.6652,3.3735,-8.7473,3.8452,-1.709,2.1362,157.2363,-10.0964,-58.9636,0.8586,0.4655,-0.1718,0.1287
1777287875.6318324,L_Femur,-2.2921,7.2399,6.3116,-2.6855,-5.4321,-2.9297,49.1638,12.3212,-45.2637,0.3442,0.2492,-0.3067,0.8517
1777287875.6318324,L_Tibia,0.847,6.7758,-6.8332,1.0376,-0.1221,3.2349,134.5496,-5.9821,-30.5035,0.894,0.2229,-0.1479,0.3595
1777287875.6318324,L_Foot,-0.823,0.5646,9.9866,-0.7935,-1.0376,-0.1221,3.5156,4.9603,-140.3339,-0.0303,0.0435,-0.9389,0.3401
1777287875.6318324,R_Femur,-1.5743,5.7661,7.7232,-1.8311,-5.0659,-0.4272,37.7161,10.4645,-44.989,0.2644,0.2029,-0.3333,0.882
1777287875.6318324,R_Tibia,-1.0288,9.1923,-2.8376,0.7324,-0.7324,1.5259,108.3691,7.1906,-34.942,0.761,0.278,-0.1268,0.5723
1777287875.6318324,R_Foot,1.0527,0.1771,9.9483,-0.4883,0.1221,-0.4272,0.7855,-5.5151,-89.6045,0.0388,-0.0293,-0.7041,0.7085
1777287875.6318324,Trunk,1.6652,3.3735,-8.7473,3.8452,-1.709,2.1362,157.2363,-10.0964,-58.9636,0.8586,0.4655,-0.1718,0.1287
1777287875.6318324,L_Femur,-2.2155,6.9528,6.3547,-2.5024,-3.8452,-3.2349,49.1089,12.3157,-45.3351,0.3436,0.2493,-0.3074,0.8516
1777287875.6318324,L_Tibia,0.847,6.7758,-6.8332,1.0376,-0.1221,3.2349,134.5496,-5.9821,-30.5035,0.894,0.2229,-0.1479,0.3595
1777287875.6318324,L_Foot,-0.823,0.5646,9.9866,-0.7935,-1.0376,-0.1221,3.5156,4.9603,-140.3339,-0.0303,0.0435,-0.9389,0.3401
1777287875.6318324,R_Femur,-1.5743,5.7661,7.7232,-1.8311,-5.0659,-0.4272,37.7161,10.4645,-44.989,0.2644,0.2029,-0.3333,0.882
1777287875.6318324,R_Tibia,-1.0288,9.1923,-2.8376,0.7324,-0.7324,1.5259,108.3691,7.1906,-34.942,0.761,0.278,-0.1268,0.5723
1777287875.6318324,R_Foot,1.0527,0.1771,9.9483,-0.4883,0.1221,-0.4272,0.7855,-5.5151,-89.6045,0.0388,-0.0293,-0.7041,0.7085
1777287875.6328433,Trunk,1.6652,3.3735,-8.7473,3.8452,-1.709,2.1362,157.2363,-10.0964,-58.9636,0.8586,0.4655,-0.1718,0.1287
1777287875.6328433,L_Femur,-2.2155,6.9528,6.3547,-2.5024,-3.8452,-3.2349,49.1089,12.3157,-45.3351,0.3436,0.2493,-0.3074,0.8516
1777287875.6328433,L_Tibia,0.8709,6.5844,-6.6753,1.8311,-1.8311,3.54,134.588,-6.004,-30.564,0.894,0.2233,-0.1482,0.3591
1777287875.6328433,L_Foot,-0.823,0.5646,9.9866,-0.7935,-1.0376,-0.1221,3.5156,4.9603,-140.3339,-0.0303,0.0435,-0.9389,0.3401
1777287875.6328433,R_Femur,-1.5743,5.7661,7.7232,-1.8311,-5.0659,-0.4272,37.7161,10.4645,-44.989,0.2644,0.2029,-0.3333,0.882
1777287875.6328433,R_Tibia,-1.0288,9.1923,-2.8376,0.7324,-0.7324,1.5259,108.3691,7.1906,-34.942,0.761,0.278,-0.1268,0.5723
1777287875.6328433,R_Foot,1.0527,0.1771,9.9483,-0.4883,0.1221,-0.4272,0.7855,-5.5151,-89.6045,0.0388,-0.0293,-0.7041,0.7085
1777287875.6328433,Trunk,1.6652,3.3735,-8.7473,3.8452,-1.709,2.1362,157.2363,-10.0964,-58.9636,0.8586,0.4655,-0.1718,0.1287
1777287875.6328433,L_Femur,-2.2155,6.9528,6.3547,-2.5024,-3.8452,-3.2349,49.1089,12.3157,-45.3351,0.3436,0.2493,-0.3074,0.8516
1777287875.6328433,L_Tibia,0.8709,6.5844,-6.6753,1.8311,-1.8311,3.54,134.588,-6.004,-30.564,0.894,0.2233,-0.1482,0.3591
1777287875.6328433,L_Foot,-0.823,0.579,9.9579,-1.1597,-0.2441,-0.4272,3.5101,4.9603,-140.3339,-0.0303,0.0435,-0.9389,0.3401
1777287875.6328433,R_Femur,-1.5743,5.7661,7.7232,-1.8311,-5.0659,-0.4272,37.7161,10.4645,-44.989,0.2644,0.2029,-0.3333,0.882
1777287875.6328433,R_Tibia,-1.0288,9.1923,-2.8376,0.7324,-0.7324,1.5259,108.3691,7.1906,-34.942,0.761,0.278,-0.1268,0.5723
1777287875.6328433,R_Foot,1.0527,0.1771,9.9483,-0.4883,0.1221,-0.4272,0.7855,-5.5151,-89.6045,0.0388,-0.0293,-0.7041,0.7085
1777287875.6328433,Trunk,1.6652,3.3735,-8.7473,3.8452,-1.709,2.1362,157.2363,-10.0964,-58.9636,0.8586,0.4655,-0.1718,0.1287
1777287875.6328433,L_Femur,-2.2155,6.9528,6.3547,-2.5024,-3.8452,-3.2349,49.1089,12.3157,-45.3351,0.3436,0.2493,-0.3074,0.8516
1777287875.6328433,L_Tibia,0.8709,6.5844,-6.6753,1.8311,-1.8311,3.54,134.588,-6.004,-30.564,0.894,0.2233,-0.1482,0.3591
1777287875.6328433,L_Foot,-0.823,0.579,9.9579,-1.1597,-0.2441,-0.4272,3.5101,4.9603,-140.3339,-0.0303,0.0435,-0.9389,0.3401
1777287875.6328433,R_Femur,-1.3111,5.8235,7.6275,-2.2583,-4.8218,0.9766,37.6501,10.3766,-45.0275,0.2641,0.2021,-0.334,0.882
1777287875.6328433,R_Tibia,-1.0288,9.1923,-2.8376,0.7324,-0.7324,1.5259,108.3691,7.1906,-34.942,0.761,0.278,-0.1268,0.5723
1777287875.6328433,R_Foot,1.0527,0.1771,9.9483,-0.4883,0.1221,-0.4272,0.7855,-5.5151,-89.6045,0.0388,-0.0293,-0.7041,0.7085
1777287875.6328433,Trunk,1.6652,3.3735,-8.7473,3.8452,-1.709,2.1362,157.2363,-10.0964,-58.9636,0.8586,0.4655,-0.1718,0.1287
1777287875.6328433,L_Femur,-2.2155,6.9528,6.3547,-2.5024,-3.8452,-3.2349,49.1089,12.3157,-45.3351,0.3436,0.2493,-0.3074,0.8516
1777287875.6328433,L_Tibia,0.8709,6.5844,-6.6753,1.8311,-1.8311,3.54,134.588,-6.004,-30.564,0.894,0.2233,-0.1482,0.3591
1777287875.6328433,L_Foot,-0.823,0.579,9.9579,-1.1597,-0.2441,-0.4272,3.5101,4.9603,-140.3339,-0.0303,0.0435,-0.9389,0.3401
1777287875.6328433,R_Femur,-1.3111,5.8235,7.6275,-2.2583,-4.8218,0.9766,37.6501,10.3766,-45.0275,0.2641,0.2021,-0.334,0.882
1777287875.6328433,R_Tibia,-0.7704,9.0344,-2.8472,0.7935,1.9531,0.4883,108.4076,7.1686,-34.9036,0.7613,0.2777,-0.1267,0.5721
1777287875.6328433,R_Foot,1.0527,0.1771,9.9483,-0.4883,0.1221,-0.4272,0.7855,-5.5151,-89.6045,0.0388,-0.0293,-0.7041,0.7085
1777287875.6328433,Trunk,1.4308,3.2539,-8.575,6.4087,-5.0659,3.1128,157.3242,-10.058,-59.035,0.8584,0.4662,-0.1713,0.1281
1777287875.6328433,L_Femur,-2.2155,6.9528,6.3547,-2.5024,-3.8452,-3.2349,49.1089,12.3157,-45.3351,0.3436,0.2493,-0.3074,0.8516
1777287875.6328433,L_Tibia,0.8709,6.5844,-6.6753,1.8311,-1.8311,3.54,134.588,-6.004,-30.564,0.894,0.2233,-0.1482,0.3591
1777287875.6328433,L_Foot,-0.823,0.579,9.9579,-1.1597,-0.2441,-0.4272,3.5101,4.9603,-140.3339,-0.0303,0.0435,-0.9389,0.3401
1777287875.6328433,R_Femur,-1.3111,5.8235,7.6275,-2.2583,-4.8218,0.9766,37.6501,10.3766,-45.0275,0.2641,0.2021,-0.334,0.882
1777287875.6328433,R_Tibia,-0.7704,9.0344,-2.8472,0.7935,1.9531,0.4883,108.4076,7.1686,-34.9036,0.7613,0.2777,-0.1267,0.5721
1777287875.6328433,R_Foot,1.0527,0.1771,9.9483,-0.4883,0.1221,-0.4272,0.7855,-5.5151,-89.6045,0.0388,-0.0293,-0.7041,0.7085
1777287875.7194505,Trunk,1.4308,3.2539,-8.575,6.4087,-5.0659,3.1128,157.3242,-10.058,-59.035,0.8584,0.4662,-0.1713,0.1281
1777287875.7194505,L_Femur,-2.2155,6.9528,6.3547,-2.5024,-3.8452,-3.2349,49.1089,12.3157,-45.3351,0.3436,0.2493,-0.3074,0.8516
1777287875.7194505,L_Tibia,0.9379,6.5796,-6.5796,2.1362,-1.3428,3.6621,134.632,-6.026,-30.6079,0.894,0.2236,-0.1484,0.3587
1777287875.7194505,L_Foot,-0.823,0.579,9.9579,-1.1597,-0.2441,-0.4272,3.5101,4.9603,-140.3339,-0.0303,0.0435,-0.9389,0.3401
1777287875.7194505,R_Femur,-1.3111,5.8235,7.6275,-2.2583,-4.8218,0.9766,37.6501,10.3766,-45.0275,0.2641,0.2021,-0.334,0.882
1777287875.7194505,R_Tibia,-0.7704,9.0344,-2.8472,0.7935,1.9531,0.4883,108.4076,7.1686,-34.9036,0.7613,0.2777,-0.1267,0.5721
1777287875.7194505,R_Foot,1.0527,0.1771,9.9483,-0.4883,0.1221,-0.4272,0.7855,-5.5151,-89.6045,0.0388,-0.0293,-0.7041,0.7085
1777287875.7204494,Trunk,1.4308,3.2539,-8.575,6.4087,-5.0659,3.1128,157.3242,-10.058,-59.035,0.8584,0.4662,-0.1713,0.1281
1777287875.7204494,L_Femur,-2.2155,6.9528,6.3547,-2.5024,-3.8452,-3.2349,49.1089,12.3157,-45.3351,0.3436,0.2493,-0.3074,0.8516
1777287875.7204494,L_Tibia,0.9379,6.5796,-6.5796,2.1362,-1.3428,3.6621,134.632,-6.026,-30.6079,0.894,0.2236,-0.1484,0.3587
1777287875.7204494,L_Foot,-0.9092,0.5934,9.9436,-1.709,-0.6104,-0.061,3.5101,4.9603,-140.3339,-0.0303,0.0435,-0.9389,0.3401
1777287875.7204494,R_Femur,-1.3111,5.8235,7.6275,-2.2583,-4.8218,0.9766,37.6501,10.3766,-45.0275,0.2641,0.2021,-0.334,0.882
1777287875.7204494,R_Tibia,-0.7704,9.0344,-2.8472,0.7935,1.9531,0.4883,108.4076,7.1686,-34.9036,0.7613,0.2777,-0.1267,0.5721
1777287875.7204494,R_Foot,1.0527,0.1771,9.9483,-0.4883,0.1221,-0.4272,0.7855,-5.5151,-89.6045,0.0388,-0.0293,-0.7041,0.7085
1777287875.7204494,Trunk,1.4308,3.2539,-8.575,6.4087,-5.0659,3.1128,157.3242,-10.058,-59.035,0.8584,0.4662,-0.1713,0.1281
1777287875.7204494,L_Femur,-2.2155,6.9528,6.3547,-2.5024,-3.8452,-3.2349,49.1089,12.3157,-45.3351,0.3436,0.2493,-0.3074,0.8516
1777287875.7204494,L_Tibia,0.9379,6.5796,-6.5796,2.1362,-1.3428,3.6621,134.632,-6.026,-30.6079,0.894,0.2236,-0.1484,0.3587
1777287875.7204494,L_Foot,-0.9092,0.5934,9.9436,-1.709,-0.6104,-0.061,3.5101,4.9603,-140.3339,-0.0303,0.0435,-0.9389,0.3401
1777287875.7204494,R_Femur,-1.3111,5.8235,7.6275,-2.2583,-4.8218,0.9766,37.6501,10.3766,-45.0275,0.2641,0.2021,-0.334,0.882
1777287875.7204494,R_Tibia,-0.7704,9.0344,-2.8472,0.7935,1.9531,0.4883,108.4076,7.1686,-34.9036,0.7613,0.2777,-0.1267,0.5721
1777287875.7204494,R_Foot,0.9092,0.1579,9.9483,-0.1831,0.4272,0.0,0.7855,-5.5151,-89.6045,0.0388,-0.0293,-0.7041,0.7085
1777287875.7204494,Trunk,1.4547,3.2826,-8.5989,7.5073,-6.7749,3.7231,157.4396,-9.9921,-59.1284,0.8582,0.4672,-0.1704,0.1274
1777287875.7204494,L_Femur,-2.2155,6.9528,6.3547,-2.5024,-3.8452,-3.2349,49.1089,12.3157,-45.3351,0.3436,0.2493,-0.3074,0.8516
1777287875.7204494,L_Tibia,0.9379,6.5796,-6.5796,2.1362,-1.3428,3.6621,134.632,-6.026,-30.6079,0.894,0.2236,-0.1484,0.3587
1777287875.7204494,L_Foot,-0.9092,0.5934,9.9436,-1.709,-0.6104,-0.061,3.5101,4.9603,-140.3339,-0.0303,0.0435,-0.9389,0.3401
1777287875.7204494,R_Femur,-1.3111,5.8235,7.6275,-2.2583,-4.8218,0.9766,37.6501,10.3766,-45.0275,0.2641,0.2021,-0.334,0.882
1777287875.7204494,R_Tibia,-0.7704,9.0344,-2.8472,0.7935,1.9531,0.4883,108.4076,7.1686,-34.9036,0.7613,0.2777,-0.1267,0.5721
1777287875.7204494,R_Foot,0.9092,0.1579,9.9483,-0.1831,0.4272,0.0,0.7855,-5.5151,-89.6045,0.0388,-0.0293,-0.7041,0.7085
1777287875.7204494,Trunk,1.4547,3.2826,-8.5989,7.5073,-6.7749,3.7231,157.4396,-9.9921,-59.1284,0.8582,0.4672,-0.1704,0.1274
1777287875.7204494,L_Femur,-1.9093,7.039,6.3643,-1.0986,2.9297,-3.6621,48.999,12.3871,-45.423,0.3424,0.2497,-0.308,0.8518
1777287875.7204494,L_Tibia,0.9379,6.5796,-6.5796,2.1362,-1.3428,3.6621,134.632,-6.026,-30.6079,0.894,0.2236,-0.1484,0.3587
1777287875.7204494,L_Foot,-0.9092,0.5934,9.9436,-1.709,-0.6104,-0.061,3.5101,4.9603,-140.3339,-0.0303,0.0435,-0.9389,0.3401
1777287875.7204494,R_Femur,-1.3111,5.8235,7.6275,-2.2583,-4.8218,0.9766,37.6501,10.3766,-45.0275,0.2641,0.2021,-0.334,0.882
1777287875.7204494,R_Tibia,-0.7704,9.0344,-2.8472,0.7935,1.9531,0.4883,108.4076,7.1686,-34.9036,0.7613,0.2777,-0.1267,0.5721
1777287875.7204494,R_Foot,0.9092,0.1579,9.9483,-0.1831,0.4272,0.0,0.7855,-5.5151,-89.6045,0.0388,-0.0293,-0.7041,0.7085
1777287875.721956,Trunk,1.4547,3.2826,-8.5989,7.5073,-6.7749,3.7231,157.4396,-9.9921,-59.1284,0.8582,0.4672,-0.1704,0.1274
1777287875.721956,L_Femur,-1.9093,7.039,6.3643,-1.0986,2.9297,-3.6621,48.999,12.3871,-45.423,0.3424,0.2497,-0.308,0.8518
1777287875.721956,L_Tibia,0.7608,6.4025,-6.7136,1.2207,-2.8076,2.6855,134.6594,-6.0315,-30.6573,0.894,0.224,-0.1486,0.3584
1777287875.721956,L_Foot,-0.9092,0.5934,9.9436,-1.709,-0.6104,-0.061,3.5101,4.9603,-140.3339,-0.0303,0.0435,-0.9389,0.3401
1777287875.721956,R_Femur,-1.3111,5.8235,7.6275,-2.2583,-4.8218,0.9766,37.6501,10.3766,-45.0275,0.2641,0.2021,-0.334,0.882
1777287875.721956,R_Tibia,-0.7704,9.0344,-2.8472,0.7935,1.9531,0.4883,108.4076,7.1686,-34.9036,0.7613,0.2777,-0.1267,0.5721
1777287875.721956,R_Foot,0.9092,0.1579,9.9483,-0.1831,0.4272,0.0,0.7855,-5.5151,-89.6045,0.0388,-0.0293,-0.7041,0.7085
1777287875.721956,Trunk,1.4547,3.2826,-8.5989,7.5073,-6.7749,3.7231,157.4396,-9.9921,-59.1284,0.8582,0.4672,-0.1704,0.1274
1777287875.721956,L_Femur,-1.9093,7.039,6.3643,-1.0986,2.9297,-3.6621,48.999,12.3871,-45.423,0.3424,0.2497,-0.308,0.8518
1777287875.721956,L_Tibia,0.7608,6.4025,-6.7136,1.2207,-2.8076,2.6855,134.6594,-6.0315,-30.6573,0.894,0.224,-0.1486,0.3584
1777287875.721956,L_Foot,-0.9714,0.5934,9.9101,-1.77,-1.2817,0.6714,3.5101,4.9603,-140.3339,-0.0303,0.0435,-0.9389,0.3401
1777287875.721956,R_Femur,-1.3111,5.8235,7.6275,-2.2583,-4.8218,0.9766,37.6501,10.3766,-45.0275,0.2641,0.2021,-0.334,0.882
1777287875.721956,R_Tibia,-0.7704,9.0344,-2.8472,0.7935,1.9531,0.4883,108.4076,7.1686,-34.9036,0.7613,0.2777,-0.1267,0.5721
1777287875.721956,R_Foot,0.9092,0.1579,9.9483,-0.1831,0.4272,0.0,0.7855,-5.5151,-89.6045,0.0388,-0.0293,-0.7041,0.7085
1777287875.721956,Trunk,1.4547,3.2826,-8.5989,7.5073,-6.7749,3.7231,157.4396,-9.9921,-59.1284,0.8582,0.4672,-0.1704,0.1274
1777287875.721956,L_Femur,-1.9093,7.039,6.3643,-1.0986,2.9297,-3.6621,48.999,12.3871,-45.423,0.3424,0.2497,-0.308,0.8518
1777287875.721956,L_Tibia,0.7608,6.4025,-6.7136,1.2207,-2.8076,2.6855,134.6594,-6.0315,-30.6573,0.894,0.224,-0.1486,0.3584
1777287875.721956,L_Foot,-0.9714,0.5934,9.9101,-1.77,-1.2817,0.6714,3.5101,4.9603,-140.3339,-0.0303,0.0435,-0.9389,0.3401
1777287875.721956,R_Femur,-1.5169,5.8618,7.7567,-1.5869,-1.709,0.9766,37.5677,10.2942,-45.022,0.2637,0.2012,-0.3343,0.8821
1777287875.721956,R_Tibia,-0.7704,9.0344,-2.8472,0.7935,1.9531,0.4883,108.4076,7.1686,-34.9036,0.7613,0.2777,-0.1267,0.5721
1777287875.721956,R_Foot,0.9092,0.1579,9.9483,-0.1831,0.4272,0.0,0.7855,-5.5151,-89.6045,0.0388,-0.0293,-0.7041,0.7085
1777287875.721956,Trunk,1.4547,3.2826,-8.5989,7.5073,-6.7749,3.7231,157.4396,-9.9921,-59.1284,0.8582,0.4672,-0.1704,0.1274
1777287875.721956,L_Femur,-1.9093,7.039,6.3643,-1.0986,2.9297,-3.6621,48.999,12.3871,-45.423,0.3424,0.2497,-0.308,0.8518
1777287875.721956,L_Tibia,0.7608,6.4025,-6.7136,1.2207,-2.8076,2.6855,134.6594,-6.0315,-30.6573,0.894,0.224,-0.1486,0.3584
1777287875.721956,L_Foot,-0.9714,0.5934,9.9101,-1.77,-1.2817,0.6714,3.5101,4.9603,-140.3339,-0.0303,0.0435,-0.9389,0.3401
1777287875.721956,R_Femur,-1.5169,5.8618,7.7567,-1.5869,-1.709,0.9766,37.5677,10.2942,-45.022,0.2637,0.2012,-0.3343,0.8821
1777287875.721956,R_Tibia,-1.3686,9.0296,-3.1678,0.9155,0.5493,-3.0518,108.468,7.3993,-34.7772,0.7614,0.278,-0.1243,0.5723
1777287875.721956,R_Foot,0.9092,0.1579,9.9483,-0.1831,0.4272,0.0,0.7855,-5.5151,-89.6045,0.0388,-0.0293,-0.7041,0.7085
1777287875.721956,Trunk,1.8471,3.3975,-8.9147,7.3242,-6.4087,2.9907,157.5934,-9.8987,-59.2438,0.8578,0.4685,-0.1692,0.1264
1777287875.721956,L_Femur,-1.9093,7.039,6.3643,-1.0986,2.9297,-3.6621,48.999,12.3871,-45.423,0.3424,0.2497,-0.308,0.8518
1777287875.721956,L_Tibia,0.7608,6.4025,-6.7136,1.2207,-2.8076,2.6855,134.6594,-6.0315,-30.6573,0.894,0.224,-0.1486,0.3584
1777287875.721956,L_Foot,-0.9714,0.5934,9.9101,-1.77,-1.2817,0.6714,3.5101,4.9603,-140.3339,-0.0303,0.0435,-0.9389,0.3401
1777287875.721956,R_Femur,-1.5169,5.8618,7.7567,-1.5869,-1.709,0.9766,37.5677,10.2942,-45.022,0.2637,0.2012,-0.3343,0.8821
1777287875.721956,R_Tibia,-1.3686,9.0296,-3.1678,0.9155,0.5493,-3.0518,108.468,7.3993,-34.7772,0.7614,0.278,-0.1243,0.5723
1777287875.721956,R_Foot,0.9092,0.1579,9.9483,-0.1831,0.4272,0.0,0.7855,-5.5151,-89.6045,0.0388,-0.0293,-0.7041,0.7085
1777287875.7229638,Trunk,1.8471,3.3975,-8.9147,7.3242,-6.4087,2.9907,157.5934,-9.8987,-59.2438,0.8578,0.4685,-0.1692,0.1264
1777287875.7229638,L_Femur,-1.8806,7.2352,6.5078,2.1362,3.1128,-3.7231,49.0155,12.464,-45.412,0.3423,0.2503,-0.3076,0.8518
1777287875.7229638,L_Tibia,0.7608,6.4025,-6.7136,1.2207,-2.8076,2.6855,134.6594,-6.0315,-30.6573,0.894,0.224,-0.1486,0.3584
1777287875.7229638,L_Foot,-0.9714,0.5934,9.9101,-1.77,-1.2817,0.6714,3.5101,4.9603,-140.3339,-0.0303,0.0435,-0.9389,0.3401
1777287875.7229638,R_Femur,-1.5169,5.8618,7.7567,-1.5869,-1.709,0.9766,37.5677,10.2942,-45.022,0.2637,0.2012,-0.3343,0.8821
1777287875.7229638,R_Tibia,-1.3686,9.0296,-3.1678,0.9155,0.5493,-3.0518,108.468,7.3993,-34.7772,0.7614,0.278,-0.1243,0.5723
1777287875.7229638,R_Foot,0.9092,0.1579,9.9483,-0.1831,0.4272,0.0,0.7855,-5.5151,-89.6045,0.0388,-0.0293,-0.7041,0.7085
1777287875.7234519,Trunk,1.8471,3.3975,-8.9147,7.3242,-6.4087,2.9907,157.5934,-9.8987,-59.2438,0.8578,0.4685,-0.1692,0.1264
1777287875.7234519,L_Femur,-1.8806,7.2352,6.5078,2.1362,3.1128,-3.7231,49.0155,12.464,-45.412,0.3423,0.2503,-0.3076,0.8518
1777287875.7234519,L_Tibia,1.0862,6.5222,-7.2687,-0.1831,-4.4556,1.709,134.6759,-5.9875,-30.7343,0.8939,0.2248,-0.1484,0.3582
1777287875.7234519,L_Foot,-0.9714,0.5934,9.9101,-1.77,-1.2817,0.6714,3.5101,4.9603,-140.3339,-0.0303,0.0435,-0.9389,0.3401
1777287875.7234519,R_Femur,-1.5169,5.8618,7.7567,-1.5869,-1.709,0.9766,37.5677,10.2942,-45.022,0.2637,0.2012,-0.3343,0.8821
1777287875.7234519,R_Tibia,-1.3686,9.0296,-3.1678,0.9155,0.5493,-3.0518,108.468,7.3993,-34.7772,0.7614,0.278,-0.1243,0.5723
1777287875.7234519,R_Foot,0.9092,0.1579,9.9483,-0.1831,0.4272,0.0,0.7855,-5.5151,-89.6045,0.0388,-0.0293,-0.7041,0.7085
1777287875.7234519,Trunk,1.8471,3.3975,-8.9147,7.3242,-6.4087,2.9907,157.5934,-9.8987,-59.2438,0.8578,0.4685,-0.1692,0.1264
1777287875.7234519,L_Femur,-1.8806,7.2352,6.5078,2.1362,3.1128,-3.7231,49.0155,12.464,-45.412,0.3423,0.2503,-0.3076,0.8518
1777287875.7234519,L_Tibia,1.0862,6.5222,-7.2687,-0.1831,-4.4556,1.709,134.6759,-5.9875,-30.7343,0.8939,0.2248,-0.1484,0.3582
1777287875.7234519,L_Foot,-0.8805,0.6604,10.0823,-2.4414,-1.5869,0.4883,3.5101,4.9603,-140.3339,-0.0303,0.0435,-0.9389,0.3401
1777287875.7234519,R_Femur,-1.5169,5.8618,7.7567,-1.5869,-1.709,0.9766,37.5677,10.2942,-45.022,0.2637,0.2012,-0.3343,0.8821
1777287875.7234519,R_Tibia,-1.3686,9.0296,-3.1678,0.9155,0.5493,-3.0518,108.468,7.3993,-34.7772,0.7614,0.278,-0.1243,0.5723
1777287875.7234519,R_Foot,0.9092,0.1579,9.9483,-0.1831,0.4272,0.0,0.7855,-5.5151,-89.6045,0.0388,-0.0293,-0.7041,0.7085
1777287875.7234519,Trunk,1.8471,3.3975,-8.9147,7.3242,-6.4087,2.9907,157.5934,-9.8987,-59.2438,0.8578,0.4685,-0.1692,0.1264
1777287875.7234519,L_Femur,-1.8806,7.2352,6.5078,2.1362,3.1128,-3.7231,49.0155,12.464,-45.412,0.3423,0.2503,-0.3076,0.8518
1777287875.7234519,L_Tibia,1.0862,6.5222,-7.2687,-0.1831,-4.4556,1.709,134.6759,-5.9875,-30.7343,0.8939,0.2248,-0.1484,0.3582
1777287875.7234519,L_Foot,-0.8805,0.6604,10.0823,-2.4414,-1.5869,0.4883,3.5101,4.9603,-140.3339,-0.0303,0.0435,-0.9389,0.3401
1777287875.7234519,R_Femur,-1.7418,5.7613,7.8812,-0.5493,-0.7324,0.3052,37.5458,10.2777,-45.0055,0.2637,0.201,-0.3343,0.8822
1777287875.7234519,R_Tibia,-1.3686,9.0296,-3.1678,0.9155,0.5493,-3.0518,108.468,7.3993,-34.7772,0.7614,0.278,-0.1243,0.5723
1777287875.7234519,R_Foot,0.9092,0.1579,9.9483,-0.1831,0.4272,0.0,0.7855,-5.5151,-89.6045,0.0388,-0.0293,-0.7041,0.7085
1777287875.724579,Trunk,1.8471,3.3975,-8.9147,7.3242,-6.4087,2.9907,157.5934,-9.8987,-59.2438,0.8578,0.4685,-0.1692,0.1264
1777287875.724579,L_Femur,-1.8806,7.2352,6.5078,2.1362,3.1128,-3.7231,49.0155,12.464,-45.412,0.3423,0.2503,-0.3076,0.8518
1777287875.724579,L_Tibia,1.0862,6.5222,-7.2687,-0.1831,-4.4556,1.709,134.6759,-5.9875,-30.7343,0.8939,0.2248,-0.1484,0.3582
1777287875.724579,L_Foot,-0.8805,0.6604,10.0823,-2.4414,-1.5869,0.4883,3.5101,4.9603,-140.3339,-0.0303,0.0435,-0.9389,0.3401
1777287875.724579,R_Femur,-1.7418,5.7613,7.8812,-0.5493,-0.7324,0.3052,37.5458,10.2777,-45.0055,0.2637,0.201,-0.3343,0.8822
1777287875.724579,R_Tibia,-1.3686,9.0296,-3.1678,0.9155,0.5493,-3.0518,108.468,7.3993,-34.7772,0.7614,0.278,-0.1243,0.5723
1777287875.724579,R_Foot,0.9762,0.2297,10.0297,-1.709,0.7324,0.1831,0.7855,-5.5151,-89.6045,0.0388,-0.0293,-0.7041,0.7085
1777287875.770014,Trunk,2.1246,3.5506,-9.2258,5.3711,-2.0752,2.6855,157.6813,-9.8767,-59.3042,0.8577,0.4691,-0.1688,0.1258
1777287875.770014,L_Femur,-1.8806,7.2352,6.5078,2.1362,3.1128,-3.7231,49.0155,12.464,-45.412,0.3423,0.2503,-0.3076,0.8518
1777287875.770014,L_Tibia,1.0862,6.5222,-7.2687,-0.1831,-4.4556,1.709,134.6759,-5.9875,-30.7343,0.8939,0.2248,-0.1484,0.3582
1777287875.770014,L_Foot,-0.8805,0.6604,10.0823,-2.4414,-1.5869,0.4883,3.5101,4.9603,-140.3339,-0.0303,0.0435,-0.9389,0.3401
1777287875.770014,R_Femur,-1.7418,5.7613,7.8812,-0.5493,-0.7324,0.3052,37.5458,10.2777,-45.0055,0.2637,0.201,-0.3343,0.8822
1777287875.770014,R_Tibia,-1.3686,9.0296,-3.1678,0.9155,0.5493,-3.0518,108.468,7.3993,-34.7772,0.7614,0.278,-0.1243,0.5723
1777287875.770014,R_Foot,0.9762,0.2297,10.0297,-1.709,0.7324,0.1831,0.7855,-5.5151,-89.6045,0.0388,-0.0293,-0.7041,0.7085
1777287875.770014,Trunk,2.1246,3.5506,-9.2258,5.3711,-2.0752,2.6855,157.6813,-9.8767,-59.3042,0.8577,0.4691,-0.1688,0.1258
1777287875.770014,L_Femur,-2.1677,7.6563,6.6705,2.8076,-0.1831,-3.479,49.0594,12.5354,-45.4395,0.3423,0.251,-0.3075,0.8516
1777287875.770014,L_Tibia,1.0862,6.5222,-7.2687,-0.1831,-4.4556,1.709,134.6759,-5.9875,-30.7343,0.8939,0.2248,-0.1484,0.3582
1777287875.770014,L_Foot,-0.8805,0.6604,10.0823,-2.4414,-1.5869,0.4883,3.5101,4.9603,-140.3339,-0.0303,0.0435,-0.9389,0.3401
1777287875.770014,R_Femur,-1.7418,5.7613,7.8812,-0.5493,-0.7324,0.3052,37.5458,10.2777,-45.0055,0.2637,0.201,-0.3343,0.8822
1777287875.770014,R_Tibia,-1.3686,9.0296,-3.1678,0.9155,0.5493,-3.0518,108.468,7.3993,-34.7772,0.7614,0.278,-0.1243,0.5723
1777287875.770014,R_Foot,0.9762,0.2297,10.0297,-1.709,0.7324,0.1831,0.7855,-5.5151,-89.6045,0.0388,-0.0293,-0.7041,0.7085
1777287875.770014,Trunk,2.1246,3.5506,-9.2258,5.3711,-2.0752,2.6855,157.6813,-9.8767,-59.3042,0.8577,0.4691,-0.1688,0.1258
1777287875.770014,L_Femur,-2.1677,7.6563,6.6705,2.8076,-0.1831,-3.479,49.0594,12.5354,-45.4395,0.3423,0.251,-0.3075,0.8516
1777287875.770014,L_Tibia,1.493,6.9815,-7.2304,0.4272,-2.5635,2.9297,134.6979,-5.9821,-30.7837,0.8939,0.2252,-0.1485,0.358
1777287875.770014,L_Foot,-0.8805,0.6604,10.0823,-2.4414,-1.5869,0.4883,3.5101,4.9603,-140.3339,-0.0303,0.0435,-0.9389,0.3401
1777287875.770014,R_Femur,-1.7418,5.7613,7.8812,-0.5493,-0.7324,0.3052,37.5458,10.2777,-45.0055,0.2637,0.201,-0.3343,0.8822
1777287875.770014,R_Tibia,-1.3686,9.0296,-3.1678,0.9155,0.5493,-3.0518,108.468,7.3993,-34.7772,0.7614,0.278,-0.1243,0.5723
1777287875.770014,R_Foot,0.9762,0.2297,10.0297,-1.709,0.7324,0.1831,0.7855,-5.5151,-89.6045,0.0388,-0.0293,-0.7041,0.7085
1777287875.770014,Trunk,2.1246,3.5506,-9.2258,5.3711,-2.0752,2.6855,157.6813,-9.8767,-59.3042,0.8577,0.4691,-0.1688,0.1258
1777287875.770014,L_Femur,-2.1677,7.6563,6.6705,2.8076,-0.1831,-3.479,49.0594,12.5354,-45.4395,0.3423,0.251,-0.3075,0.8516
1777287875.770014,L_Tibia,1.493,6.9815,-7.2304,0.4272,-2.5635,2.9297,134.6979,-5.9821,-30.7837,0.8939,0.2252,-0.1485,0.358
1777287875.770014,L_Foot,-0.7321,0.5551,10.1063,-2.0142,-1.4648,-0.3662,3.5101,4.9603,-140.3339,-0.0303,0.0435,-0.9389,0.3401
1777287875.770014,R_Femur,-1.7418,5.7613,7.8812,-0.5493,-0.7324,0.3052,37.5458,10.2777,-45.0055,0.2637,0.201,-0.3343,0.8822
1777287875.770014,R_Tibia,-1.3686,9.0296,-3.1678,0.9155,0.5493,-3.0518,108.468,7.3993,-34.7772,0.7614,0.278,-0.1243,0.5723
1777287875.770014,R_Foot,0.9762,0.2297,10.0297,-1.709,0.7324,0.1831,0.7855,-5.5151,-89.6045,0.0388,-0.0293,-0.7041,0.7085
1777287875.770014,Trunk,2.1246,3.5506,-9.2258,5.3711,-2.0752,2.6855,157.6813,-9.8767,-59.3042,0.8577,0.4691,-0.1688,0.1258
1777287875.770014,L_Femur,-2.1677,7.6563,6.6705,2.8076,-0.1831,-3.479,49.0594,12.5354,-45.4395,0.3423,0.251,-0.3075,0.8516
1777287875.770014,L_Tibia,1.493,6.9815,-7.2304,0.4272,-2.5635,2.9297,134.6979,-5.9821,-30.7837,0.8939,0.2252,-0.1485,0.358
1777287875.770014,L_Foot,-0.7321,0.5551,10.1063,-2.0142,-1.4648,-0.3662,3.5101,4.9603,-140.3339,-0.0303,0.0435,-0.9389,0.3401
1777287875.770014,R_Femur,-1.7466,5.7087,7.9864,0.1831,-0.5493,0.0,37.5403,10.2722,-45.0,0.2636,0.201,-0.3343,0.8823
1777287875.770014,R_Tibia,-1.3686,9.0296,-3.1678,0.9155,0.5493,-3.0518,108.468,7.3993,-34.7772,0.7614,0.278,-0.1243,0.5723
1777287875.770014,R_Foot,0.9762,0.2297,10.0297,-1.709,0.7324,0.1831,0.7855,-5.5151,-89.6045,0.0388,-0.0293,-0.7041,0.7085
1777287875.7715187,Trunk,2.1246,3.5506,-9.2258,5.3711,-2.0752,2.6855,157.6813,-9.8767,-59.3042,0.8577,0.4691,-0.1688,0.1258
1777287875.7715187,L_Femur,-2.1677,7.6563,6.6705,2.8076,-0.1831,-3.479,49.0594,12.5354,-45.4395,0.3423,0.251,-0.3075,0.8516
1777287875.7715187,L_Tibia,1.493,6.9815,-7.2304,0.4272,-2.5635,2.9297,134.6979,-5.9821,-30.7837,0.8939,0.2252,-0.1485,0.358
1777287875.7715187,L_Foot,-0.7321,0.5551,10.1063,-2.0142,-1.4648,-0.3662,3.5101,4.9603,-140.3339,-0.0303,0.0435,-0.9389,0.3401
1777287875.7715187,R_Femur,-1.7466,5.7087,7.9864,0.1831,-0.5493,0.0,37.5403,10.2722,-45.0,0.2636,0.201,-0.3343,0.8823
1777287875.7715187,R_Tibia,-1.3303,9.221,-3.029,2.0142,1.4038,-1.6479,108.4735,7.4103,-34.7168,0.7616,0.2776,-0.124,0.5723
1777287875.7715187,R_Foot,0.9762,0.2297,10.0297,-1.709,0.7324,0.1831,0.7855,-5.5151,-89.6045,0.0388,-0.0293,-0.7041,0.7085
1777287875.7715187,Trunk,1.938,3.7898,-9.3693,1.709,1.9531,4.0283,157.7362,-9.9261,-59.3646,0.8575,0.4695,-0.169,0.1251
1777287875.7715187,L_Femur,-2.1677,7.6563,6.6705,2.8076,-0.1831,-3.479,49.0594,12.5354,-45.4395,0.3423,0.251,-0.3075,0.8516
1777287875.7715187,L_Tibia,1.493,6.9815,-7.2304,0.4272,-2.5635,2.9297,134.6979,-5.9821,-30.7837,0.8939,0.2252,-0.1485,0.358
1777287875.7715187,L_Foot,-0.7321,0.5551,10.1063,-2.0142,-1.4648,-0.3662,3.5101,4.9603,-140.3339,-0.0303,0.0435,-0.9389,0.3401
1777287875.7715187,R_Femur,-1.7466,5.7087,7.9864,0.1831,-0.5493,0.0,37.5403,10.2722,-45.0,0.2636,0.201,-0.3343,0.8823
1777287875.7715187,R_Tibia,-1.3303,9.221,-3.029,2.0142,1.4038,-1.6479,108.4735,7.4103,-34.7168,0.7616,0.2776,-0.124,0.5723
1777287875.7715187,R_Foot,0.9762,0.2297,10.0297,-1.709,0.7324,0.1831,0.7855,-5.5151,-89.6045,0.0388,-0.0293,-0.7041,0.7085
1777287875.7715187,Trunk,1.938,3.7898,-9.3693,1.709,1.9531,4.0283,157.7362,-9.9261,-59.3646,0.8575,0.4695,-0.169,0.1251
1777287875.7715187,L_Femur,-2.3017,7.6371,6.6274,1.2817,-3.1738,-2.5024,49.0649,12.5464,-45.4889,0.3422,0.2512,-0.3078,0.8515
1777287875.7715187,L_Tibia,1.493,6.9815,-7.2304,0.4272,-2.5635,2.9297,134.6979,-5.9821,-30.7837,0.8939,0.2252,-0.1485,0.358
1777287875.7715187,L_Foot,-0.7321,0.5551,10.1063,-2.0142,-1.4648,-0.3662,3.5101,4.9603,-140.3339,-0.0303,0.0435,-0.9389,0.3401
1777287875.7715187,R_Femur,-1.7466,5.7087,7.9864,0.1831,-0.5493,0.0,37.5403,10.2722,-45.0,0.2636,0.201,-0.3343,0.8823
1777287875.7715187,R_Tibia,-1.3303,9.221,-3.029,2.0142,1.4038,-1.6479,108.4735,7.4103,-34.7168,0.7616,0.2776,-0.124,0.5723
1777287875.7715187,R_Foot,0.9762,0.2297,10.0297,-1.709,0.7324,0.1831,0.7855,-5.5151,-89.6045,0.0388,-0.0293,-0.7041,0.7085
1777287875.7715187,Trunk,1.938,3.7898,-9.3693,1.709,1.9531,4.0283,157.7362,-9.9261,-59.3646,0.8575,0.4695,-0.169,0.1251
1777287875.7715187,L_Femur,-2.3017,7.6371,6.6274,1.2817,-3.1738,-2.5024,49.0649,12.5464,-45.4889,0.3422,0.2512,-0.3078,0.8515
1777287875.7715187,L_Tibia,1.2346,7.1012,-6.704,1.2207,-3.6621,3.1128,134.7308,-5.9766,-30.8661,0.8938,0.2259,-0.1487,0.3577
1777287875.7715187,L_Foot,-0.7321,0.5551,10.1063,-2.0142,-1.4648,-0.3662,3.5101,4.9603,-140.3339,-0.0303,0.0435,-0.9389,0.3401
1777287875.7715187,R_Femur,-1.7466,5.7087,7.9864,0.1831,-0.5493,0.0,37.5403,10.2722,-45.0,0.2636,0.201,-0.3343,0.8823
1777287875.7715187,R_Tibia,-1.3303,9.221,-3.029,2.0142,1.4038,-1.6479,108.4735,7.4103,-34.7168,0.7616,0.2776,-0.124,0.5723
1777287875.7715187,R_Foot,0.9762,0.2297,10.0297,-1.709,0.7324,0.1831,0.7855,-5.5151,-89.6045,0.0388,-0.0293,-0.7041,0.7085
1777287875.7725313,Trunk,1.938,3.7898,-9.3693,1.709,1.9531,4.0283,157.7362,-9.9261,-59.3646,0.8575,0.4695,-0.169,0.1251
1777287875.7725313,L_Femur,-2.3017,7.6371,6.6274,1.2817,-3.1738,-2.5024,49.0649,12.5464,-45.4889,0.3422,0.2512,-0.3078,0.8515
1777287875.7725313,L_Tibia,1.2346,7.1012,-6.704,1.2207,-3.6621,3.1128,134.7308,-5.9766,-30.8661,0.8938,0.2259,-0.1487,0.3577
1777287875.7725313,L_Foot,-0.7704,0.4211,9.9818,-1.0376,-0.9766,-0.4883,3.4991,4.9548,-140.3503,-0.0303,0.0433,-0.939,0.3399
1777287875.7725313,R_Femur,-1.7466,5.7087,7.9864,0.1831,-0.5493,0.0,37.5403,10.2722,-45.0,0.2636,0.201,-0.3343,0.8823
1777287875.7725313,R_Tibia,-1.3303,9.221,-3.029,2.0142,1.4038,-1.6479,108.4735,7.4103,-34.7168,0.7616,0.2776,-0.124,0.5723
1777287875.7725313,R_Foot,0.9762,0.2297,10.0297,-1.709,0.7324,0.1831,0.7855,-5.5151,-89.6045,0.0388,-0.0293,-0.7041,0.7085
1777287875.7725313,Trunk,1.938,3.7898,-9.3693,1.709,1.9531,4.0283,157.7362,-9.9261,-59.3646,0.8575,0.4695,-0.169,0.1251
1777287875.7725313,L_Femur,-2.3017,7.6371,6.6274,1.2817,-3.1738,-2.5024,49.0649,12.5464,-45.4889,0.3422,0.2512,-0.3078,0.8515
1777287875.7725313,L_Tibia,1.2346,7.1012,-6.704,1.2207,-3.6621,3.1128,134.7308,-5.9766,-30.8661,0.8938,0.2259,-0.1487,0.3577
1777287875.7725313,L_Foot,-0.7704,0.4211,9.9818,-1.0376,-0.9766,-0.4883,3.4991,4.9548,-140.3503,-0.0303,0.0433,-0.939,0.3399
1777287875.7725313,R_Femur,-1.6748,5.7805,7.9146,0.3052,-2.1362,0.0,37.5348,10.2557,-45.0055,0.2637,0.2008,-0.3344,0.8822
1777287875.7725313,R_Tibia,-1.3303,9.221,-3.029,2.0142,1.4038,-1.6479,108.4735,7.4103,-34.7168,0.7616,0.2776,-0.124,0.5723
1777287875.7725313,R_Foot,0.9762,0.2297,10.0297,-1.709,0.7324,0.1831,0.7855,-5.5151,-89.6045,0.0388,-0.0293,-0.7041,0.7085
1777287875.7725313,Trunk,1.938,3.7898,-9.3693,1.709,1.9531,4.0283,157.7362,-9.9261,-59.3646,0.8575,0.4695,-0.169,0.1251
1777287875.7725313,L_Femur,-2.3017,7.6371,6.6274,1.2817,-3.1738,-2.5024,49.0649,12.5464,-45.4889,0.3422,0.2512,-0.3078,0.8515
1777287875.7725313,L_Tibia,1.2346,7.1012,-6.704,1.2207,-3.6621,3.1128,134.7308,-5.9766,-30.8661,0.8938,0.2259,-0.1487,0.3577
1777287875.7725313,L_Foot,-0.7704,0.4211,9.9818,-1.0376,-0.9766,-0.4883,3.4991,4.9548,-140.3503,-0.0303,0.0433,-0.939,0.3399
1777287875.7725313,R_Femur,-1.6748,5.7805,7.9146,0.3052,-2.1362,0.0,37.5348,10.2557,-45.0055,0.2637,0.2008,-0.3344,0.8822
1777287875.7725313,R_Tibia,-1.3303,9.221,-3.029,2.0142,1.4038,-1.6479,108.4735,7.4103,-34.7168,0.7616,0.2776,-0.124,0.5723
1777287875.7725313,R_Foot,1.0097,0.1148,9.9771,-1.2207,0.6714,0.0,0.791,-5.5206,-89.61,0.0388,-0.0293,-0.7041,0.7084
1777287875.7725313,Trunk,1.5647,3.8808,-9.2401,-5.3101,2.9297,5.6763,157.6758,-9.9976,-59.4305,0.8572,0.4698,-0.1698,0.1251
1777287875.7725313,L_Femur,-2.3017,7.6371,6.6274,1.2817,-3.1738,-2.5024,49.0649,12.5464,-45.4889,0.3422,0.2512,-0.3078,0.8515
1777287875.7725313,L_Tibia,1.2346,7.1012,-6.704,1.2207,-3.6621,3.1128,134.7308,-5.9766,-30.8661,0.8938,0.2259,-0.1487,0.3577
1777287875.7725313,L_Foot,-0.7704,0.4211,9.9818,-1.0376,-0.9766,-0.4883,3.4991,4.9548,-140.3503,-0.0303,0.0433,-0.939,0.3399
1777287875.7725313,R_Femur,-1.6748,5.7805,7.9146,0.3052,-2.1362,0.0,37.5348,10.2557,-45.0055,0.2637,0.2008,-0.3344,0.8822
1777287875.7725313,R_Tibia,-1.3303,9.221,-3.029,2.0142,1.4038,-1.6479,108.4735,7.4103,-34.7168,0.7616,0.2776,-0.124,0.5723
1777287875.7725313,R_Foot,1.0097,0.1148,9.9771,-1.2207,0.6714,0.0,0.791,-5.5206,-89.61,0.0388,-0.0293,-0.7041,0.7084
1777287875.7735362,Trunk,1.5647,3.8808,-9.2401,-5.3101,2.9297,5.6763,157.6758,-9.9976,-59.4305,0.8572,0.4698,-0.1698,0.1251
1777287875.7735362,L_Femur,-2.0911,7.1012,6.4265,0.5493,-8.0566,-1.0376,49.0485,12.4915,-45.5823,0.3421,0.2511,-0.3087,0.8513
1777287875.7735362,L_Tibia,1.2346,7.1012,-6.704,1.2207,-3.6621,3.1128,134.7308,-5.9766,-30.8661,0.8938,0.2259,-0.1487,0.3577
1777287875.7735362,L_Foot,-0.7704,0.4211,9.9818,-1.0376,-0.9766,-0.4883,3.4991,4.9548,-140.3503,-0.0303,0.0433,-0.939,0.3399
1777287875.7735362,R_Femur,-1.6748,5.7805,7.9146,0.3052,-2.1362,0.0,37.5348,10.2557,-45.0055,0.2637,0.2008,-0.3344,0.8822
1777287875.7735362,R_Tibia,-1.3303,9.221,-3.029,2.0142,1.4038,-1.6479,108.4735,7.4103,-34.7168,0.7616,0.2776,-0.124,0.5723
1777287875.7735362,R_Foot,1.0097,0.1148,9.9771,-1.2207,0.6714,0.0,0.791,-5.5206,-89.61,0.0388,-0.0293,-0.7041,0.7084
1777287875.7735362,Trunk,1.5647,3.8808,-9.2401,-5.3101,2.9297,5.6763,157.6758,-9.9976,-59.4305,0.8572,0.4698,-0.1698,0.1251
1777287875.7735362,L_Femur,-2.0911,7.1012,6.4265,0.5493,-8.0566,-1.0376,49.0485,12.4915,-45.5823,0.3421,0.2511,-0.3087,0.8513
1777287875.7735362,L_Tibia,1.0862,6.6896,-6.7279,0.9155,-8.4229,2.6855,134.7583,-5.9271,-30.965,0.8937,0.2269,-0.1485,0.3574
1777287875.7735362,L_Foot,-0.7704,0.4211,9.9818,-1.0376,-0.9766,-0.4883,3.4991,4.9548,-140.3503,-0.0303,0.0433,-0.939,0.3399
1777287875.7735362,R_Femur,-1.6748,5.7805,7.9146,0.3052,-2.1362,0.0,37.5348,10.2557,-45.0055,0.2637,0.2008,-0.3344,0.8822
1777287875.7735362,R_Tibia,-1.3303,9.221,-3.029,2.0142,1.4038,-1.6479,108.4735,7.4103,-34.7168,0.7616,0.2776,-0.124,0.5723
1777287875.7735362,R_Foot,1.0097,0.1148,9.9771,-1.2207,0.6714,0.0,0.791,-5.5206,-89.61,0.0388,-0.0293,-0.7041,0.7084
1777287875.7735362,Trunk,1.5647,3.8808,-9.2401,-5.3101,2.9297,5.6763,157.6758,-9.9976,-59.4305,0.8572,0.4698,-0.1698,0.1251
1777287875.7735362,L_Femur,-2.0911,7.1012,6.4265,0.5493,-8.0566,-1.0376,49.0485,12.4915,-45.5823,0.3421,0.2511,-0.3087,0.8513
1777287875.7735362,L_Tibia,1.0862,6.6896,-6.7279,0.9155,-8.4229,2.6855,134.7583,-5.9271,-30.965,0.8937,0.2269,-0.1485,0.3574
1777287875.7735362,L_Foot,-0.8039,0.5359,9.9771,-0.6714,-0.6714,-0.8545,3.4937,4.9493,-140.3668,-0.0303,0.0433,-0.939,0.3398
1777287875.7735362,R_Femur,-1.6748,5.7805,7.9146,0.3052,-2.1362,0.0,37.5348,10.2557,-45.0055,0.2637,0.2008,-0.3344,0.8822
1777287875.7735362,R_Tibia,-1.3303,9.221,-3.029,2.0142,1.4038,-1.6479,108.4735,7.4103,-34.7168,0.7616,0.2776,-0.124,0.5723
1777287875.7735362,R_Foot,1.0097,0.1148,9.9771,-1.2207,0.6714,0.0,0.791,-5.5206,-89.61,0.0388,-0.0293,-0.7041,0.7084
1777287875.7735362,Trunk,1.5647,3.8808,-9.2401,-5.3101,2.9297,5.6763,157.6758,-9.9976,-59.4305,0.8572,0.4698,-0.1698,0.1251
1777287875.7735362,L_Femur,-2.0911,7.1012,6.4265,0.5493,-8.0566,-1.0376,49.0485,12.4915,-45.5823,0.3421,0.2511,-0.3087,0.8513
1777287875.7735362,L_Tibia,1.0862,6.6896,-6.7279,0.9155,-8.4229,2.6855,134.7583,-5.9271,-30.965,0.8937,0.2269,-0.1485,0.3574
1777287875.7735362,L_Foot,-0.8039,0.5359,9.9771,-0.6714,-0.6714,-0.8545,3.4937,4.9493,-140.3668,-0.0303,0.0433,-0.939,0.3398
1777287875.7735362,R_Femur,-1.7849,5.8953,7.6802,-0.4883,-2.9297,0.1221,37.5238,10.2118,-45.022,0.2637,0.2005,-0.3346,0.8822
1777287875.7735362,R_Tibia,-1.3303,9.221,-3.029,2.0142,1.4038,-1.6479,108.4735,7.4103,-34.7168,0.7616,0.2776,-0.124,0.5723
1777287875.7735362,R_Foot,1.0097,0.1148,9.9771,-1.2207,0.6714,0.0,0.791,-5.5206,-89.61,0.0388,-0.0293,-0.7041,0.7084
1777287875.7735362,Trunk,1.5647,3.8808,-9.2401,-5.3101,2.9297,5.6763,157.6758,-9.9976,-59.4305,0.8572,0.4698,-0.1698,0.1251
1777287875.7735362,L_Femur,-2.0911,7.1012,6.4265,0.5493,-8.0566,-1.0376,49.0485,12.4915,-45.5823,0.3421,0.2511,-0.3087,0.8513
1777287875.7735362,L_Tibia,1.0862,6.6896,-6.7279,0.9155,-8.4229,2.6855,134.7583,-5.9271,-30.965,0.8937,0.2269,-0.1485,0.3574
1777287875.7735362,L_Foot,-0.8039,0.5359,9.9771,-0.6714,-0.6714,-0.8545,3.4937,4.9493,-140.3668,-0.0303,0.0433,-0.939,0.3398
1777287875.7735362,R_Femur,-1.7849,5.8953,7.6802,-0.4883,-2.9297,0.1221,37.5238,10.2118,-45.022,0.2637,0.2005,-0.3346,0.8822
1777287875.7735362,R_Tibia,-1.1915,9.0631,-3.0769,2.0142,2.9297,-1.5259,108.468,7.4158,-34.5959,0.7619,0.2768,-0.1233,0.5725
1777287875.7735362,R_Foot,1.0097,0.1148,9.9771,-1.2207,0.6714,0.0,0.791,-5.5206,-89.61,0.0388,-0.0293,-0.7041,0.7084
1777287875.774557,Trunk,1.3303,3.6319,-8.8908,-8.5449,1.5259,6.0425,157.5549,-10.0635,-59.5074,0.8568,0.4701,-0.1709,0.1256
1777287875.774557,L_Femur,-2.0911,7.1012,6.4265,0.5493,-8.0566,-1.0376,49.0485,12.4915,-45.5823,0.3421,0.2511,-0.3087,0.8513
1777287875.774557,L_Tibia,1.0862,6.6896,-6.7279,0.9155,-8.4229,2.6855,134.7583,-5.9271,-30.965,0.8937,0.2269,-0.1485,0.3574
1777287875.774557,L_Foot,-0.8039,0.5359,9.9771,-0.6714,-0.6714,-0.8545,3.4937,4.9493,-140.3668,-0.0303,0.0433,-0.939,0.3398
1777287875.774557,R_Femur,-1.7849,5.8953,7.6802,-0.4883,-2.9297,0.1221,37.5238,10.2118,-45.022,0.2637,0.2005,-0.3346,0.8822
1777287875.774557,R_Tibia,-1.1915,9.0631,-3.0769,2.0142,2.9297,-1.5259,108.468,7.4158,-34.5959,0.7619,0.2768,-0.1233,0.5725
1777287875.774557,R_Foot,1.0097,0.1148,9.9771,-1.2207,0.6714,0.0,0.791,-5.5206,-89.61,0.0388,-0.0293,-0.7041,0.7084
1777287875.774557,Trunk,1.3303,3.6319,-8.8908,-8.5449,1.5259,6.0425,157.5549,-10.0635,-59.5074,0.8568,0.4701,-0.1709,0.1256
1777287875.774557,L_Femur,-1.7466,6.7423,6.3212,0.1221,-7.1411,-0.6104,49.021,12.4091,-45.6976,0.3419,0.2508,-0.3099,0.851
1777287875.774557,L_Tibia,1.0862,6.6896,-6.7279,0.9155,-8.4229,2.6855,134.7583,-5.9271,-30.965,0.8937,0.2269,-0.1485,0.3574
1777287875.774557,L_Foot,-0.8039,0.5359,9.9771,-0.6714,-0.6714,-0.8545,3.4937,4.9493,-140.3668,-0.0303,0.0433,-0.939,0.3398
1777287875.774557,R_Femur,-1.7849,5.8953,7.6802,-0.4883,-2.9297,0.1221,37.5238,10.2118,-45.022,0.2637,0.2005,-0.3346,0.8822
1777287875.774557,R_Tibia,-1.1915,9.0631,-3.0769,2.0142,2.9297,-1.5259,108.468,7.4158,-34.5959,0.7619,0.2768,-0.1233,0.5725
1777287875.774557,R_Foot,1.0097,0.1148,9.9771,-1.2207,0.6714,0.0,0.791,-5.5206,-89.61,0.0388,-0.0293,-0.7041,0.7084
1777287875.774557,Trunk,1.3303,3.6319,-8.8908,-8.5449,1.5259,6.0425,157.5549,-10.0635,-59.5074,0.8568,0.4701,-0.1709,0.1256
1777287875.774557,L_Femur,-1.7466,6.7423,6.3212,0.1221,-7.1411,-0.6104,49.021,12.4091,-45.6976,0.3419,0.2508,-0.3099,0.851
1777287875.774557,L_Tibia,1.1963,6.5222,-6.7088,0.6714,-9.0332,2.0752,134.7913,-5.8502,-31.0803,0.8935,0.2281,-0.1482,0.3572
1777287875.774557,L_Foot,-0.8039,0.5359,9.9771,-0.6714,-0.6714,-0.8545,3.4937,4.9493,-140.3668,-0.0303,0.0433,-0.939,0.3398
1777287875.774557,R_Femur,-1.7849,5.8953,7.6802,-0.4883,-2.9297,0.1221,37.5238,10.2118,-45.022,0.2637,0.2005,-0.3346,0.8822
1777287875.774557,R_Tibia,-1.1915,9.0631,-3.0769,2.0142,2.9297,-1.5259,108.468,7.4158,-34.5959,0.7619,0.2768,-0.1233,0.5725
1777287875.774557,R_Foot,1.0097,0.1148,9.9771,-1.2207,0.6714,0.0,0.791,-5.5206,-89.61,0.0388,-0.0293,-0.7041,0.7084
1777287875.774557,Trunk,1.3303,3.6319,-8.8908,-8.5449,1.5259,6.0425,157.5549,-10.0635,-59.5074,0.8568,0.4701,-0.1709,0.1256
1777287875.774557,L_Femur,-1.7466,6.7423,6.3212,0.1221,-7.1411,-0.6104,49.021,12.4091,-45.6976,0.3419,0.2508,-0.3099,0.851
1777287875.774557,L_Tibia,1.1963,6.5222,-6.7088,0.6714,-9.0332,2.0752,134.7913,-5.8502,-31.0803,0.8935,0.2281,-0.1482,0.3572
1777287875.774557,L_Foot,-0.823,0.5455,9.9005,-0.1831,-0.2441,-0.9766,3.4991,4.9493,-140.3888,-0.0303,0.0433,-0.9391,0.3396
1777287875.774557,R_Femur,-1.7849,5.8953,7.6802,-0.4883,-2.9297,0.1221,37.5238,10.2118,-45.022,0.2637,0.2005,-0.3346,0.8822
1777287875.774557,R_Tibia,-1.1915,9.0631,-3.0769,2.0142,2.9297,-1.5259,108.468,7.4158,-34.5959,0.7619,0.2768,-0.1233,0.5725
1777287875.774557,R_Foot,1.0097,0.1148,9.9771,-1.2207,0.6714,0.0,0.791,-5.5206,-89.61,0.0388,-0.0293,-0.7041,0.7084
1777287875.774557,Trunk,1.3303,3.6319,-8.8908,-8.5449,1.5259,6.0425,157.5549,-10.0635,-59.5074,0.8568,0.4701,-0.1709,0.1256
1777287875.774557,L_Femur,-1.7466,6.7423,6.3212,0.1221,-7.1411,-0.6104,49.021,12.4091,-45.6976,0.3419,0.2508,-0.3099,0.851
1777287875.774557,L_Tibia,1.1963,6.5222,-6.7088,0.6714,-9.0332,2.0752,134.7913,-5.8502,-31.0803,0.8935,0.2281,-0.1482,0.3572
1777287875.774557,L_Foot,-0.823,0.5455,9.9005,-0.1831,-0.2441,-0.9766,3.4991,4.9493,-140.3888,-0.0303,0.0433,-0.9391,0.3396
1777287875.774557,R_Femur,-1.7849,5.8953,7.6802,-0.4883,-2.9297,0.1221,37.5238,10.2118,-45.022,0.2637,0.2005,-0.3346,0.8822
1777287875.774557,R_Tibia,-1.1915,9.0631,-3.0769,2.0142,2.9297,-1.5259,108.468,7.4158,-34.5959,0.7619,0.2768,-0.1233,0.5725
1777287875.774557,R_Foot,0.914,0.1101,9.8526,-0.9766,0.8545,-0.3052,0.791,-5.5206,-89.61,0.0388,-0.0293,-0.7041,0.7084
1777287875.775541,Trunk,1.3255,3.3257,-8.7233,-8.4229,-2.6855,3.7842,157.3901,-10.069,-59.6118,0.8561,0.4706,-0.1717,0.1267
1777287875.775541,L_Femur,-1.7466,6.7423,6.3212,0.1221,-7.1411,-0.6104,49.021,12.4091,-45.6976,0.3419,0.2508,-0.3099,0.851
1777287875.775541,L_Tibia,1.1963,6.5222,-6.7088,0.6714,-9.0332,2.0752,134.7913,-5.8502,-31.0803,0.8935,0.2281,-0.1482,0.3572
1777287875.775541,L_Foot,-0.823,0.5455,9.9005,-0.1831,-0.2441,-0.9766,3.4991,4.9493,-140.3888,-0.0303,0.0433,-0.9391,0.3396
1777287875.775541,R_Femur,-1.7849,5.8953,7.6802,-0.4883,-2.9297,0.1221,37.5238,10.2118,-45.022,0.2637,0.2005,-0.3346,0.8822
1777287875.775541,R_Tibia,-1.1915,9.0631,-3.0769,2.0142,2.9297,-1.5259,108.468,7.4158,-34.5959,0.7619,0.2768,-0.1233,0.5725
1777287875.775541,R_Foot,0.914,0.1101,9.8526,-0.9766,0.8545,-0.3052,0.791,-5.5206,-89.61,0.0388,-0.0293,-0.7041,0.7084
1777287875.775541,Trunk,1.3255,3.3257,-8.7233,-8.4229,-2.6855,3.7842,157.3901,-10.069,-59.6118,0.8561,0.4706,-0.1717,0.1267
1777287875.775541,L_Femur,-1.8231,6.9959,6.2925,-0.6714,-3.9062,-1.77,48.988,12.3816,-45.7635,0.3416,0.2507,-0.3106,0.8509
1777287875.775541,L_Tibia,1.1963,6.5222,-6.7088,0.6714,-9.0332,2.0752,134.7913,-5.8502,-31.0803,0.8935,0.2281,-0.1482,0.3572
1777287875.775541,L_Foot,-0.823,0.5455,9.9005,-0.1831,-0.2441,-0.9766,3.4991,4.9493,-140.3888,-0.0303,0.0433,-0.9391,0.3396
1777287875.775541,R_Femur,-1.7849,5.8953,7.6802,-0.4883,-2.9297,0.1221,37.5238,10.2118,-45.022,0.2637,0.2005,-0.3346,0.8822
1777287875.775541,R_Tibia,-1.1915,9.0631,-3.0769,2.0142,2.9297,-1.5259,108.468,7.4158,-34.5959,0.7619,0.2768,-0.1233,0.5725
1777287875.775541,R_Foot,0.914,0.1101,9.8526,-0.9766,0.8545,-0.3052,0.791,-5.5206,-89.61,0.0388,-0.0293,-0.7041,0.7084
1777287875.775541,Trunk,1.3255,3.3257,-8.7233,-8.4229,-2.6855,3.7842,157.3901,-10.069,-59.6118,0.8561,0.4706,-0.1717,0.1267
1777287875.775541,L_Femur,-1.8231,6.9959,6.2925,-0.6714,-3.9062,-1.77,48.988,12.3816,-45.7635,0.3416,0.2507,-0.3106,0.8509
1777287875.775541,L_Tibia,0.9905,6.5844,-6.8141,-0.1221,-6.1646,0.7935,134.8022,-5.7568,-31.1847,0.8933,0.2293,-0.1478,0.3572
1777287875.775541,L_Foot,-0.823,0.5455,9.9005,-0.1831,-0.2441,-0.9766,3.4991,4.9493,-140.3888,-0.0303,0.0433,-0.9391,0.3396
1777287875.775541,R_Femur,-1.7849,5.8953,7.6802,-0.4883,-2.9297,0.1221,37.5238,10.2118,-45.022,0.2637,0.2005,-0.3346,0.8822
1777287875.775541,R_Tibia,-1.1915,9.0631,-3.0769,2.0142,2.9297,-1.5259,108.468,7.4158,-34.5959,0.7619,0.2768,-0.1233,0.5725
1777287875.775541,R_Foot,0.914,0.1101,9.8526,-0.9766,0.8545,-0.3052,0.791,-5.5206,-89.61,0.0388,-0.0293,-0.7041,0.7084
1777287875.775541,Trunk,1.3255,3.3257,-8.7233,-8.4229,-2.6855,3.7842,157.3901,-10.069,-59.6118,0.8561,0.4706,-0.1717,0.1267
1777287875.775541,L_Femur,-1.8231,6.9959,6.2925,-0.6714,-3.9062,-1.77,48.988,12.3816,-45.7635,0.3416,0.2507,-0.3106,0.8509
1777287875.775541,L_Tibia,0.9905,6.5844,-6.8141,-0.1221,-6.1646,0.7935,134.8022,-5.7568,-31.1847,0.8933,0.2293,-0.1478,0.3572
1777287875.775541,L_Foot,-0.8853,0.5264,9.9723,0.5493,-0.3662,-0.5493,3.5156,4.9493,-140.4108,-0.0302,0.0435,-0.9391,0.3394
1777287875.775541,R_Femur,-1.7849,5.8953,7.6802,-0.4883,-2.9297,0.1221,37.5238,10.2118,-45.022,0.2637,0.2005,-0.3346,0.8822
1777287875.775541,R_Tibia,-1.1915,9.0631,-3.0769,2.0142,2.9297,-1.5259,108.468,7.4158,-34.5959,0.7619,0.2768,-0.1233,0.5725
1777287875.775541,R_Foot,0.914,0.1101,9.8526,-0.9766,0.8545,-0.3052,0.791,-5.5206,-89.61,0.0388,-0.0293,-0.7041,0.7084
1777287875.7765386,Trunk,1.3255,3.3257,-8.7233,-8.4229,-2.6855,3.7842,157.3901,-10.069,-59.6118,0.8561,0.4706,-0.1717,0.1267
1777287875.7765386,L_Femur,-1.8231,6.9959,6.2925,-0.6714,-3.9062,-1.77,48.988,12.3816,-45.7635,0.3416,0.2507,-0.3106,0.8509
1777287875.7765386,L_Tibia,0.9905,6.5844,-6.8141,-0.1221,-6.1646,0.7935,134.8022,-5.7568,-31.1847,0.8933,0.2293,-0.1478,0.3572
1777287875.7765386,L_Foot,-0.8853,0.5264,9.9723,0.5493,-0.3662,-0.5493,3.5156,4.9493,-140.4108,-0.0302,0.0435,-0.9391,0.3394
1777287875.7765386,R_Femur,-1.8327,5.7805,7.9099,-0.2441,-2.9297,-0.4272,37.4799,10.1239,-45.0604,0.2636,0.1998,-0.3353,0.8822
1777287875.7765386,R_Tibia,-1.1915,9.0631,-3.0769,2.0142,2.9297,-1.5259,108.468,7.4158,-34.5959,0.7619,0.2768,-0.1233,0.5725
1777287875.7765386,R_Foot,0.914,0.1101,9.8526,-0.9766,0.8545,-0.3052,0.791,-5.5206,-89.61,0.0388,-0.0293,-0.7041,0.7084
1777287875.7765386,Trunk,1.3255,3.3257,-8.7233,-8.4229,-2.6855,3.7842,157.3901,-10.069,-59.6118,0.8561,0.4706,-0.1717,0.1267
1777287875.7765386,L_Femur,-1.8231,6.9959,6.2925,-0.6714,-3.9062,-1.77,48.988,12.3816,-45.7635,0.3416,0.2507,-0.3106,0.8509
1777287875.7765386,L_Tibia,0.9905,6.5844,-6.8141,-0.1221,-6.1646,0.7935,134.8022,-5.7568,-31.1847,0.8933,0.2293,-0.1478,0.3572
1777287875.7765386,L_Foot,-0.8853,0.5264,9.9723,0.5493,-0.3662,-0.5493,3.5156,4.9493,-140.4108,-0.0302,0.0435,-0.9391,0.3394
1777287875.7765386,R_Femur,-1.8327,5.7805,7.9099,-0.2441,-2.9297,-0.4272,37.4799,10.1239,-45.0604,0.2636,0.1998,-0.3353,0.8822
1777287875.7765386,R_Tibia,-1.6413,9.0822,-3.1343,0.8545,0.3662,-1.77,108.468,7.4268,-34.4806,0.7621,0.2761,-0.1227,0.5726
1777287875.7765386,R_Foot,0.914,0.1101,9.8526,-0.9766,0.8545,-0.3052,0.791,-5.5206,-89.61,0.0388,-0.0293,-0.7041,0.7084
1777287875.8092864,Trunk,1.3255,3.3257,-8.7233,-8.4229,-2.6855,3.7842,157.3901,-10.069,-59.6118,0.8561,0.4706,-0.1717,0.1267
1777287875.8092864,L_Femur,-2.2682,7.3691,6.369,-0.3052,1.0986,-2.2583,48.9771,12.42,-45.78,0.3413,0.251,-0.3106,0.8509
1777287875.8092864,L_Tibia,0.9905,6.5844,-6.8141,-0.1221,-6.1646,0.7935,134.8022,-5.7568,-31.1847,0.8933,0.2293,-0.1478,0.3572
1777287875.8092864,L_Foot,-0.8853,0.5264,9.9723,0.5493,-0.3662,-0.5493,3.5156,4.9493,-140.4108,-0.0302,0.0435,-0.9391,0.3394
1777287875.8092864,R_Femur,-1.8327,5.7805,7.9099,-0.2441,-2.9297,-0.4272,37.4799,10.1239,-45.0604,0.2636,0.1998,-0.3353,0.8822
1777287875.8092864,R_Tibia,-1.6413,9.0822,-3.1343,0.8545,0.3662,-1.77,108.468,7.4268,-34.4806,0.7621,0.2761,-0.1227,0.5726
1777287875.8092864,R_Foot,0.914,0.1101,9.8526,-0.9766,0.8545,-0.3052,0.791,-5.5206,-89.61,0.0388,-0.0293,-0.7041,0.7084
1777287875.8102856,Trunk,1.3255,3.3257,-8.7233,-8.4229,-2.6855,3.7842,157.3901,-10.069,-59.6118,0.8561,0.4706,-0.1717,0.1267
1777287875.8102856,L_Femur,-2.2682,7.3691,6.369,-0.3052,1.0986,-2.2583,48.9771,12.42,-45.78,0.3413,0.251,-0.3106,0.8509
1777287875.8102856,L_Tibia,0.8087,6.7088,-6.948,0.1831,-4.3945,0.9155,134.8132,-5.7129,-31.2341,0.8932,0.2298,-0.1476,0.3572
1777287875.8102856,L_Foot,-0.8853,0.5264,9.9723,0.5493,-0.3662,-0.5493,3.5156,4.9493,-140.4108,-0.0302,0.0435,-0.9391,0.3394
1777287875.8102856,R_Femur,-1.8327,5.7805,7.9099,-0.2441,-2.9297,-0.4272,37.4799,10.1239,-45.0604,0.2636,0.1998,-0.3353,0.8822
1777287875.8102856,R_Tibia,-1.6413,9.0822,-3.1343,0.8545,0.3662,-1.77,108.468,7.4268,-34.4806,0.7621,0.2761,-0.1227,0.5726
1777287875.8102856,R_Foot,0.914,0.1101,9.8526,-0.9766,0.8545,-0.3052,0.791,-5.5206,-89.61,0.0388,-0.0293,-0.7041,0.7084
1777287875.8102856,Trunk,1.3255,3.3257,-8.7233,-8.4229,-2.6855,3.7842,157.3901,-10.069,-59.6118,0.8561,0.4706,-0.1717,0.1267
1777287875.8102856,L_Femur,-2.2682,7.3691,6.369,-0.3052,1.0986,-2.2583,48.9771,12.42,-45.78,0.3413,0.251,-0.3106,0.8509
1777287875.8102856,L_Tibia,0.8087,6.7088,-6.948,0.1831,-4.3945,0.9155,134.8132,-5.7129,-31.2341,0.8932,0.2298,-0.1476,0.3572
1777287875.8102856,L_Foot,-0.89,0.5742,10.0153,0.3662,-0.6714,-0.3052,3.5321,4.9438,-140.4163,-0.0301,0.0436,-0.9392,0.3394
1777287875.8102856,R_Femur,-1.8327,5.7805,7.9099,-0.2441,-2.9297,-0.4272,37.4799,10.1239,-45.0604,0.2636,0.1998,-0.3353,0.8822
1777287875.8102856,R_Tibia,-1.6413,9.0822,-3.1343,0.8545,0.3662,-1.77,108.468,7.4268,-34.4806,0.7621,0.2761,-0.1227,0.5726
1777287875.8102856,R_Foot,0.914,0.1101,9.8526,-0.9766,0.8545,-0.3052,0.791,-5.5206,-89.61,0.0388,-0.0293,-0.7041,0.7084
1777287875.8102856,Trunk,1.3255,3.3257,-8.7233,-8.4229,-2.6855,3.7842,157.3901,-10.069,-59.6118,0.8561,0.4706,-0.1717,0.1267
1777287875.8102856,L_Femur,-2.2682,7.3691,6.369,-0.3052,1.0986,-2.2583,48.9771,12.42,-45.78,0.3413,0.251,-0.3106,0.8509
1777287875.8102856,L_Tibia,0.8087,6.7088,-6.948,0.1831,-4.3945,0.9155,134.8132,-5.7129,-31.2341,0.8932,0.2298,-0.1476,0.3572
1777287875.8102856,L_Foot,-0.89,0.5742,10.0153,0.3662,-0.6714,-0.3052,3.5321,4.9438,-140.4163,-0.0301,0.0436,-0.9392,0.3394
1777287875.8102856,R_Femur,-1.7944,5.8666,7.9338,0.4272,-3.1738,-1.5259,37.4744,10.1019,-45.0879,0.2636,0.1997,-0.3355,0.8821
1777287875.8102856,R_Tibia,-1.6413,9.0822,-3.1343,0.8545,0.3662,-1.77,108.468,7.4268,-34.4806,0.7621,0.2761,-0.1227,0.5726
1777287875.8102856,R_Foot,0.914,0.1101,9.8526,-0.9766,0.8545,-0.3052,0.791,-5.5206,-89.61,0.0388,-0.0293,-0.7041,0.7084
1777287875.8102856,Trunk,1.3255,3.3257,-8.7233,-8.4229,-2.6855,3.7842,157.3901,-10.069,-59.6118,0.8561,0.4706,-0.1717,0.1267
1777287875.8102856,L_Femur,-2.2682,7.3691,6.369,-0.3052,1.0986,-2.2583,48.9771,12.42,-45.78,0.3413,0.251,-0.3106,0.8509
1777287875.8102856,L_Tibia,0.8087,6.7088,-6.948,0.1831,-4.3945,0.9155,134.8132,-5.7129,-31.2341,0.8932,0.2298,-0.1476,0.3572
1777287875.8102856,L_Foot,-0.89,0.5742,10.0153,0.3662,-0.6714,-0.3052,3.5321,4.9438,-140.4163,-0.0301,0.0436,-0.9392,0.3394
1777287875.8102856,R_Femur,-1.7944,5.8666,7.9338,0.4272,-3.1738,-1.5259,37.4744,10.1019,-45.0879,0.2636,0.1997,-0.3355,0.8821
1777287875.8102856,R_Tibia,-1.6413,9.0822,-3.1343,0.8545,0.3662,-1.77,108.468,7.4268,-34.4806,0.7621,0.2761,-0.1227,0.5726
1777287875.8102856,R_Foot,0.9379,0.0526,9.9436,0.8545,0.1831,-0.3662,0.791,-5.5206,-89.61,0.0388,-0.0293,-0.7041,0.7084
1777287875.8102856,Trunk,1.8854,3.4692,-8.8573,-10.437,-1.5259,3.9062,157.0715,-10.047,-59.7437,0.8552,0.4712,-0.173,0.1289
1777287875.8102856,L_Femur,-2.2682,7.3691,6.369,-0.3052,1.0986,-2.2583,48.9771,12.42,-45.78,0.3413,0.251,-0.3106,0.8509
1777287875.8102856,L_Tibia,0.8087,6.7088,-6.948,0.1831,-4.3945,0.9155,134.8132,-5.7129,-31.2341,0.8932,0.2298,-0.1476,0.3572
1777287875.8102856,L_Foot,-0.89,0.5742,10.0153,0.3662,-0.6714,-0.3052,3.5321,4.9438,-140.4163,-0.0301,0.0436,-0.9392,0.3394
1777287875.8102856,R_Femur,-1.7944,5.8666,7.9338,0.4272,-3.1738,-1.5259,37.4744,10.1019,-45.0879,0.2636,0.1997,-0.3355,0.8821
1777287875.8102856,R_Tibia,-1.6413,9.0822,-3.1343,0.8545,0.3662,-1.77,108.468,7.4268,-34.4806,0.7621,0.2761,-0.1227,0.5726
1777287875.8102856,R_Foot,0.9379,0.0526,9.9436,0.8545,0.1831,-0.3662,0.791,-5.5206,-89.61,0.0388,-0.0293,-0.7041,0.7084
1777287875.8102856,Trunk,1.8854,3.4692,-8.8573,-10.437,-1.5259,3.9062,157.0715,-10.047,-59.7437,0.8552,0.4712,-0.173,0.1289
1777287875.8102856,L_Femur,-2.5409,7.3021,6.4743,1.0986,0.3052,-3.0518,48.988,12.464,-45.7965,0.3412,0.2514,-0.3105,0.8509
1777287875.8102856,L_Tibia,0.8087,6.7088,-6.948,0.1831,-4.3945,0.9155,134.8132,-5.7129,-31.2341,0.8932,0.2298,-0.1476,0.3572
1777287875.8102856,L_Foot,-0.89,0.5742,10.0153,0.3662,-0.6714,-0.3052,3.5321,4.9438,-140.4163,-0.0301,0.0436,-0.9392,0.3394
1777287875.8102856,R_Femur,-1.7944,5.8666,7.9338,0.4272,-3.1738,-1.5259,37.4744,10.1019,-45.0879,0.2636,0.1997,-0.3355,0.8821
1777287875.8102856,R_Tibia,-1.6413,9.0822,-3.1343,0.8545,0.3662,-1.77,108.468,7.4268,-34.4806,0.7621,0.2761,-0.1227,0.5726
1777287875.8102856,R_Foot,0.9379,0.0526,9.9436,0.8545,0.1831,-0.3662,0.791,-5.5206,-89.61,0.0388,-0.0293,-0.7041,0.7084
1777287875.8117926,Trunk,1.8854,3.4692,-8.8573,-10.437,-1.5259,3.9062,157.0715,-10.047,-59.7437,0.8552,0.4712,-0.173,0.1289
1777287875.8117926,L_Femur,-2.5409,7.3021,6.4743,1.0986,0.3052,-3.0518,48.988,12.464,-45.7965,0.3412,0.2514,-0.3105,0.8509
1777287875.8117926,L_Tibia,0.6795,6.838,-7.0438,0.4272,-3.9062,2.0752,134.8352,-5.6909,-31.2891,0.8932,0.2303,-0.1476,0.357
1777287875.8117926,L_Foot,-0.89,0.5742,10.0153,0.3662,-0.6714,-0.3052,3.5321,4.9438,-140.4163,-0.0301,0.0436,-0.9392,0.3394
1777287875.8117926,R_Femur,-1.7944,5.8666,7.9338,0.4272,-3.1738,-1.5259,37.4744,10.1019,-45.0879,0.2636,0.1997,-0.3355,0.8821
1777287875.8117926,R_Tibia,-1.6413,9.0822,-3.1343,0.8545,0.3662,-1.77,108.468,7.4268,-34.4806,0.7621,0.2761,-0.1227,0.5726
1777287875.8117926,R_Foot,0.9379,0.0526,9.9436,0.8545,0.1831,-0.3662,0.791,-5.5206,-89.61,0.0388,-0.0293,-0.7041,0.7084
1777287875.8123157,Trunk,1.8854,3.4692,-8.8573,-10.437,-1.5259,3.9062,157.0715,-10.047,-59.7437,0.8552,0.4712,-0.173,0.1289
1777287875.8123157,L_Femur,-2.5409,7.3021,6.4743,1.0986,0.3052,-3.0518,48.988,12.464,-45.7965,0.3412,0.2514,-0.3105,0.8509
1777287875.8123157,L_Tibia,0.6795,6.838,-7.0438,0.4272,-3.9062,2.0752,134.8352,-5.6909,-31.2891,0.8932,0.2303,-0.1476,0.357
1777287875.8123157,L_Foot,-0.8661,0.5455,10.0058,0.5493,-0.6104,-0.3052,3.5541,4.9384,-140.4327,-0.03,0.0437,-0.9392,0.3392
1777287875.8123157,R_Femur,-1.7944,5.8666,7.9338,0.4272,-3.1738,-1.5259,37.4744,10.1019,-45.0879,0.2636,0.1997,-0.3355,0.8821
1777287875.8123157,R_Tibia,-1.6413,9.0822,-3.1343,0.8545,0.3662,-1.77,108.468,7.4268,-34.4806,0.7621,0.2761,-0.1227,0.5726
1777287875.8123157,R_Foot,0.9379,0.0526,9.9436,0.8545,0.1831,-0.3662,0.791,-5.5206,-89.61,0.0388,-0.0293,-0.7041,0.7084
1777287875.8123157,Trunk,1.8854,3.4692,-8.8573,-10.437,-1.5259,3.9062,157.0715,-10.047,-59.7437,0.8552,0.4712,-0.173,0.1289
1777287875.8123157,L_Femur,-2.5409,7.3021,6.4743,1.0986,0.3052,-3.0518,48.988,12.464,-45.7965,0.3412,0.2514,-0.3105,0.8509
1777287875.8123157,L_Tibia,0.6795,6.838,-7.0438,0.4272,-3.9062,2.0752,134.8352,-5.6909,-31.2891,0.8932,0.2303,-0.1476,0.357
1777287875.8123157,L_Foot,-0.8661,0.5455,10.0058,0.5493,-0.6104,-0.3052,3.5541,4.9384,-140.4327,-0.03,0.0437,-0.9392,0.3392
1777287875.8123157,R_Femur,-1.9188,5.9814,7.8046,0.061,-2.3193,-2.1973,37.4579,10.0964,-45.1263,0.2634,0.1997,-0.3359,0.882
1777287875.8123157,R_Tibia,-1.6413,9.0822,-3.1343,0.8545,0.3662,-1.77,108.468,7.4268,-34.4806,0.7621,0.2761,-0.1227,0.5726
1777287875.8123157,R_Foot,0.9379,0.0526,9.9436,0.8545,0.1831,-0.3662,0.791,-5.5206,-89.61,0.0388,-0.0293,-0.7041,0.7084
1777287875.8123157,Trunk,1.8854,3.4692,-8.8573,-10.437,-1.5259,3.9062,157.0715,-10.047,-59.7437,0.8552,0.4712,-0.173,0.1289
1777287875.8123157,L_Femur,-2.5409,7.3021,6.4743,1.0986,0.3052,-3.0518,48.988,12.464,-45.7965,0.3412,0.2514,-0.3105,0.8509
1777287875.8123157,L_Tibia,0.6795,6.838,-7.0438,0.4272,-3.9062,2.0752,134.8352,-5.6909,-31.2891,0.8932,0.2303,-0.1476,0.357
1777287875.8123157,L_Foot,-0.8661,0.5455,10.0058,0.5493,-0.6104,-0.3052,3.5541,4.9384,-140.4327,-0.03,0.0437,-0.9392,0.3392
1777287875.8123157,R_Femur,-1.9188,5.9814,7.8046,0.061,-2.3193,-2.1973,37.4579,10.0964,-45.1263,0.2634,0.1997,-0.3359,0.882
1777287875.8123157,R_Tibia,-1.536,9.221,-3.2348,0.3662,1.5259,-0.061,108.4735,7.4432,-34.4257,0.7622,0.2759,-0.1223,0.5727
1777287875.8123157,R_Foot,0.9379,0.0526,9.9436,0.8545,0.1831,-0.3662,0.791,-5.5206,-89.61,0.0388,-0.0293,-0.7041,0.7084
1777287875.8123157,Trunk,1.8854,3.4692,-8.8573,-10.437,-1.5259,3.9062,157.0715,-10.047,-59.7437,0.8552,0.4712,-0.173,0.1289
1777287875.8123157,L_Femur,-2.694,7.1586,6.4935,1.2817,-0.3662,-3.0518,48.9935,12.4969,-45.824,0.3411,0.2517,-0.3106,0.8508
1777287875.8123157,L_Tibia,0.6795,6.838,-7.0438,0.4272,-3.9062,2.0752,134.8352,-5.6909,-31.2891,0.8932,0.2303,-0.1476,0.357
1777287875.8123157,L_Foot,-0.8661,0.5455,10.0058,0.5493,-0.6104,-0.3052,3.5541,4.9384,-140.4327,-0.03,0.0437,-0.9392,0.3392
1777287875.8123157,R_Femur,-1.9188,5.9814,7.8046,0.061,-2.3193,-2.1973,37.4579,10.0964,-45.1263,0.2634,0.1997,-0.3359,0.882
1777287875.8123157,R_Tibia,-1.536,9.221,-3.2348,0.3662,1.5259,-0.061,108.4735,7.4432,-34.4257,0.7622,0.2759,-0.1223,0.5727
1777287875.8123157,R_Foot,0.9379,0.0526,9.9436,0.8545,0.1831,-0.3662,0.791,-5.5206,-89.61,0.0388,-0.0293,-0.7041,0.7084
1777287875.8133233,Trunk,1.8854,3.4692,-8.8573,-10.437,-1.5259,3.9062,157.0715,-10.047,-59.7437,0.8552,0.4712,-0.173,0.1289
1777287875.8133233,L_Femur,-2.694,7.1586,6.4935,1.2817,-0.3662,-3.0518,48.9935,12.4969,-45.824,0.3411,0.2517,-0.3106,0.8508
1777287875.8133233,L_Tibia,0.5886,6.8954,-6.948,0.2441,-6.1646,3.8452,134.8517,-5.658,-31.4044,0.893,0.2314,-0.1476,0.3568
1777287875.8133233,L_Foot,-0.8661,0.5455,10.0058,0.5493,-0.6104,-0.3052,3.5541,4.9384,-140.4327,-0.03,0.0437,-0.9392,0.3392
1777287875.8133233,R_Femur,-1.9188,5.9814,7.8046,0.061,-2.3193,-2.1973,37.4579,10.0964,-45.1263,0.2634,0.1997,-0.3359,0.882
1777287875.8133233,R_Tibia,-1.536,9.221,-3.2348,0.3662,1.5259,-0.061,108.4735,7.4432,-34.4257,0.7622,0.2759,-0.1223,0.5727
1777287875.8133233,R_Foot,0.9379,0.0526,9.9436,0.8545,0.1831,-0.3662,0.791,-5.5206,-89.61,0.0388,-0.0293,-0.7041,0.7084
1777287875.8133233,Trunk,1.8854,3.4692,-8.8573,-10.437,-1.5259,3.9062,157.0715,-10.047,-59.7437,0.8552,0.4712,-0.173,0.1289
1777287875.8133233,L_Femur,-2.694,7.1586,6.4935,1.2817,-0.3662,-3.0518,48.9935,12.4969,-45.824,0.3411,0.2517,-0.3106,0.8508
1777287875.8133233,L_Tibia,0.5886,6.8954,-6.948,0.2441,-6.1646,3.8452,134.8517,-5.658,-31.4044,0.893,0.2314,-0.1476,0.3568
1777287875.8133233,L_Foot,-0.847,0.5216,9.9723,1.0986,-0.7935,-0.1831,3.576,4.9329,-140.4382,-0.0299,0.0439,-0.9392,0.3392
1777287875.8133233,R_Femur,-1.9188,5.9814,7.8046,0.061,-2.3193,-2.1973,37.4579,10.0964,-45.1263,0.2634,0.1997,-0.3359,0.882
1777287875.8133233,R_Tibia,-1.536,9.221,-3.2348,0.3662,1.5259,-0.061,108.4735,7.4432,-34.4257,0.7622,0.2759,-0.1223,0.5727
1777287875.8133233,R_Foot,0.9379,0.0526,9.9436,0.8545,0.1831,-0.3662,0.791,-5.5206,-89.61,0.0388,-0.0293,-0.7041,0.7084
1777287875.8133233,Trunk,1.8854,3.4692,-8.8573,-10.437,-1.5259,3.9062,157.0715,-10.047,-59.7437,0.8552,0.4712,-0.173,0.1289
1777287875.8133233,L_Femur,-2.694,7.1586,6.4935,1.2817,-0.3662,-3.0518,48.9935,12.4969,-45.824,0.3411,0.2517,-0.3106,0.8508
1777287875.8133233,L_Tibia,0.5886,6.8954,-6.948,0.2441,-6.1646,3.8452,134.8517,-5.658,-31.4044,0.893,0.2314,-0.1476,0.3568
1777287875.8133233,L_Foot,-0.847,0.5216,9.9723,1.0986,-0.7935,-0.1831,3.576,4.9329,-140.4382,-0.0299,0.0439,-0.9392,0.3392
1777287875.8133233,R_Femur,-1.8662,5.7805,7.6371,0.8545,-2.5635,-2.9297,37.4524,10.0909,-45.1868,0.2633,0.1998,-0.3364,0.8818
1777287875.8133233,R_Tibia,-1.536,9.221,-3.2348,0.3662,1.5259,-0.061,108.4735,7.4432,-34.4257,0.7622,0.2759,-0.1223,0.5727
1777287875.8133233,R_Foot,0.9379,0.0526,9.9436,0.8545,0.1831,-0.3662,0.791,-5.5206,-89.61,0.0388,-0.0293,-0.7041,0.7084
1777287875.8133233,Trunk,1.8854,3.4692,-8.8573,-10.437,-1.5259,3.9062,157.0715,-10.047,-59.7437,0.8552,0.4712,-0.173,0.1289
1777287875.8133233,L_Femur,-2.694,7.1586,6.4935,1.2817,-0.3662,-3.0518,48.9935,12.4969,-45.824,0.3411,0.2517,-0.3106,0.8508
1777287875.8133233,L_Tibia,0.5886,6.8954,-6.948,0.2441,-6.1646,3.8452,134.8517,-5.658,-31.4044,0.893,0.2314,-0.1476,0.3568
1777287875.8133233,L_Foot,-0.847,0.5216,9.9723,1.0986,-0.7935,-0.1831,3.576,4.9329,-140.4382,-0.0299,0.0439,-0.9392,0.3392
1777287875.8133233,R_Femur,-1.8662,5.7805,7.6371,0.8545,-2.5635,-2.9297,37.4524,10.0909,-45.1868,0.2633,0.1998,-0.3364,0.8818
1777287875.8133233,R_Tibia,-1.536,9.221,-3.2348,0.3662,1.5259,-0.061,108.4735,7.4432,-34.4257,0.7622,0.2759,-0.1223,0.5727
1777287875.8133233,R_Foot,0.9188,0.1914,10.0105,-0.7324,0.0,-0.1831,0.791,-5.5206,-89.61,0.0388,-0.0293,-0.7041,0.7084
1777287875.8894033,Trunk,1.359,3.5793,-8.7903,-11.2305,0.3052,4.0283,156.709,-10.1184,-59.8865,0.8543,0.4715,-0.1752,0.1311
1777287875.8894033,L_Femur,-2.694,7.1586,6.4935,1.2817,-0.3662,-3.0518,48.9935,12.4969,-45.824,0.3411,0.2517,-0.3106,0.8508
1777287875.8894033,L_Tibia,0.5886,6.8954,-6.948,0.2441,-6.1646,3.8452,134.8517,-5.658,-31.4044,0.893,0.2314,-0.1476,0.3568
1777287875.8894033,L_Foot,-0.847,0.5216,9.9723,1.0986,-0.7935,-0.1831,3.576,4.9329,-140.4382,-0.0299,0.0439,-0.9392,0.3392
1777287875.8894033,R_Femur,-1.8662,5.7805,7.6371,0.8545,-2.5635,-2.9297,37.4524,10.0909,-45.1868,0.2633,0.1998,-0.3364,0.8818
1777287875.8894033,R_Tibia,-1.536,9.221,-3.2348,0.3662,1.5259,-0.061,108.4735,7.4432,-34.4257,0.7622,0.2759,-0.1223,0.5727
1777287875.8894033,R_Foot,0.9188,0.1914,10.0105,-0.7324,0.0,-0.1831,0.791,-5.5206,-89.61,0.0388,-0.0293,-0.7041,0.7084
1777287875.8900876,Trunk,1.359,3.5793,-8.7903,-11.2305,0.3052,4.0283,156.709,-10.1184,-59.8865,0.8543,0.4715,-0.1752,0.1311
1777287875.8900876,L_Femur,-2.6988,6.9911,6.2303,0.0,-4.8218,-3.54,48.9771,12.5079,-45.9119,0.3407,0.252,-0.3112,0.8506
1777287875.8900876,L_Tibia,0.5886,6.8954,-6.948,0.2441,-6.1646,3.8452,134.8517,-5.658,-31.4044,0.893,0.2314,-0.1476,0.3568
1777287875.8900876,L_Foot,-0.847,0.5216,9.9723,1.0986,-0.7935,-0.1831,3.576,4.9329,-140.4382,-0.0299,0.0439,-0.9392,0.3392
1777287875.8900876,R_Femur,-1.8662,5.7805,7.6371,0.8545,-2.5635,-2.9297,37.4524,10.0909,-45.1868,0.2633,0.1998,-0.3364,0.8818
1777287875.8900876,R_Tibia,-1.536,9.221,-3.2348,0.3662,1.5259,-0.061,108.4735,7.4432,-34.4257,0.7622,0.2759,-0.1223,0.5727
1777287875.8900876,R_Foot,0.9188,0.1914,10.0105,-0.7324,0.0,-0.1831,0.791,-5.5206,-89.61,0.0388,-0.0293,-0.7041,0.7084
1777287875.8900876,Trunk,1.359,3.5793,-8.7903,-11.2305,0.3052,4.0283,156.709,-10.1184,-59.8865,0.8543,0.4715,-0.1752,0.1311
1777287875.8900876,L_Femur,-2.6988,6.9911,6.2303,0.0,-4.8218,-3.54,48.9771,12.5079,-45.9119,0.3407,0.252,-0.3112,0.8506
1777287875.8900876,L_Tibia,0.7034,6.7566,-6.7614,1.77,-6.1035,4.7607,134.8901,-5.636,-31.5143,0.8929,0.2323,-0.1477,0.3564
1777287875.8900876,L_Foot,-0.847,0.5216,9.9723,1.0986,-0.7935,-0.1831,3.576,4.9329,-140.4382,-0.0299,0.0439,-0.9392,0.3392
1777287875.8900876,R_Femur,-1.8662,5.7805,7.6371,0.8545,-2.5635,-2.9297,37.4524,10.0909,-45.1868,0.2633,0.1998,-0.3364,0.8818
1777287875.8900876,R_Tibia,-1.536,9.221,-3.2348,0.3662,1.5259,-0.061,108.4735,7.4432,-34.4257,0.7622,0.2759,-0.1223,0.5727
1777287875.8900876,R_Foot,0.9188,0.1914,10.0105,-0.7324,0.0,-0.1831,0.791,-5.5206,-89.61,0.0388,-0.0293,-0.7041,0.7084
1777287875.8900876,Trunk,1.359,3.5793,-8.7903,-11.2305,0.3052,4.0283,156.709,-10.1184,-59.8865,0.8543,0.4715,-0.1752,0.1311
1777287875.8900876,L_Femur,-2.6988,6.9911,6.2303,0.0,-4.8218,-3.54,48.9771,12.5079,-45.9119,0.3407,0.252,-0.3112,0.8506
1777287875.8900876,L_Tibia,0.7034,6.7566,-6.7614,1.77,-6.1035,4.7607,134.8901,-5.636,-31.5143,0.8929,0.2323,-0.1477,0.3564
1777287875.8900876,L_Foot,-0.8135,0.5551,9.9818,0.7324,-0.6714,-0.1221,3.5651,4.9274,-140.4437,-0.0299,0.0438,-0.9392,0.3392
1777287875.8900876,R_Femur,-1.8662,5.7805,7.6371,0.8545,-2.5635,-2.9297,37.4524,10.0909,-45.1868,0.2633,0.1998,-0.3364,0.8818
1777287875.8900876,R_Tibia,-1.536,9.221,-3.2348,0.3662,1.5259,-0.061,108.4735,7.4432,-34.4257,0.7622,0.2759,-0.1223,0.5727
1777287875.8900876,R_Foot,0.9188,0.1914,10.0105,-0.7324,0.0,-0.1831,0.791,-5.5206,-89.61,0.0388,-0.0293,-0.7041,0.7084
1777287875.8900876,Trunk,1.359,3.5793,-8.7903,-11.2305,0.3052,4.0283,156.709,-10.1184,-59.8865,0.8543,0.4715,-0.1752,0.1311
1777287875.8900876,L_Femur,-2.6988,6.9911,6.2303,0.0,-4.8218,-3.54,48.9771,12.5079,-45.9119,0.3407,0.252,-0.3112,0.8506
1777287875.8900876,L_Tibia,0.7034,6.7566,-6.7614,1.77,-6.1035,4.7607,134.8901,-5.636,-31.5143,0.8929,0.2323,-0.1477,0.3564
1777287875.8900876,L_Foot,-0.8135,0.5551,9.9818,0.7324,-0.6714,-0.1221,3.5651,4.9274,-140.4437,-0.0299,0.0438,-0.9392,0.3392
1777287875.8900876,R_Femur,-1.8949,5.7996,7.6228,-0.6104,-2.0752,-3.7231,37.4359,10.1019,-45.2362,0.263,0.1999,-0.3368,0.8817
1777287875.8900876,R_Tibia,-1.536,9.221,-3.2348,0.3662,1.5259,-0.061,108.4735,7.4432,-34.4257,0.7622,0.2759,-0.1223,0.5727
1777287875.8900876,R_Foot,0.9188,0.1914,10.0105,-0.7324,0.0,-0.1831,0.791,-5.5206,-89.61,0.0388,-0.0293,-0.7041,0.7084
1777287875.8900876,Trunk,1.359,3.5793,-8.7903,-11.2305,0.3052,4.0283,156.709,-10.1184,-59.8865,0.8543,0.4715,-0.1752,0.1311
1777287875.8900876,L_Femur,-2.6988,6.9911,6.2303,0.0,-4.8218,-3.54,48.9771,12.5079,-45.9119,0.3407,0.252,-0.3112,0.8506
1777287875.8900876,L_Tibia,0.7034,6.7566,-6.7614,1.77,-6.1035,4.7607,134.8901,-5.636,-31.5143,0.8929,0.2323,-0.1477,0.3564
1777287875.8900876,L_Foot,-0.8135,0.5551,9.9818,0.7324,-0.6714,-0.1221,3.5651,4.9274,-140.4437,-0.0299,0.0438,-0.9392,0.3392
1777287875.8900876,R_Femur,-1.8949,5.7996,7.6228,-0.6104,-2.0752,-3.7231,37.4359,10.1019,-45.2362,0.263,0.1999,-0.3368,0.8817
1777287875.8900876,R_Tibia,-1.6509,8.9339,-3.23,-0.9155,0.0,0.6104,108.4735,7.4323,-34.3268,0.7625,0.2751,-0.1219,0.5728
1777287875.8900876,R_Foot,0.9188,0.1914,10.0105,-0.7324,0.0,-0.1831,0.791,-5.5206,-89.61,0.0388,-0.0293,-0.7041,0.7084
1777287875.8915937,Trunk,1.0958,3.4501,-8.7186,-12.3291,-0.061,3.1128,156.4618,-10.1514,-59.9579,0.8537,0.4716,-0.1765,0.1327
1777287875.8915937,L_Femur,-2.6988,6.9911,6.2303,0.0,-4.8218,-3.54,48.9771,12.5079,-45.9119,0.3407,0.252,-0.3112,0.8506
1777287875.8915937,L_Tibia,0.7034,6.7566,-6.7614,1.77,-6.1035,4.7607,134.8901,-5.636,-31.5143,0.8929,0.2323,-0.1477,0.3564
1777287875.8915937,L_Foot,-0.8135,0.5551,9.9818,0.7324,-0.6714,-0.1221,3.5651,4.9274,-140.4437,-0.0299,0.0438,-0.9392,0.3392
1777287875.8915937,R_Femur,-1.8949,5.7996,7.6228,-0.6104,-2.0752,-3.7231,37.4359,10.1019,-45.2362,0.263,0.1999,-0.3368,0.8817
1777287875.8915937,R_Tibia,-1.6509,8.9339,-3.23,-0.9155,0.0,0.6104,108.4735,7.4323,-34.3268,0.7625,0.2751,-0.1219,0.5728
1777287875.8915937,R_Foot,0.9188,0.1914,10.0105,-0.7324,0.0,-0.1831,0.791,-5.5206,-89.61,0.0388,-0.0293,-0.7041,0.7084
1777287875.8915937,Trunk,1.0958,3.4501,-8.7186,-12.3291,-0.061,3.1128,156.4618,-10.1514,-59.9579,0.8537,0.4716,-0.1765,0.1327
1777287875.8915937,L_Femur,-2.4213,6.9146,6.0771,-0.8545,-6.2256,-3.9062,48.9441,12.4969,-46.0162,0.3403,0.2521,-0.3121,0.8504
1777287875.8915937,L_Tibia,0.7034,6.7566,-6.7614,1.77,-6.1035,4.7607,134.8901,-5.636,-31.5143,0.8929,0.2323,-0.1477,0.3564
1777287875.8915937,L_Foot,-0.8135,0.5551,9.9818,0.7324,-0.6714,-0.1221,3.5651,4.9274,-140.4437,-0.0299,0.0438,-0.9392,0.3392
1777287875.8915937,R_Femur,-1.8949,5.7996,7.6228,-0.6104,-2.0752,-3.7231,37.4359,10.1019,-45.2362,0.263,0.1999,-0.3368,0.8817
1777287875.8915937,R_Tibia,-1.6509,8.9339,-3.23,-0.9155,0.0,0.6104,108.4735,7.4323,-34.3268,0.7625,0.2751,-0.1219,0.5728
1777287875.8915937,R_Foot,0.9188,0.1914,10.0105,-0.7324,0.0,-0.1831,0.791,-5.5206,-89.61,0.0388,-0.0293,-0.7041,0.7084
1777287875.8915937,Trunk,1.0958,3.4501,-8.7186,-12.3291,-0.061,3.1128,156.4618,-10.1514,-59.9579,0.8537,0.4716,-0.1765,0.1327
1777287875.8915937,L_Femur,-2.4213,6.9146,6.0771,-0.8545,-6.2256,-3.9062,48.9441,12.4969,-46.0162,0.3403,0.2521,-0.3121,0.8504
1777287875.8915937,L_Tibia,0.8039,6.5461,-6.704,1.5259,-4.4556,4.9438,134.9451,-5.6305,-31.6406,0.8928,0.2334,-0.148,0.3558
1777287875.8915937,L_Foot,-0.8135,0.5551,9.9818,0.7324,-0.6714,-0.1221,3.5651,4.9274,-140.4437,-0.0299,0.0438,-0.9392,0.3392
1777287875.8915937,R_Femur,-1.8949,5.7996,7.6228,-0.6104,-2.0752,-3.7231,37.4359,10.1019,-45.2362,0.263,0.1999,-0.3368,0.8817
1777287875.8915937,R_Tibia,-1.6509,8.9339,-3.23,-0.9155,0.0,0.6104,108.4735,7.4323,-34.3268,0.7625,0.2751,-0.1219,0.5728
1777287875.8915937,R_Foot,0.9188,0.1914,10.0105,-0.7324,0.0,-0.1831,0.791,-5.5206,-89.61,0.0388,-0.0293,-0.7041,0.7084
1777287875.8915937,Trunk,1.0958,3.4501,-8.7186,-12.3291,-0.061,3.1128,156.4618,-10.1514,-59.9579,0.8537,0.4716,-0.1765,0.1327
1777287875.8915937,L_Femur,-2.4213,6.9146,6.0771,-0.8545,-6.2256,-3.9062,48.9441,12.4969,-46.0162,0.3403,0.2521,-0.3121,0.8504
1777287875.8915937,L_Tibia,0.8039,6.5461,-6.704,1.5259,-4.4556,4.9438,134.9451,-5.6305,-31.6406,0.8928,0.2334,-0.148,0.3558
1777287875.8915937,L_Foot,-0.8613,0.5646,9.9244,0.6714,-0.7935,0.3662,3.5651,4.9274,-140.4437,-0.0299,0.0438,-0.9392,0.3392
1777287875.8915937,R_Femur,-1.8949,5.7996,7.6228,-0.6104,-2.0752,-3.7231,37.4359,10.1019,-45.2362,0.263,0.1999,-0.3368,0.8817
1777287875.8915937,R_Tibia,-1.6509,8.9339,-3.23,-0.9155,0.0,0.6104,108.4735,7.4323,-34.3268,0.7625,0.2751,-0.1219,0.5728
1777287875.8915937,R_Foot,0.9188,0.1914,10.0105,-0.7324,0.0,-0.1831,0.791,-5.5206,-89.61,0.0388,-0.0293,-0.7041,0.7084
1777287875.8926022,Trunk,1.0958,3.4501,-8.7186,-12.3291,-0.061,3.1128,156.4618,-10.1514,-59.9579,0.8537,0.4716,-0.1765,0.1327
1777287875.8926022,L_Femur,-2.4213,6.9146,6.0771,-0.8545,-6.2256,-3.9062,48.9441,12.4969,-46.0162,0.3403,0.2521,-0.3121,0.8504
1777287875.8926022,L_Tibia,0.8039,6.5461,-6.704,1.5259,-4.4556,4.9438,134.9451,-5.6305,-31.6406,0.8928,0.2334,-0.148,0.3558
1777287875.8926022,L_Foot,-0.8613,0.5646,9.9244,0.6714,-0.7935,0.3662,3.5651,4.9274,-140.4437,-0.0299,0.0438,-0.9392,0.3392
1777287875.8926022,R_Femur,-2.0385,5.8762,7.7711,-0.8545,-1.0986,-3.8452,37.403,10.1184,-45.2802,0.2626,0.2,-0.3371,0.8817
1777287875.8926022,R_Tibia,-1.6509,8.9339,-3.23,-0.9155,0.0,0.6104,108.4735,7.4323,-34.3268,0.7625,0.2751,-0.1219,0.5728
1777287875.8926022,R_Foot,0.9188,0.1914,10.0105,-0.7324,0.0,-0.1831,0.791,-5.5206,-89.61,0.0388,-0.0293,-0.7041,0.7084
1777287875.8926022,Trunk,1.0958,3.4501,-8.7186,-12.3291,-0.061,3.1128,156.4618,-10.1514,-59.9579,0.8537,0.4716,-0.1765,0.1327
1777287875.8926022,L_Femur,-2.4213,6.9146,6.0771,-0.8545,-6.2256,-3.9062,48.9441,12.4969,-46.0162,0.3403,0.2521,-0.3121,0.8504
1777287875.8926022,L_Tibia,0.8039,6.5461,-6.704,1.5259,-4.4556,4.9438,134.9451,-5.6305,-31.6406,0.8928,0.2334,-0.148,0.3558
1777287875.8926022,L_Foot,-0.8613,0.5646,9.9244,0.6714,-0.7935,0.3662,3.5651,4.9274,-140.4437,-0.0299,0.0438,-0.9392,0.3392
1777287875.8926022,R_Femur,-2.0385,5.8762,7.7711,-0.8545,-1.0986,-3.8452,37.403,10.1184,-45.2802,0.2626,0.2,-0.3371,0.8817
1777287875.8926022,R_Tibia,-1.6509,8.9339,-3.23,-0.9155,0.0,0.6104,108.4735,7.4323,-34.3268,0.7625,0.2751,-0.1219,0.5728
1777287875.8926022,R_Foot,0.9618,0.1101,9.934,-0.1221,-0.1831,-0.061,0.791,-5.5151,-89.61,0.0388,-0.0293,-0.7041,0.7084
1777287875.9790678,Trunk,1.469,3.3783,-8.7233,-12.6343,-1.8921,1.709,156.2695,-10.1459,-59.9963,0.8533,0.4716,-0.1773,0.1341
1777287875.9790678,L_Femur,-2.4213,6.9146,6.0771,-0.8545,-6.2256,-3.9062,48.9441,12.4969,-46.0162,0.3403,0.2521,-0.3121,0.8504
1777287875.9790678,L_Tibia,0.8039,6.5461,-6.704,1.5259,-4.4556,4.9438,134.9451,-5.6305,-31.6406,0.8928,0.2334,-0.148,0.3558
1777287875.9790678,L_Foot,-0.8613,0.5646,9.9244,0.6714,-0.7935,0.3662,3.5651,4.9274,-140.4437,-0.0299,0.0438,-0.9392,0.3392
1777287875.9790678,R_Femur,-2.0385,5.8762,7.7711,-0.8545,-1.0986,-3.8452,37.403,10.1184,-45.2802,0.2626,0.2,-0.3371,0.8817
1777287875.9790678,R_Tibia,-1.6509,8.9339,-3.23,-0.9155,0.0,0.6104,108.4735,7.4323,-34.3268,0.7625,0.2751,-0.1219,0.5728
1777287875.9790678,R_Foot,0.9618,0.1101,9.934,-0.1221,-0.1831,-0.061,0.791,-5.5151,-89.61,0.0388,-0.0293,-0.7041,0.7084
1777287875.9790678,Trunk,1.469,3.3783,-8.7233,-12.6343,-1.8921,1.709,156.2695,-10.1459,-59.9963,0.8533,0.4716,-0.1773,0.1341
1777287875.9790678,L_Femur,-2.1294,6.9959,6.2925,0.7324,-4.0894,-4.5776,48.9221,12.5024,-46.1096,0.3399,0.2524,-0.3129,0.8502
1777287875.9790678,L_Tibia,0.8039,6.5461,-6.704,1.5259,-4.4556,4.9438,134.9451,-5.6305,-31.6406,0.8928,0.2334,-0.148,0.3558
1777287875.9790678,L_Foot,-0.8613,0.5646,9.9244,0.6714,-0.7935,0.3662,3.5651,4.9274,-140.4437,-0.0299,0.0438,-0.9392,0.3392
1777287875.9790678,R_Femur,-2.0385,5.8762,7.7711,-0.8545,-1.0986,-3.8452,37.403,10.1184,-45.2802,0.2626,0.2,-0.3371,0.8817
1777287875.9790678,R_Tibia,-1.6509,8.9339,-3.23,-0.9155,0.0,0.6104,108.4735,7.4323,-34.3268,0.7625,0.2751,-0.1219,0.5728
1777287875.9790678,R_Foot,0.9618,0.1101,9.934,-0.1221,-0.1831,-0.061,0.791,-5.5151,-89.61,0.0388,-0.0293,-0.7041,0.7084
1777287875.9800682,Trunk,1.469,3.3783,-8.7233,-12.6343,-1.8921,1.709,156.2695,-10.1459,-59.9963,0.8533,0.4716,-0.1773,0.1341
1777287875.9800682,L_Femur,-2.1294,6.9959,6.2925,0.7324,-4.0894,-4.5776,48.9221,12.5024,-46.1096,0.3399,0.2524,-0.3129,0.8502
1777287875.9800682,L_Tibia,0.7417,6.3499,-6.9337,0.7935,-4.4556,4.1504,134.9725,-5.625,-31.7285,0.8927,0.2341,-0.1481,0.3555
1777287875.9800682,L_Foot,-0.8613,0.5646,9.9244,0.6714,-0.7935,0.3662,3.5651,4.9274,-140.4437,-0.0299,0.0438,-0.9392,0.3392
1777287875.9800682,R_Femur,-2.0385,5.8762,7.7711,-0.8545,-1.0986,-3.8452,37.403,10.1184,-45.2802,0.2626,0.2,-0.3371,0.8817
1777287875.9800682,R_Tibia,-1.6509,8.9339,-3.23,-0.9155,0.0,0.6104,108.4735,7.4323,-34.3268,0.7625,0.2751,-0.1219,0.5728
1777287875.9800682,R_Foot,0.9618,0.1101,9.934,-0.1221,-0.1831,-0.061,0.791,-5.5151,-89.61,0.0388,-0.0293,-0.7041,0.7084
1777287875.9800682,Trunk,1.469,3.3783,-8.7233,-12.6343,-1.8921,1.709,156.2695,-10.1459,-59.9963,0.8533,0.4716,-0.1773,0.1341
1777287875.9800682,L_Femur,-2.1294,6.9959,6.2925,0.7324,-4.0894,-4.5776,48.9221,12.5024,-46.1096,0.3399,0.2524,-0.3129,0.8502
1777287875.9800682,L_Tibia,0.7417,6.3499,-6.9337,0.7935,-4.4556,4.1504,134.9725,-5.625,-31.7285,0.8927,0.2341,-0.1481,0.3555
1777287875.9800682,L_Foot,-0.9283,0.6029,9.9196,0.5493,-1.1597,1.0376,3.5596,4.9274,-140.4437,-0.0299,0.0437,-0.9392,0.3392
1777287875.9800682,R_Femur,-2.0385,5.8762,7.7711,-0.8545,-1.0986,-3.8452,37.403,10.1184,-45.2802,0.2626,0.2,-0.3371,0.8817
1777287875.9800682,R_Tibia,-1.6509,8.9339,-3.23,-0.9155,0.0,0.6104,108.4735,7.4323,-34.3268,0.7625,0.2751,-0.1219,0.5728
1777287875.9800682,R_Foot,0.9618,0.1101,9.934,-0.1221,-0.1831,-0.061,0.791,-5.5151,-89.61,0.0388,-0.0293,-0.7041,0.7084
1777287875.9800682,Trunk,1.469,3.3783,-8.7233,-12.6343,-1.8921,1.709,156.2695,-10.1459,-59.9963,0.8533,0.4716,-0.1773,0.1341
1777287875.9800682,L_Femur,-2.1294,6.9959,6.2925,0.7324,-4.0894,-4.5776,48.9221,12.5024,-46.1096,0.3399,0.2524,-0.3129,0.8502
1777287875.9800682,L_Tibia,0.7417,6.3499,-6.9337,0.7935,-4.4556,4.1504,134.9725,-5.625,-31.7285,0.8927,0.2341,-0.1481,0.3555
1777287875.9800682,L_Foot,-0.9283,0.6029,9.9196,0.5493,-1.1597,1.0376,3.5596,4.9274,-140.4437,-0.0299,0.0437,-0.9392,0.3392
1777287875.9800682,R_Femur,-2.115,5.857,7.795,-0.6104,-3.418,-5.0049,37.3645,10.1349,-45.368,0.2621,0.2002,-0.3378,0.8815
1777287875.9800682,R_Tibia,-1.6509,8.9339,-3.23,-0.9155,0.0,0.6104,108.4735,7.4323,-34.3268,0.7625,0.2751,-0.1219,0.5728
1777287875.9800682,R_Foot,0.9618,0.1101,9.934,-0.1221,-0.1831,-0.061,0.791,-5.5151,-89.61,0.0388,-0.0293,-0.7041,0.7084
1777287875.9810677,Trunk,1.9811,3.4118,-8.7425,-12.0239,-1.2207,2.0142,156.0828,-10.1404,-60.0348,0.8529,0.4716,-0.1781,0.1355
1777287875.9810677,L_Femur,-2.1294,6.9959,6.2925,0.7324,-4.0894,-4.5776,48.9221,12.5024,-46.1096,0.3399,0.2524,-0.3129,0.8502
1777287875.9810677,L_Tibia,0.7417,6.3499,-6.9337,0.7935,-4.4556,4.1504,134.9725,-5.625,-31.7285,0.8927,0.2341,-0.1481,0.3555
1777287875.9810677,L_Foot,-0.9283,0.6029,9.9196,0.5493,-1.1597,1.0376,3.5596,4.9274,-140.4437,-0.0299,0.0437,-0.9392,0.3392
1777287875.9810677,R_Femur,-2.115,5.857,7.795,-0.6104,-3.418,-5.0049,37.3645,10.1349,-45.368,0.2621,0.2002,-0.3378,0.8815
1777287875.9810677,R_Tibia,-1.6509,8.9339,-3.23,-0.9155,0.0,0.6104,108.4735,7.4323,-34.3268,0.7625,0.2751,-0.1219,0.5728
1777287875.9810677,R_Foot,0.9618,0.1101,9.934,-0.1221,-0.1831,-0.061,0.791,-5.5151,-89.61,0.0388,-0.0293,-0.7041,0.7084
1777287875.9810677,Trunk,1.9811,3.4118,-8.7425,-12.0239,-1.2207,2.0142,156.0828,-10.1404,-60.0348,0.8529,0.4716,-0.1781,0.1355
1777287875.9810677,L_Femur,-1.7466,7.417,6.4552,1.0376,0.9155,-5.0659,48.9221,12.5684,-46.181,0.3395,0.2531,-0.3131,0.8501
1777287875.9810677,L_Tibia,0.7417,6.3499,-6.9337,0.7935,-4.4556,4.1504,134.9725,-5.625,-31.7285,0.8927,0.2341,-0.1481,0.3555
1777287875.9810677,L_Foot,-0.9283,0.6029,9.9196,0.5493,-1.1597,1.0376,3.5596,4.9274,-140.4437,-0.0299,0.0437,-0.9392,0.3392
1777287875.9810677,R_Femur,-2.115,5.857,7.795,-0.6104,-3.418,-5.0049,37.3645,10.1349,-45.368,0.2621,0.2002,-0.3378,0.8815
1777287875.9810677,R_Tibia,-1.6509,8.9339,-3.23,-0.9155,0.0,0.6104,108.4735,7.4323,-34.3268,0.7625,0.2751,-0.1219,0.5728
1777287875.9810677,R_Foot,0.9618,0.1101,9.934,-0.1221,-0.1831,-0.061,0.791,-5.5151,-89.61,0.0388,-0.0293,-0.7041,0.7084
1777287875.9810677,Trunk,1.9811,3.4118,-8.7425,-12.0239,-1.2207,2.0142,156.0828,-10.1404,-60.0348,0.8529,0.4716,-0.1781,0.1355
1777287875.9810677,L_Femur,-1.7466,7.417,6.4552,1.0376,0.9155,-5.0659,48.9221,12.5684,-46.181,0.3395,0.2531,-0.3131,0.8501
1777287875.9810677,L_Tibia,0.9475,6.57,-7.0103,0.9155,-3.2959,3.1738,134.9945,-5.6195,-31.7944,0.8926,0.2347,-0.1483,0.3552
1777287875.9810677,L_Foot,-0.9283,0.6029,9.9196,0.5493,-1.1597,1.0376,3.5596,4.9274,-140.4437,-0.0299,0.0437,-0.9392,0.3392
1777287875.9810677,R_Femur,-2.115,5.857,7.795,-0.6104,-3.418,-5.0049,37.3645,10.1349,-45.368,0.2621,0.2002,-0.3378,0.8815
1777287875.9810677,R_Tibia,-1.6509,8.9339,-3.23,-0.9155,0.0,0.6104,108.4735,7.4323,-34.3268,0.7625,0.2751,-0.1219,0.5728
1777287875.9810677,R_Foot,0.9618,0.1101,9.934,-0.1221,-0.1831,-0.061,0.791,-5.5151,-89.61,0.0388,-0.0293,-0.7041,0.7084
1777287875.9820669,Trunk,1.9811,3.4118,-8.7425,-12.0239,-1.2207,2.0142,156.0828,-10.1404,-60.0348,0.8529,0.4716,-0.1781,0.1355
1777287875.9820669,L_Femur,-1.7466,7.417,6.4552,1.0376,0.9155,-5.0659,48.9221,12.5684,-46.181,0.3395,0.2531,-0.3131,0.8501
1777287875.9820669,L_Tibia,0.9475,6.57,-7.0103,0.9155,-3.2959,3.1738,134.9945,-5.6195,-31.7944,0.8926,0.2347,-0.1483,0.3552
1777287875.9820669,L_Foot,-0.8948,0.6029,10.0105,0.0,-1.2207,1.2207,3.5596,4.9274,-140.4437,-0.0299,0.0437,-0.9392,0.3392
1777287875.9820669,R_Femur,-2.115,5.857,7.795,-0.6104,-3.418,-5.0049,37.3645,10.1349,-45.368,0.2621,0.2002,-0.3378,0.8815
1777287875.9820669,R_Tibia,-1.6509,8.9339,-3.23,-0.9155,0.0,0.6104,108.4735,7.4323,-34.3268,0.7625,0.2751,-0.1219,0.5728
1777287875.9820669,R_Foot,0.9618,0.1101,9.934,-0.1221,-0.1831,-0.061,0.791,-5.5151,-89.61,0.0388,-0.0293,-0.7041,0.7084
1777287875.9820669,Trunk,1.9811,3.4118,-8.7425,-12.0239,-1.2207,2.0142,156.0828,-10.1404,-60.0348,0.8529,0.4716,-0.1781,0.1355
1777287875.9820669,L_Femur,-1.7466,7.417,6.4552,1.0376,0.9155,-5.0659,48.9221,12.5684,-46.181,0.3395,0.2531,-0.3131,0.8501
1777287875.9820669,L_Tibia,0.9475,6.57,-7.0103,0.9155,-3.2959,3.1738,134.9945,-5.6195,-31.7944,0.8926,0.2347,-0.1483,0.3552
1777287875.9820669,L_Foot,-0.8948,0.6029,10.0105,0.0,-1.2207,1.2207,3.5596,4.9274,-140.4437,-0.0299,0.0437,-0.9392,0.3392
1777287875.9820669,R_Femur,-2.0193,5.7278,7.7759,-0.4883,-4.9438,-6.4087,37.3315,10.1349,-45.4724,0.2617,0.2004,-0.3387,0.8813
1777287875.9820669,R_Tibia,-1.6509,8.9339,-3.23,-0.9155,0.0,0.6104,108.4735,7.4323,-34.3268,0.7625,0.2751,-0.1219,0.5728
