Timestamp,Vicon_Frame_Num,Vicon_Recv_Timestamp,IMU_Recv_Timestamp,Planter_Recv_Timestamp,Vicon_Gap_Flag,Vicon_Gap_Size,IMU_Stale_ms,Planter_Stale_ms,IMU_Matched_Flag,Planter_Matched_Flag,Vicon_Root_X,Vicon_Root_Y,Vicon_Root_Z,Vicon_L_Femur_X,Vicon_L_Femur_Y,Vicon_L_Femur_Z,Vicon_L_Tibia_X,Vicon_L_Tibia_Y,Vicon_L_Tibia_Z,Vicon_L_Foot_X,Vicon_L_Foot_Y,Vicon_L_Foot_Z,Vicon_L_Toe_X,Vicon_L_Toe_Y,Vicon_L_Toe_Z,Vicon_R_Femur_X,Vicon_R_Femur_Y,Vicon_R_Femur_Z,Vicon_R_Tibia_X,Vicon_R_Tibia_Y,Vicon_R_Tibia_Z,Vicon_R_Foot_X,Vicon_R_Foot_Y,Vicon_R_Foot_Z,Vicon_R_Toe_X,Vicon_R_Toe_Y,Vicon_R_Toe_Z,Vicon_LASI_X,Vicon_LASI_Y,Vicon_LASI_Z,Vicon_RASI_X,Vicon_RASI_Y,Vicon_RASI_Z,Vicon_LPSI_X,Vicon_LPSI_Y,Vicon_LPSI_Z,Vicon_RPSI_X,Vicon_RPSI_Y,Vicon_RPSI_Z,Vicon_LTHI_X,Vicon_LTHI_Y,Vicon_LTHI_Z,Vicon_LKNE_X,Vicon_LKNE_Y,Vicon_LKNE_Z,Vicon_LTIB_X,Vicon_LTIB_Y,Vicon_LTIB_Z,Vicon_LANK_X,Vicon_LANK_Y,Vicon_LANK_Z,Vicon_LHEE_X,Vicon_LHEE_Y,Vicon_LHEE_Z,Vicon_LTOE_X,Vicon_LTOE_Y,Vicon_LTOE_Z,Vicon_RTHI_X,Vicon_RTHI_Y,Vicon_RTHI_Z,Vicon_RKNE_X,Vicon_RKNE_Y,Vicon_RKNE_Z,Vicon_RTIB_X,Vicon_RTIB_Y,Vicon_RTIB_Z,Vicon_RANK_X,Vicon_RANK_Y,Vicon_RANK_Z,Vicon_RHEE_X,Vicon_RHEE_Y,Vicon_RHEE_Z,Vicon_RTOE_X,Vicon_RTOE_Y,Vicon_RTOE_Z,IMU_Trunk_Acc_X,IMU_Trunk_Acc_Y,IMU_Trunk_Acc_Z,IMU_Trunk_Gyro_X,IMU_Trunk_Gyro_Y,IMU_Trunk_Gyro_Z,IMU_Trunk_Roll,IMU_Trunk_Pitch,IMU_Trunk_Yaw,IMU_Trunk_Quat_x,IMU_Trunk_Quat_y,IMU_Trunk_Quat_z,IMU_Trunk_Quat_w,IMU_L_Femur_Acc_X,IMU_L_Femur_Acc_Y,IMU_L_Femur_Acc_Z,IMU_L_Femur_Gyro_X,IMU_L_Femur_Gyro_Y,IMU_L_Femur_Gyro_Z,IMU_L_Femur_Roll,IMU_L_Femur_Pitch,IMU_L_Femur_Yaw,IMU_L_Femur_Quat_x,IMU_L_Femur_Quat_y,IMU_L_Femur_Quat_z,IMU_L_Femur_Quat_w,IMU_L_Tibia_Acc_X,IMU_L_Tibia_Acc_Y,IMU_L_Tibia_Acc_Z,IMU_L_Tibia_Gyro_X,IMU_L_Tibia_Gyro_Y,IMU_L_Tibia_Gyro_Z,IMU_L_Tibia_Roll,IMU_L_Tibia_Pitch,IMU_L_Tibia_Yaw,IMU_L_Tibia_Quat_x,IMU_L_Tibia_Quat_y,IMU_L_Tibia_Quat_z,IMU_L_Tibia_Quat_w,IMU_L_Foot_Acc_X,IMU_L_Foot_Acc_Y,IMU_L_Foot_Acc_Z,IMU_L_Foot_Gyro_X,IMU_L_Foot_Gyro_Y,IMU_L_Foot_Gyro_Z,IMU_L_Foot_Roll,IMU_L_Foot_Pitch,IMU_L_Foot_Yaw,IMU_L_Foot_Quat_x,IMU_L_Foot_Quat_y,IMU_L_Foot_Quat_z,IMU_L_Foot_Quat_w,IMU_R_Femur_Acc_X,IMU_R_Femur_Acc_Y,IMU_R_Femur_Acc_Z,IMU_R_Femur_Gyro_X,IMU_R_Femur_Gyro_Y,IMU_R_Femur_Gyro_Z,IMU_R_Femur_Roll,IMU_R_Femur_Pitch,IMU_R_Femur_Yaw,IMU_R_Femur_Quat_x,IMU_R_Femur_Quat_y,IMU_R_Femur_Quat_z,IMU_R_Femur_Quat_w,IMU_R_Tibia_Acc_X,IMU_R_Tibia_Acc_Y,IMU_R_Tibia_Acc_Z,IMU_R_Tibia_Gyro_X,IMU_R_Tibia_Gyro_Y,IMU_R_Tibia_Gyro_Z,IMU_R_Tibia_Roll,IMU_R_Tibia_Pitch,IMU_R_Tibia_Yaw,IMU_R_Tibia_Quat_x,IMU_R_Tibia_Quat_y,IMU_R_Tibia_Quat_z,IMU_R_Tibia_Quat_w,IMU_R_Foot_Acc_X,IMU_R_Foot_Acc_Y,IMU_R_Foot_Acc_Z,IMU_R_Foot_Gyro_X,IMU_R_Foot_Gyro_Y,IMU_R_Foot_Gyro_Z,IMU_R_Foot_Roll,IMU_R_Foot_Pitch,IMU_R_Foot_Yaw,IMU_R_Foot_Quat_x,IMU_R_Foot_Quat_y,IMU_R_Foot_Quat_z,IMU_R_Foot_Quat_w,Planter_Left_0,Planter_Left_1,Planter_Left_2,Planter_Left_3,Planter_Left_4,Planter_Left_5,Planter_Left_6,Planter_Left_7,Planter_Left_8,Planter_Left_9,Planter_Left_10,Planter_Left_11,Planter_Left_12,Planter_Left_13,Planter_Left_14,Planter_Left_15,Planter_Left_16,Planter_Left_17,Planter_Right_0,Planter_Right_1,Planter_Right_2,Planter_Right_3,Planter_Right_4,Planter_Right_5,Planter_Right_6,Planter_Right_7,Planter_Right_8,Planter_Right_9,Planter_Right_10,Planter_Right_11,Planter_Right_12,Planter_Right_13,Planter_Right_14,Planter_Right_15,Planter_Right_16,Planter_Right_17
1777291078.418372,10524,1777291071.4493496,1777291071.7302942,,0,0,-280.9445858001709,,1,0,0.0,0.0,0.0,0.0,0.0,0.0,0.0,0.0,0.0,0.0,0.0,0.0,0.0,0.0,0.0,0.0,0.0,0.0,0.0,0.0,0.0,0.0,0.0,0.0,0.0,0.0,0.0,0.0,0.0,0.0,0.0,0.0,0.0,0.0,0.0,0.0,0.0,0.0,0.0,0.0,0.0,0.0,0.0,0.0,0.0,0.0,0.0,0.0,0.0,0.0,0.0,0.0,0.0,0.0,0.0,0.0,0.0,0.0,0.0,0.0,0.0,0.0,0.0,0.0,0.0,0.0,0.0,0.0,0.0,0.0,0.0,0.0,0.0,0.0,0.0,0.0,0.0,0.0,0.0,0.0,0.0,0.0,0.0,0.0,0.0,0.0,0.0,1.0,5.0292,8.1826,-1.3877,0.061,-0.4272,-0.1831,99.6075,-31.2286,-159.928,0.2993,0.6941,-0.6479,-0.0941,0.0,0.0,0.0,0.0,0.0,0.0,0.0,0.0,0.0,0.0,0.0,0.0,1.0,0.0,0.0,0.0,0.0,0.0,0.0,0.0,0.0,0.0,0.0,0.0,0.0,1.0,0.0,0.0,0.0,0.0,0.0,0.0,0.0,0.0,0.0,0.0,0.0,0.0,1.0,0.0,0.0,0.0,0.0,0.0,0.0,0.0,0.0,0.0,0.0,0.0,0.0,1.0,0.0,0.0,0.0,0.0,0.0,0.0,0.0,0.0,0.0,0.0,0.0,0.0,1.0,0,0,0,0,0,0,0,0,0,0,0,0,0,0,0,0,0,0,0,0,0,0,0,0,0,0,0,0,0,0,0,0,0,0,0,0
1777291078.418372,10609,1777291071.45535,1777291071.7302942,,1,84,-274.9443054199219,,1,0,0.0,0.0,0.0,0.0,0.0,0.0,0.0,0.0,0.0,0.0,0.0,0.0,0.0,0.0,0.0,0.0,0.0,0.0,0.0,0.0,0.0,0.0,0.0,0.0,0.0,0.0,0.0,760.5948486328125,644.2192993164062,1112.4169921875,1011.9419555664062,638.1693725585938,1110.7716064453125,775.385986328125,460.6838073730469,1150.1129150390625,935.803955078125,441.2249755859375,1148.762451171875,678.2412719726562,576.2984619140625,861.8527221679688,710.5771484375,673.0086669921875,613.689208984375,691.6121215820312,679.3211669921875,439.11383056640625,711.5679931640625,748.501220703125,246.6118621826172,779.3861083984375,689.7409057617188,147.1737518310547,728.306640625,942.5994873046875,227.87413024902344,1044.18017578125,542.62060546875,787.4132690429688,986.3448486328125,466.3887634277344,566.7493286132812,995.3377685546875,417.33026123046875,438.143798828125,944.8109130859375,340.5874328613281,240.3875274658203,887.6392211914062,251.72991943359375,175.82398986816406,912.6973266601562,515.8572998046875,176.5228729248047,0.0,0.0,0.0,0.0,0.0,0.0,0.0,0.0,0.0,0.0,0.0,0.0,1.0,5.0292,8.1826,-1.3877,0.061,-0.4272,-0.1831,99.6075,-31.2286,-159.928,0.2993,0.6941,-0.6479,-0.0941,0.0,0.0,0.0,0.0,0.0,0.0,0.0,0.0,0.0,0.0,0.0,0.0,1.0,0.0,0.0,0.0,0.0,0.0,0.0,0.0,0.0,0.0,0.0,0.0,0.0,1.0,0.0,0.0,0.0,0.0,0.0,0.0,0.0,0.0,0.0,0.0,0.0,0.0,1.0,0.0,0.0,0.0,0.0,0.0,0.0,0.0,0.0,0.0,0.0,0.0,0.0,1.0,0.0,0.0,0.0,0.0,0.0,0.0,0.0,0.0,0.0,0.0,0.0,0.0,1.0,0,0,0,0,0,0,0,0,0,0,0,0,0,0,0,0,0,0,0,0,0,0,0,0,0,0,0,0,0,0,0,0,0,0,0,0
1777291078.418372,10612,1777291071.4585128,1777291071.7302942,,1,2,-271.78144454956055,,1,0,0.0,0.0,0.0,0.0,0.0,0.0,0.0,0.0,0.0,0.0,0.0,0.0,0.0,0.0,0.0,0.0,0.0,0.0,0.0,0.0,0.0,0.0,0.0,0.0,0.0,0.0,0.0,756.9365234375,646.4544677734375,1110.939453125,1008.1773071289062,638.6435546875,1109.254638671875,770.7783203125,462.8280944824219,1148.5535888671875,931.0570068359375,442.1067199707031,1146.851318359375,677.1414184570312,579.4829711914062,858.9595336914062,713.4852905273438,671.599609375,609.7247314453125,698.056396484375,672.8941040039062,434.3193664550781,720.03125,735.4932861328125,240.93914794921875,783.5760498046875,669.118408203125,148.48448181152344,743.56640625,928.29296875,213.5756072998047,1040.4200439453125,540.728271484375,786.0066528320312,984.1356811523438,461.0587158203125,567.047607421875,994.0538330078125,405.6526794433594,441.0526428222656,944.9021606445312,320.5226135253906,246.01792907714844,888.4411010742188,230.00660705566406,182.04586791992188,913.3300170898438,492.8271179199219,176.0825958251953,0.0,0.0,0.0,0.0,0.0,0.0,0.0,0.0,0.0,0.0,0.0,0.0,1.0,5.0292,8.1826,-1.3877,0.061,-0.4272,-0.1831,99.6075,-31.2286,-159.928,0.2993,0.6941,-0.6479,-0.0941,0.0,0.0,0.0,0.0,0.0,0.0,0.0,0.0,0.0,0.0,0.0,0.0,1.0,0.0,0.0,0.0,0.0,0.0,0.0,0.0,0.0,0.0,0.0,0.0,0.0,1.0,0.0,0.0,0.0,0.0,0.0,0.0,0.0,0.0,0.0,0.0,0.0,0.0,1.0,0.0,0.0,0.0,0.0,0.0,0.0,0.0,0.0,0.0,0.0,0.0,0.0,1.0,0.0,0.0,0.0,0.0,0.0,0.0,0.0,0.0,0.0,0.0,0.0,0.0,1.0,0,0,0,0,0,0,0,0,0,0,0,0,0,0,0,0,0,0,0,0,0,0,0,0,0,0,0,0,0,0,0,0,0,0,0,0
1777291078.418372,10613,1777291071.4739146,1777291071.7302942,,0,0,-256.3796043395996,,1,0,0.0,0.0,0.0,0.0,0.0,0.0,0.0,0.0,0.0,0.0,0.0,0.0,0.0,0.0,0.0,0.0,0.0,0.0,0.0,0.0,0.0,0.0,0.0,0.0,0.0,0.0,0.0,755.584228515625,647.4115600585938,1110.6317138671875,1006.7896118164062,638.9907836914062,1108.90771484375,769.1635131835938,463.7125244140625,1148.1116943359375,929.3850708007812,442.52587890625,1146.2181396484375,676.7470703125,580.9044189453125,858.14306640625,714.1779174804688,671.4251098632812,608.55419921875,699.4972534179688,670.9095458984375,432.88372802734375,721.952392578125,730.7013549804688,239.13526916503906,783.9695434570312,661.4603271484375,149.16090393066406,747.7339477539062,922.6112060546875,208.51795959472656,1039.23779296875,540.8517456054688,785.5873413085938,983.5851440429688,460.4507141113281,567.1404418945312,993.8260498046875,402.57818603515625,442.27130126953125,945.1759643554688,314.2787170410156,248.39569091796875,888.8487548828125,222.9485321044922,184.93406677246094,913.5438842773438,485.0876770019531,175.97686767578125,0.0,0.0,0.0,0.0,0.0,0.0,0.0,0.0,0.0,0.0,0.0,0.0,1.0,5.0292,8.1826,-1.3877,0.061,-0.4272,-0.1831,99.6075,-31.2286,-159.928,0.2993,0.6941,-0.6479,-0.0941,0.0,0.0,0.0,0.0,0.0,0.0,0.0,0.0,0.0,0.0,0.0,0.0,1.0,0.0,0.0,0.0,0.0,0.0,0.0,0.0,0.0,0.0,0.0,0.0,0.0,1.0,0.0,0.0,0.0,0.0,0.0,0.0,0.0,0.0,0.0,0.0,0.0,0.0,1.0,0.0,0.0,0.0,0.0,0.0,0.0,0.0,0.0,0.0,0.0,0.0,0.0,1.0,0.0,0.0,0.0,0.0,0.0,0.0,0.0,0.0,0.0,0.0,0.0,0.0,1.0,0,0,0,0,0,0,0,0,0,0,0,0,0,0,0,0,0,0,0,0,0,0,0,0,0,0,0,0,0,0,0,0,0,0,0,0
1777291078.418372,10614,1777291071.4899142,1777291071.7302942,,0,0,-240.38004875183105,,1,0,0.0,0.0,0.0,0.0,0.0,0.0,0.0,0.0,0.0,0.0,0.0,0.0,0.0,0.0,0.0,0.0,0.0,0.0,0.0,0.0,0.0,0.0,0.0,0.0,0.0,0.0,0.0,754.1742553710938,648.4503173828125,1110.41796875,1005.3460083007812,639.4075317382812,1108.6409912109375,767.520263671875,464.6595764160156,1147.72216796875,927.6788940429688,442.9857177734375,1145.598388671875,676.309814453125,582.4329223632812,857.4270629882812,714.6697387695312,671.3557739257812,607.48828125,700.4306030273438,669.1082153320312,431.5951843261719,723.3162841796875,725.8995361328125,237.4718475341797,784.0260620117188,653.7816772460938,149.9401092529297,751.1559448242188,916.6619873046875,203.6647186279297,1038.119384765625,541.4000854492188,785.1868286132812,983.1697998046875,460.5765380859375,567.2136840820312,993.7380981445312,400.0686340332031,443.6223449707031,945.6168212890625,308.38775634765625,251.07594299316406,889.3245849609375,216.0361785888672,188.28871154785156,913.7594604492188,477.33856201171875,175.9074249267578,0.0,0.0,0.0,0.0,0.0,0.0,0.0,0.0,0.0,0.0,0.0,0.0,1.0,5.0292,8.1826,-1.3877,0.061,-0.4272,-0.1831,99.6075,-31.2286,-159.928,0.2993,0.6941,-0.6479,-0.0941,0.0,0.0,0.0,0.0,0.0,0.0,0.0,0.0,0.0,0.0,0.0,0.0,1.0,0.0,0.0,0.0,0.0,0.0,0.0,0.0,0.0,0.0,0.0,0.0,0.0,1.0,0.0,0.0,0.0,0.0,0.0,0.0,0.0,0.0,0.0,0.0,0.0,0.0,1.0,0.0,0.0,0.0,0.0,0.0,0.0,0.0,0.0,0.0,0.0,0.0,0.0,1.0,0.0,0.0,0.0,0.0,0.0,0.0,0.0,0.0,0.0,0.0,0.0,0.0,1.0,0,0,0,0,0,0,0,0,0,0,0,0,0,0,0,0,0,0,0,0,0,0,0,0,0,0,0,0,0,0,0,0,0,0,0,0
1777291078.418372,10615,1777291071.4939134,1777291071.7302942,,0,0,-236.38081550598145,,1,0,0.0,0.0,0.0,0.0,0.0,0.0,0.0,0.0,0.0,0.0,0.0,0.0,0.0,0.0,0.0,0.0,0.0,0.0,0.0,0.0,0.0,0.0,0.0,0.0,0.0,0.0,0.0,752.713623046875,649.55126953125,1110.2969970703125,1003.854736328125,639.8745727539062,1108.452392578125,765.856201171875,465.6525573730469,1147.39208984375,925.9458618164062,443.47100830078125,1144.9989013671875,675.8123168945312,584.017822265625,856.8271484375,714.9376220703125,671.357177734375,606.541015625,700.8101196289062,667.50244140625,430.48260498046875,724.124267578125,721.1327514648438,235.986328125,783.8601684570312,646.1793212890625,150.78135681152344,753.7689208984375,910.4918212890625,199.18199157714844,1037.0767822265625,542.394287109375,784.80224609375,982.9114379882812,461.5213317871094,567.261962890625,993.8109130859375,398.227294921875,445.1112060546875,946.2496948242188,302.9505310058594,254.08998107910156,889.8697509765625,209.33863830566406,192.17491149902344,913.9794311523438,469.6139831542969,175.87200927734375,0.0,0.0,0.0,0.0,0.0,0.0,0.0,0.0,0.0,0.0,0.0,0.0,1.0,5.0292,8.1826,-1.3877,0.061,-0.4272,-0.1831,99.6075,-31.2286,-159.928,0.2993,0.6941,-0.6479,-0.0941,0.0,0.0,0.0,0.0,0.0,0.0,0.0,0.0,0.0,0.0,0.0,0.0,1.0,0.0,0.0,0.0,0.0,0.0,0.0,0.0,0.0,0.0,0.0,0.0,0.0,1.0,0.0,0.0,0.0,0.0,0.0,0.0,0.0,0.0,0.0,0.0,0.0,0.0,1.0,0.0,0.0,0.0,0.0,0.0,0.0,0.0,0.0,0.0,0.0,0.0,0.0,1.0,0.0,0.0,0.0,0.0,0.0,0.0,0.0,0.0,0.0,0.0,0.0,0.0,1.0,0,0,0,0,0,0,0,0,0,0,0,0,0,0,0,0,0,0,0,0,0,0,0,0,0,0,0,0,0,0,0,0,0,0,0,0
1777291078.418372,10616,1777291071.5089135,1777291071.7302942,,0,0,-221.38071060180664,,1,0,0.0,0.0,0.0,0.0,0.0,0.0,0.0,0.0,0.0,0.0,0.0,0.0,0.0,0.0,0.0,0.0,0.0,0.0,0.0,0.0,0.0,0.0,0.0,0.0,0.0,0.0,0.0,751.2102661132812,650.6923828125,1110.266357421875,1002.3248901367188,640.370849609375,1108.338623046875,764.179443359375,466.673095703125,1147.12744140625,924.1939086914062,443.9656677246094,1144.4266357421875,675.23828125,585.6060791015625,856.3562622070312,714.9725341796875,671.3875732421875,605.7210083007812,700.6328125,666.0685424804688,429.5630187988281,724.4227294921875,716.3961791992188,234.70191955566406,783.571533203125,638.6835327148438,151.63079833984375,755.5957641601562,904.1187133789062,195.19813537597656,1036.1171875,543.8466796875,784.4326171875,982.8273315429688,463.3600158691406,567.2853393554688,994.061767578125,397.157470703125,446.7445983886719,947.0951538085938,298.0787658691406,257.4674377441406,890.491455078125,202.9586639404297,196.6862335205078,914.2105102539062,461.96429443359375,175.8555145263672,0.0,0.0,0.0,0.0,0.0,0.0,0.0,0.0,0.0,0.0,0.0,0.0,1.0,5.0292,8.1826,-1.3877,0.061,-0.4272,-0.1831,99.6075,-31.2286,-159.928,0.2993,0.6941,-0.6479,-0.0941,0.0,0.0,0.0,0.0,0.0,0.0,0.0,0.0,0.0,0.0,0.0,0.0,1.0,0.0,0.0,0.0,0.0,0.0,0.0,0.0,0.0,0.0,0.0,0.0,0.0,1.0,0.0,0.0,0.0,0.0,0.0,0.0,0.0,0.0,0.0,0.0,0.0,0.0,1.0,0.0,0.0,0.0,0.0,0.0,0.0,0.0,0.0,0.0,0.0,0.0,0.0,1.0,0.0,0.0,0.0,0.0,0.0,0.0,0.0,0.0,0.0,0.0,0.0,0.0,1.0,0,0,0,0,0,0,0,0,0,0,0,0,0,0,0,0,0,0,0,0,0,0,0,0,0,0,0,0,0,0,0,0,0,0,0,0
1777291078.418372,10617,1777291071.512106,1777291071.7302942,,0,0,-218.18828582763672,,1,0,0.0,0.0,0.0,0.0,0.0,0.0,0.0,0.0,0.0,0.0,0.0,0.0,0.0,0.0,0.0,0.0,0.0,0.0,0.0,0.0,0.0,0.0,0.0,0.0,0.0,0.0,0.0,749.673095703125,651.8496704101562,1110.32177734375,1000.7669067382812,640.8740234375,1108.2952880859375,762.498291015625,467.701416015625,1146.93310546875,922.4312133789062,444.4533386230469,1143.8880615234375,674.5734252929688,587.143310546875,856.022705078125,714.78125,671.3970336914062,605.0301513671875,699.9435424804688,664.7500610351562,428.8401184082031,724.2963256835938,711.6500854492188,233.62896728515625,783.2379150390625,631.2814331054688,152.433837890625,756.7313232421875,897.5487060546875,191.79579162597656,1035.24365234375,545.7594604492188,784.0792846679688,982.9287719726562,466.1517028808594,567.2908935546875,994.50244140625,396.9563903808594,448.53106689453125,948.1672973632812,293.88970947265625,261.2348327636719,891.2056274414062,197.03689575195312,201.94610595703125,914.465576171875,454.4551696777344,175.828125,0.0,0.0,0.0,0.0,0.0,0.0,0.0,0.0,0.0,0.0,0.0,0.0,1.0,5.0292,8.1826,-1.3877,0.061,-0.4272,-0.1831,99.6075,-31.2286,-159.928,0.2993,0.6941,-0.6479,-0.0941,0.0,0.0,0.0,0.0,0.0,0.0,0.0,0.0,0.0,0.0,0.0,0.0,1.0,0.0,0.0,0.0,0.0,0.0,0.0,0.0,0.0,0.0,0.0,0.0,0.0,1.0,0.0,0.0,0.0,0.0,0.0,0.0,0.0,0.0,0.0,0.0,0.0,0.0,1.0,0.0,0.0,0.0,0.0,0.0,0.0,0.0,0.0,0.0,0.0,0.0,0.0,1.0,0.0,0.0,0.0,0.0,0.0,0.0,0.0,0.0,0.0,0.0,0.0,0.0,1.0,0,0,0,0,0,0,0,0,0,0,0,0,0,0,0,0,0,0,0,0,0,0,0,0,0,0,0,0,0,0,0,0,0,0,0,0
1777291078.418372,10618,1777291071.543074,1777291071.7302942,,0,0,-187.22033500671387,,1,0,0.0,0.0,0.0,0.0,0.0,0.0,0.0,0.0,0.0,0.0,0.0,0.0,0.0,0.0,0.0,0.0,0.0,0.0,0.0,0.0,0.0,0.0,0.0,0.0,0.0,0.0,0.0,748.1118774414062,652.9979858398438,1110.45751953125,999.1917114257812,641.3616943359375,1108.3165283203125,760.8212280273438,468.7169494628906,1146.812255859375,920.6665649414062,444.9178466796875,1143.3896484375,673.806396484375,588.5761108398438,855.82861328125,714.385498046875,671.3278198242188,604.4624633789062,698.8331298828125,663.46533203125,428.3040466308594,723.8572998046875,706.8362426757812,232.76632690429688,782.9141845703125,623.9407348632812,153.14752197265625,757.318115234375,890.790771484375,189.0040283203125,1034.4547119140625,548.1227416992188,783.7469482421875,983.2198486328125,469.9346618652344,567.2940063476562,995.1375122070312,397.70831298828125,450.48138427734375,949.470703125,290.4988708496094,265.4144287109375,892.0374755859375,191.75177001953125,208.10321044921875,914.7646484375,447.1643371582031,175.7456817626953,0.0,0.0,0.0,0.0,0.0,0.0,0.0,0.0,0.0,0.0,0.0,0.0,1.0,5.0292,8.1826,-1.3877,0.061,-0.4272,-0.1831,99.6075,-31.2286,-159.928,0.2993,0.6941,-0.6479,-0.0941,0.0,0.0,0.0,0.0,0.0,0.0,0.0,0.0,0.0,0.0,0.0,0.0,1.0,0.0,0.0,0.0,0.0,0.0,0.0,0.0,0.0,0.0,0.0,0.0,0.0,1.0,0.0,0.0,0.0,0.0,0.0,0.0,0.0,0.0,0.0,0.0,0.0,0.0,1.0,0.0,0.0,0.0,0.0,0.0,0.0,0.0,0.0,0.0,0.0,0.0,0.0,1.0,0.0,0.0,0.0,0.0,0.0,0.0,0.0,0.0,0.0,0.0,0.0,0.0,1.0,0,0,0,0,0,0,0,0,0,0,0,0,0,0,0,0,0,0,0,0,0,0,0,0,0,0,0,0,0,0,0,0,0,0,0,0
1777291078.418372,10620,1777291071.5460508,1777291071.7302942,,1,1,-184.24344062805176,,1,0,0.0,0.0,0.0,0.0,0.0,0.0,0.0,0.0,0.0,0.0,0.0,0.0,0.0,0.0,0.0,0.0,0.0,0.0,0.0,0.0,0.0,0.0,0.0,0.0,0.0,0.0,0.0,744.9603271484375,655.1660766601562,1110.93994140625,996.0366821289062,642.2045288085938,1108.52734375,757.5125732421875,470.6269226074219,1146.7960205078125,917.1666259765625,445.7165832519531,1142.5369873046875,671.9404907226562,590.9296875,855.8314819335938,713.1266479492188,670.696533203125,603.6372680664062,695.8795166015625,660.5992431640625,427.69415283203125,722.5491333007812,696.7682495117188,231.61700439453125,782.4264526367188,609.3189086914062,154.22732543945312,757.5032348632812,876.8067016601562,185.11215209960938,1033.1063232421875,554.0969848632812,783.1826782226562,984.3453979492188,480.49798583984375,567.398681640625,996.9652709960938,402.3005065917969,454.9288635253906,952.7279052734375,286.5108337402344,275.06982421875,894.1873168945312,183.9517059326172,223.74916076660156,915.605712890625,433.5722961425781,175.19021606445312,0.0,0.0,0.0,0.0,0.0,0.0,0.0,0.0,0.0,0.0,0.0,0.0,1.0,5.0292,8.1826,-1.3877,0.061,-0.4272,-0.1831,99.6075,-31.2286,-159.928,0.2993,0.6941,-0.6479,-0.0941,0.0,0.0,0.0,0.0,0.0,0.0,0.0,0.0,0.0,0.0,0.0,0.0,1.0,0.0,0.0,0.0,0.0,0.0,0.0,0.0,0.0,0.0,0.0,0.0,0.0,1.0,0.0,0.0,0.0,0.0,0.0,0.0,0.0,0.0,0.0,0.0,0.0,0.0,1.0,0.0,0.0,0.0,0.0,0.0,0.0,0.0,0.0,0.0,0.0,0.0,0.0,1.0,0.0,0.0,0.0,0.0,0.0,0.0,0.0,0.0,0.0,0.0,0.0,0.0,1.0,0,0,0,0,0,0,0,0,0,0,0,0,0,0,0,0,0,0,0,0,0,0,0,0,0,0,0,0,0,0,0,0,0,0,0,0
1777291078.419228,10621,1777291071.5604944,1777291071.7302942,,0,0,-169.7998046875,,1,0,0.0,0.0,0.0,0.0,0.0,0.0,0.0,0.0,0.0,0.0,0.0,0.0,0.0,0.0,0.0,0.0,0.0,0.0,0.0,0.0,0.0,0.0,0.0,0.0,0.0,0.0,0.0,743.392578125,656.1373901367188,1111.2685546875,994.4805297851562,642.521484375,1108.7037353515625,755.8971557617188,471.48162841796875,1146.8994140625,915.4493408203125,446.0238037109375,1142.194091796875,670.8410034179688,591.7632446289062,855.9970703125,712.3524780273438,670.0038452148438,603.3362426757812,694.3359985351562,658.8120727539062,427.5494384765625,721.923095703125,691.42236328125,231.28224182128906,782.297607421875,602.0018310546875,154.59494018554688,757.4059448242188,869.6536865234375,183.85379028320312,1032.52734375,557.6244506835938,782.9790649414062,985.145263671875,487.2176513671875,567.5741577148438,998.1209716796875,406.182861328125,457.45947265625,954.6253051757812,286.0548400878906,280.55694580078125,895.5679931640625,181.8946075439453,233.51353454589844,916.2109375,427.4253845214844,174.60406494140625,0.0,0.0,0.0,0.0,0.0,0.0,0.0,0.0,0.0,0.0,0.0,0.0,1.0,5.0292,8.1826,-1.3877,0.061,-0.4272,-0.1831,99.6075,-31.2286,-159.928,0.2993,0.6941,-0.6479,-0.0941,0.0,0.0,0.0,0.0,0.0,0.0,0.0,0.0,0.0,0.0,0.0,0.0,1.0,0.0,0.0,0.0,0.0,0.0,0.0,0.0,0.0,0.0,0.0,0.0,0.0,1.0,0.0,0.0,0.0,0.0,0.0,0.0,0.0,0.0,0.0,0.0,0.0,0.0,1.0,0.0,0.0,0.0,0.0,0.0,0.0,0.0,0.0,0.0,0.0,0.0,0.0,1.0,0.0,0.0,0.0,0.0,0.0,0.0,0.0,0.0,0.0,0.0,0.0,0.0,1.0,0,0,0,0,0,0,0,0,0,0,0,0,0,0,0,0,0,0,0,0,0,0,0,0,0,0,0,0,0,0,0,0,0,0,0,0
1777291078.419228,10622,1777291071.5629957,1777291071.7302942,,0,0,-167.2985553741455,,1,0,0.0,0.0,0.0,0.0,0.0,0.0,0.0,0.0,0.0,0.0,0.0,0.0,0.0,0.0,0.0,0.0,0.0,0.0,0.0,0.0,0.0,0.0,0.0,0.0,0.0,0.0,0.0,741.8456420898438,657.0043334960938,1111.6419677734375,992.9539184570312,642.7481079101562,1108.9190673828125,754.31787109375,472.2452697753906,1147.0740966796875,913.7658081054688,446.2546691894531,1141.913818359375,669.6387939453125,592.3203125,856.2415161132812,711.542236328125,668.9802856445312,603.0761108398438,692.93310546875,656.6652221679688,427.4568176269531,721.4476928710938,685.834228515625,231.0662078857422,782.255859375,594.6763305664062,154.8661346435547,757.3352661132812,862.447998046875,182.92221069335938,1031.99560546875,561.4382934570312,782.8526611328125,986.06591796875,494.8066711425781,567.8917846679688,999.3973999023438,411.0941467285156,460.2193603515625,956.6414794921875,286.6644592285156,286.47576904296875,897.1710205078125,181.3455352783203,244.67091369628906,916.9791870117188,421.7901306152344,173.75889587402344,0.0,0.0,0.0,0.0,0.0,0.0,0.0,0.0,0.0,0.0,0.0,0.0,1.0,5.0292,8.1826,-1.3877,0.061,-0.4272,-0.1831,99.6075,-31.2286,-159.928,0.2993,0.6941,-0.6479,-0.0941,0.0,0.0,0.0,0.0,0.0,0.0,0.0,0.0,0.0,0.0,0.0,0.0,1.0,0.0,0.0,0.0,0.0,0.0,0.0,0.0,0.0,0.0,0.0,0.0,0.0,1.0,0.0,0.0,0.0,0.0,0.0,0.0,0.0,0.0,0.0,0.0,0.0,0.0,1.0,0.0,0.0,0.0,0.0,0.0,0.0,0.0,0.0,0.0,0.0,0.0,0.0,1.0,0.0,0.0,0.0,0.0,0.0,0.0,0.0,0.0,0.0,0.0,0.0,0.0,1.0,0,0,0,0,0,0,0,0,0,0,0,0,0,0,0,0,0,0,0,0,0,0,0,0,0,0,0,0,0,0,0,0,0,0,0,0
1777291078.419228,10623,1777291071.5774972,1777291071.7302942,,0,0,-152.79698371887207,,1,0,0.0,0.0,0.0,0.0,0.0,0.0,0.0,0.0,0.0,0.0,0.0,0.0,0.0,0.0,0.0,0.0,0.0,0.0,0.0,0.0,0.0,0.0,0.0,0.0,0.0,0.0,0.0,740.3306884765625,657.7484741210938,1112.050048828125,991.4673461914062,642.8731689453125,1109.168212890625,752.7820434570312,472.902099609375,1147.3162841796875,912.1248168945312,446.4007263183594,1141.7010498046875,668.346435546875,592.5743408203125,856.5375366210938,710.735595703125,667.5789184570312,602.8320922851562,691.7745361328125,654.0877685546875,427.37628173828125,721.1870727539062,679.9985961914062,230.93560791015625,782.3014526367188,587.3495483398438,155.06031799316406,757.35693359375,855.2262573242188,182.22088623046875,1031.497802734375,565.4729614257812,782.8255615234375,987.0706176757812,503.1645812988281,568.400634765625,1000.7535400390625,416.9689636230469,463.2266540527344,958.7169799804688,288.3238525390625,292.8059387207031,898.9765014648438,182.4569091796875,257.1920471191406,917.9324951171875,416.703125,172.64862060546875,0.0,0.0,0.0,0.0,0.0,0.0,0.0,0.0,0.0,0.0,0.0,0.0,1.0,5.0292,8.1826,-1.3877,0.061,-0.4272,-0.1831,99.6075,-31.2286,-159.928,0.2993,0.6941,-0.6479,-0.0941,0.0,0.0,0.0,0.0,0.0,0.0,0.0,0.0,0.0,0.0,0.0,0.0,1.0,0.0,0.0,0.0,0.0,0.0,0.0,0.0,0.0,0.0,0.0,0.0,0.0,1.0,0.0,0.0,0.0,0.0,0.0,0.0,0.0,0.0,0.0,0.0,0.0,0.0,1.0,0.0,0.0,0.0,0.0,0.0,0.0,0.0,0.0,0.0,0.0,0.0,0.0,1.0,0.0,0.0,0.0,0.0,0.0,0.0,0.0,0.0,0.0,0.0,0.0,0.0,1.0,0,0,0,0,0,0,0,0,0,0,0,0,0,0,0,0,0,0,0,0,0,0,0,0,0,0,0,0,0,0,0,0,0,0,0,0
1777291078.419228,10624,1777291071.5810046,1777291071.7302942,,0,0,-149.28960800170898,,1,0,0.0,0.0,0.0,0.0,0.0,0.0,0.0,0.0,0.0,0.0,0.0,0.0,0.0,0.0,0.0,0.0,0.0,0.0,0.0,0.0,0.0,0.0,0.0,0.0,0.0,0.0,0.0,738.8582153320312,658.3543701171875,1112.4827880859375,990.0302124023438,642.8897094726562,1109.4473876953125,751.2964477539062,473.43890380859375,1147.62158203125,910.5350952148438,446.455810546875,1141.560791015625,666.9813232421875,592.506591796875,856.857177734375,709.9644165039062,665.767333984375,602.5830078125,690.9235229492188,651.0338745117188,427.2742614746094,721.1729736328125,673.9246215820312,230.85910034179688,782.4293212890625,580.0315551757812,155.19752502441406,757.49951171875,848.0161743164062,181.66751098632812,1031.0208740234375,569.6589965820312,782.9216918945312,988.1175537109375,512.1694946289062,569.1483764648438,1002.142578125,423.7101135253906,466.4964294433594,960.7854614257812,290.9816589355469,299.51263427734375,900.928955078125,185.30792236328125,270.94342041015625,919.0831909179688,412.18890380859375,171.30503845214844,0.0,0.0,0.0,0.0,0.0,0.0,0.0,0.0,0.0,0.0,0.0,0.0,1.0,5.0292,8.1826,-1.3877,0.061,-0.4272,-0.1831,99.6075,-31.2286,-159.928,0.2993,0.6941,-0.6479,-0.0941,0.0,0.0,0.0,0.0,0.0,0.0,0.0,0.0,0.0,0.0,0.0,0.0,1.0,0.0,0.0,0.0,0.0,0.0,0.0,0.0,0.0,0.0,0.0,0.0,0.0,1.0,0.0,0.0,0.0,0.0,0.0,0.0,0.0,0.0,0.0,0.0,0.0,0.0,1.0,0.0,0.0,0.0,0.0,0.0,0.0,0.0,0.0,0.0,0.0,0.0,0.0,1.0,0.0,0.0,0.0,0.0,0.0,0.0,0.0,0.0,0.0,0.0,0.0,0.0,1.0,0,0,0,0,0,0,0,0,0,0,0,0,0,0,0,0,0,0,0,0,0,0,0,0,0,0,0,0,0,0,0,0,0,0,0,0
1777291078.4198344,10625,1777291071.5949862,1777291071.7302942,,0,0,-135.30802726745605,,1,0,0.0,0.0,0.0,0.0,0.0,0.0,0.0,0.0,0.0,0.0,0.0,0.0,0.0,0.0,0.0,0.0,0.0,0.0,0.0,0.0,0.0,0.0,0.0,0.0,0.0,0.0,0.0,737.4376831054688,658.8101806640625,1112.9310302734375,988.6503295898438,642.794677734375,1109.75439453125,749.8676147460938,473.8450622558594,1147.9852294921875,909.0050659179688,446.416259765625,1141.497314453125,665.5647583007812,592.106689453125,857.174560546875,709.2511596679688,663.53076171875,602.3134155273438,690.4002685546875,647.4869384765625,427.1279296875,721.405029296875,667.6322631835938,230.81045532226562,782.6298828125,572.731201171875,155.29684448242188,757.761474609375,840.8341674804688,181.19964599609375,1030.552978515625,573.927001953125,783.1658935546875,989.1620483398438,521.6842651367188,570.177734375,1003.5146484375,431.19500732421875,470.03778076171875,962.7778930664062,294.5571594238281,306.5436096191406,902.9365844726562,189.88821411132812,285.681640625,920.4326782226562,408.2740478515625,169.80206298828125,0.0,0.0,0.0,0.0,0.0,0.0,0.0,0.0,0.0,0.0,0.0,0.0,1.0,5.0292,8.1826,-1.3877,0.061,-0.4272,-0.1831,99.6075,-31.2286,-159.928,0.2993,0.6941,-0.6479,-0.0941,0.0,0.0,0.0,0.0,0.0,0.0,0.0,0.0,0.0,0.0,0.0,0.0,1.0,0.0,0.0,0.0,0.0,0.0,0.0,0.0,0.0,0.0,0.0,0.0,0.0,1.0,0.0,0.0,0.0,0.0,0.0,0.0,0.0,0.0,0.0,0.0,0.0,0.0,1.0,0.0,0.0,0.0,0.0,0.0,0.0,0.0,0.0,0.0,0.0,0.0,0.0,1.0,0.0,0.0,0.0,0.0,0.0,0.0,0.0,0.0,0.0,0.0,0.0,0.0,1.0,0,0,0,0,0,0,0,0,0,0,0,0,0,0,0,0,0,0,0,0,0,0,0,0,0,0,0,0,0,0,0,0,0,0,0,0
1777291078.4198344,10626,1777291071.5985942,1777291071.7302942,,0,0,-131.7000389099121,,1,0,0.0,0.0,0.0,0.0,0.0,0.0,0.0,0.0,0.0,0.0,0.0,0.0,0.0,0.0,0.0,0.0,0.0,0.0,0.0,0.0,0.0,0.0,0.0,0.0,0.0,0.0,0.0,736.076904296875,659.1076049804688,1113.38720703125,987.3338012695312,642.5894165039062,1110.0889892578125,748.5014038085938,474.11279296875,1148.4024658203125,907.542724609375,446.2806091308594,1141.5150146484375,664.1209716796875,591.3727416992188,857.4681396484375,708.6091918945312,660.8728637695312,602.0150756835938,690.1862182617188,643.4606323242188,426.927734375,721.8551025390625,661.1488037109375,230.7708740234375,782.8898315429688,565.4532470703125,155.37562561035156,758.12109375,833.68505859375,180.77647399902344,1030.0845947265625,578.2112426757812,783.582763671875,990.1594848632812,531.5632934570312,571.5219116210938,1004.8192749023438,439.2837829589844,473.8505554199219,964.6272583007812,298.9493103027344,313.82647705078125,904.87744140625,196.0890350341797,301.05853271484375,921.9720458984375,405.0069274902344,168.2557830810547,0.0,0.0,0.0,0.0,0.0,0.0,0.0,0.0,0.0,0.0,0.0,0.0,1.0,5.0292,8.1826,-1.3877,0.061,-0.4272,-0.1831,99.6075,-31.2286,-159.928,0.2993,0.6941,-0.6479,-0.0941,0.0,0.0,0.0,0.0,0.0,0.0,0.0,0.0,0.0,0.0,0.0,0.0,1.0,0.0,0.0,0.0,0.0,0.0,0.0,0.0,0.0,0.0,0.0,0.0,0.0,1.0,0.0,0.0,0.0,0.0,0.0,0.0,0.0,0.0,0.0,0.0,0.0,0.0,1.0,0.0,0.0,0.0,0.0,0.0,0.0,0.0,0.0,0.0,0.0,0.0,0.0,1.0,0.0,0.0,0.0,0.0,0.0,0.0,0.0,0.0,0.0,0.0,0.0,0.0,1.0,0,0,0,0,0,0,0,0,0,0,0,0,0,0,0,0,0,0,0,0,0,0,0,0,0,0,0,0,0,0,0,0,0,0,0,0
1777291078.4198344,10627,1777291071.61534,1777291071.7302942,,0,0,-114.95423316955566,,1,0,0.0,0.0,0.0,0.0,0.0,0.0,0.0,0.0,0.0,0.0,0.0,0.0,0.0,0.0,0.0,0.0,0.0,0.0,0.0,0.0,0.0,0.0,0.0,0.0,0.0,0.0,0.0,734.7817993164062,659.2420043945312,1113.845458984375,986.08447265625,642.27880859375,1110.4525146484375,747.2034301757812,474.2372741699219,1148.8687744140625,906.1554565429688,446.04949951171875,1141.6180419921875,662.6759643554688,590.3114013671875,857.7229614257812,708.0439453125,657.8151245117188,601.6874389648438,690.2327270507812,638.996826171875,426.6777038574219,722.4737548828125,654.5049438476562,230.73016357421875,783.1929321289062,558.1964111328125,155.44845581054688,758.5457763671875,826.5631103515625,180.3772735595703,1029.608154296875,582.4535522460938,784.19580078125,991.0675659179688,541.6594848632812,573.2020263671875,1006.0084228515625,447.8285217285156,477.921630859375,966.272705078125,304.0470886230469,321.2667236328125,906.6119995117188,203.7020721435547,316.6353759765625,923.683837890625,402.4768981933594,166.82057189941406,0.0,0.0,0.0,0.0,0.0,0.0,0.0,0.0,0.0,0.0,0.0,0.0,1.0,5.0292,8.1826,-1.3877,0.061,-0.4272,-0.1831,99.6075,-31.2286,-159.928,0.2993,0.6941,-0.6479,-0.0941,0.0,0.0,0.0,0.0,0.0,0.0,0.0,0.0,0.0,0.0,0.0,0.0,1.0,0.0,0.0,0.0,0.0,0.0,0.0,0.0,0.0,0.0,0.0,0.0,0.0,1.0,0.0,0.0,0.0,0.0,0.0,0.0,0.0,0.0,0.0,0.0,0.0,0.0,1.0,0.0,0.0,0.0,0.0,0.0,0.0,0.0,0.0,0.0,0.0,0.0,0.0,1.0,0.0,0.0,0.0,0.0,0.0,0.0,0.0,0.0,0.0,0.0,0.0,0.0,1.0,0,0,0,0,0,0,0,0,0,0,0,0,0,0,0,0,0,0,0,0,0,0,0,0,0,0,0,0,0,0,0,0,0,0,0,0
1777291078.4198344,10628,1777291071.6179328,1777291071.7302942,,0,0,-112.36143112182617,,1,0,0.0,0.0,0.0,0.0,0.0,0.0,0.0,0.0,0.0,0.0,0.0,0.0,0.0,0.0,0.0,0.0,0.0,0.0,0.0,0.0,0.0,0.0,0.0,0.0,0.0,0.0,0.0,733.5560302734375,659.2119140625,1114.3021240234375,984.904296875,641.8710327148438,1110.848388671875,745.978515625,474.21649169921875,1149.379638671875,904.8501586914062,445.7254638671875,1141.8096923828125,661.2560424804688,588.9378662109375,857.9317626953125,707.5545043945312,654.3944091796875,601.3368530273438,690.4727783203125,634.1589965820312,426.39398193359375,723.1993408203125,647.7312622070312,230.68661499023438,783.52099609375,550.9528198242188,155.52655029296875,759.0000610351562,819.453857421875,179.99766540527344,1029.119140625,586.6058349609375,785.0261840820312,991.8489990234375,551.83056640625,575.2245483398438,1007.0386962890625,456.6821594238281,482.2222595214844,967.662841796875,309.7399597167969,328.7471923828125,907.9993896484375,212.42764282226562,331.905517578125,925.5447387695312,400.82861328125,165.6806182861328,0.0,0.0,0.0,0.0,0.0,0.0,0.0,0.0,0.0,0.0,0.0,0.0,1.0,5.0292,8.1826,-1.3877,0.061,-0.4272,-0.1831,99.6075,-31.2286,-159.928,0.2993,0.6941,-0.6479,-0.0941,0.0,0.0,0.0,0.0,0.0,0.0,0.0,0.0,0.0,0.0,0.0,0.0,1.0,0.0,0.0,0.0,0.0,0.0,0.0,0.0,0.0,0.0,0.0,0.0,0.0,1.0,0.0,0.0,0.0,0.0,0.0,0.0,0.0,0.0,0.0,0.0,0.0,0.0,1.0,0.0,0.0,0.0,0.0,0.0,0.0,0.0,0.0,0.0,0.0,0.0,0.0,1.0,0.0,0.0,0.0,0.0,0.0,0.0,0.0,0.0,0.0,0.0,0.0,0.0,1.0,0,0,0,0,0,0,0,0,0,0,0,0,0,0,0,0,0,0,0,0,0,0,0,0,0,0,0,0,0,0,0,0,0,0,0,0
1777291078.4198344,10629,1777291071.633882,1777291071.7302942,,0,0,-96.41218185424805,,1,0,0.0,0.0,0.0,0.0,0.0,0.0,0.0,0.0,0.0,0.0,0.0,0.0,0.0,0.0,0.0,0.0,0.0,0.0,0.0,0.0,0.0,0.0,0.0,0.0,0.0,0.0,0.0,732.4012451171875,659.01904296875,1114.755126953125,983.7930908203125,641.3768920898438,1111.281005859375,744.8311157226562,474.05108642578125,1149.9315185546875,903.632568359375,445.3125915527344,1142.0931396484375,659.8866577148438,587.275390625,858.0949096679688,707.1359252929688,650.6583862304688,600.9752807617188,690.8330688476562,629.0233154296875,426.10125732421875,723.9669799804688,640.85498046875,230.64552307128906,783.8555908203125,543.708984375,155.61767578125,759.45166015625,812.3374633789062,179.64443969726562,1028.6153564453125,590.6318969726562,786.0922241210938,992.4736938476562,561.9443359375,577.5805053710938,1007.873291015625,465.7063293457031,486.70611572265625,968.7582397460938,315.9267883300781,336.1297607421875,908.915771484375,221.89524841308594,346.3263244628906,927.529541015625,400.26617431640625,165.0349578857422,0.0,0.0,0.0,0.0,0.0,0.0,0.0,0.0,0.0,0.0,0.0,0.0,1.0,5.0292,8.1826,-1.3877,0.061,-0.4272,-0.1831,99.6075,-31.2286,-159.928,0.2993,0.6941,-0.6479,-0.0941,0.0,0.0,0.0,0.0,0.0,0.0,0.0,0.0,0.0,0.0,0.0,0.0,1.0,0.0,0.0,0.0,0.0,0.0,0.0,0.0,0.0,0.0,0.0,0.0,0.0,1.0,0.0,0.0,0.0,0.0,0.0,0.0,0.0,0.0,0.0,0.0,0.0,0.0,1.0,0.0,0.0,0.0,0.0,0.0,0.0,0.0,0.0,0.0,0.0,0.0,0.0,1.0,0.0,0.0,0.0,0.0,0.0,0.0,0.0,0.0,0.0,0.0,0.0,0.0,1.0,0,0,0,0,0,0,0,0,0,0,0,0,0,0,0,0,0,0,0,0,0,0,0,0,0,0,0,0,0,0,0,0,0,0,0,0
1777291078.4198344,10630,1777291071.6505613,1777291071.7302942,,0,0,-79.73289489746094,,1,0,0.0,0.0,0.0,0.0,0.0,0.0,0.0,0.0,0.0,0.0,0.0,0.0,0.0,0.0,0.0,0.0,0.0,0.0,0.0,0.0,0.0,0.0,0.0,0.0,0.0,0.0,0.0,731.3165283203125,658.6680908203125,1115.20458984375,982.7489013671875,640.8089599609375,1111.755615234375,743.7647705078125,473.7442626953125,1150.5206298828125,902.5076904296875,444.81622314453125,1142.47021484375,658.591064453125,585.3543701171875,858.2197265625,706.7814331054688,646.6603393554688,600.617919921875,691.2445678710938,623.6677856445312,425.8282165527344,724.7172241210938,633.8975830078125,230.6168670654297,784.18017578125,536.4482421875,155.7268524169922,759.875244140625,805.1923828125,179.3303680419922,1028.0966796875,594.5078735351562,787.4080810546875,992.9197998046875,571.8828735351562,580.245849609375,1008.4833984375,474.7775573730469,491.3088684082031,969.5327758789062,322.52301025390625,343.2589111328125,909.2720947265625,231.69944763183594,359.3608093261719,929.6140747070312,401.04266357421875,165.07415771484375,0.0,0.0,0.0,0.0,0.0,0.0,0.0,0.0,0.0,0.0,0.0,0.0,1.0,5.0292,8.1826,-1.3877,0.061,-0.4272,-0.1831,99.6075,-31.2286,-159.928,0.2993,0.6941,-0.6479,-0.0941,0.0,0.0,0.0,0.0,0.0,0.0,0.0,0.0,0.0,0.0,0.0,0.0,1.0,0.0,0.0,0.0,0.0,0.0,0.0,0.0,0.0,0.0,0.0,0.0,0.0,1.0,0.0,0.0,0.0,0.0,0.0,0.0,0.0,0.0,0.0,0.0,0.0,0.0,1.0,0.0,0.0,0.0,0.0,0.0,0.0,0.0,0.0,0.0,0.0,0.0,0.0,1.0,0.0,0.0,0.0,0.0,0.0,0.0,0.0,0.0,0.0,0.0,0.0,0.0,1.0,0,0,0,0,0,0,0,0,0,0,0,0,0,0,0,0,0,0,0,0,0,0,0,0,0,0,0,0,0,0,0,0,0,0,0,0
1777291078.4198344,10631,1777291071.6580691,1777291071.7302942,,0,0,-72.22509384155273,,1,0,0.0,0.0,0.0,0.0,0.0,0.0,0.0,0.0,0.0,0.0,0.0,0.0,0.0,0.0,0.0,0.0,0.0,0.0,0.0,0.0,0.0,0.0,0.0,0.0,0.0,0.0,0.0,730.2993774414062,658.1661987304688,1115.651611328125,981.7681884765625,640.1807861328125,1112.2779541015625,742.7823486328125,473.3016052246094,1151.1436767578125,901.479248046875,444.2427062988281,1142.941650390625,657.3890991210938,583.2103881835938,858.31884765625,706.4838256835938,642.45361328125,600.2806396484375,691.6509399414062,618.1619873046875,425.6025695800781,725.4032592773438,626.8740234375,230.6124725341797,784.4822998046875,529.1538696289062,155.85702514648438,760.254638671875,797.99853515625,179.06918334960938,1027.564453125,598.2213134765625,788.9833374023438,993.1744995117188,581.5452270507812,583.1826782226562,1008.8494873046875,483.7913818359375,495.94964599609375,969.9745483398438,329.46527099609375,349.9676818847656,909.0289306640625,241.45095825195312,370.5270080566406,931.7763671875,403.4319152832031,165.94827270507812,0.0,0.0,0.0,0.0,0.0,0.0,0.0,0.0,0.0,0.0,0.0,0.0,1.0,5.0292,8.1826,-1.3877,0.061,-0.4272,-0.1831,99.6075,-31.2286,-159.928,0.2993,0.6941,-0.6479,-0.0941,0.0,0.0,0.0,0.0,0.0,0.0,0.0,0.0,0.0,0.0,0.0,0.0,1.0,0.0,0.0,0.0,0.0,0.0,0.0,0.0,0.0,0.0,0.0,0.0,0.0,1.0,0.0,0.0,0.0,0.0,0.0,0.0,0.0,0.0,0.0,0.0,0.0,0.0,1.0,0.0,0.0,0.0,0.0,0.0,0.0,0.0,0.0,0.0,0.0,0.0,0.0,1.0,0.0,0.0,0.0,0.0,0.0,0.0,0.0,0.0,0.0,0.0,0.0,0.0,1.0,0,0,0,0,0,0,0,0,0,0,0,0,0,0,0,0,0,0,0,0,0,0,0,0,0,0,0,0,0,0,0,0,0,0,0,0
1777291078.4198344,10632,1777291071.6675792,1777291071.7302942,,0,0,-62.71505355834961,,1,0,0.0,0.0,0.0,0.0,0.0,0.0,0.0,0.0,0.0,0.0,0.0,0.0,0.0,0.0,0.0,0.0,0.0,0.0,0.0,0.0,0.0,0.0,0.0,0.0,0.0,0.0,0.0,729.3453369140625,657.5227661132812,1116.09814453125,980.8462524414062,639.5059814453125,1112.8526611328125,741.8858642578125,472.7307434082031,1151.7974853515625,900.5496826171875,443.5990905761719,1143.5064697265625,656.296630859375,580.882080078125,858.4074096679688,706.23681640625,638.0866088867188,599.9779663085938,692.0133666992188,612.56005859375,425.44708251953125,725.994384765625,619.7926025390625,230.64340209960938,784.7551879882812,521.8118896484375,156.0089569091797,760.582763671875,790.739990234375,178.87181091308594,1027.0218505859375,601.769775390625,790.8222045898438,993.2337646484375,590.8484497070312,586.3417358398438,1008.9616088867188,492.6647033691406,500.5342712402344,970.08544921875,336.7142028808594,356.085693359375,908.20263671875,250.8357391357422,379.4473876953125,933.9949340820312,407.68560791015625,167.73074340820312,0.0,0.0,0.0,0.0,0.0,0.0,0.0,0.0,0.0,0.0,0.0,0.0,1.0,5.0292,8.1826,-1.3877,0.061,-0.4272,-0.1831,99.6075,-31.2286,-159.928,0.2993,0.6941,-0.6479,-0.0941,0.0,0.0,0.0,0.0,0.0,0.0,0.0,0.0,0.0,0.0,0.0,0.0,1.0,0.0,0.0,0.0,0.0,0.0,0.0,0.0,0.0,0.0,0.0,0.0,0.0,1.0,0.0,0.0,0.0,0.0,0.0,0.0,0.0,0.0,0.0,0.0,0.0,0.0,1.0,0.0,0.0,0.0,0.0,0.0,0.0,0.0,0.0,0.0,0.0,0.0,0.0,1.0,0.0,0.0,0.0,0.0,0.0,0.0,0.0,0.0,0.0,0.0,0.0,0.0,1.0,0,0,0,0,0,0,0,0,0,0,0,0,0,0,0,0,0,0,0,0,0,0,0,0,0,0,0,0,0,0,0,0,0,0,0,0
1777291078.4208403,10633,1777291071.6715848,1777291071.7302942,,0,0,-58.70938301086426,,1,0,0.0,0.0,0.0,0.0,0.0,0.0,0.0,0.0,0.0,0.0,0.0,0.0,0.0,0.0,0.0,0.0,0.0,0.0,0.0,0.0,0.0,0.0,0.0,0.0,0.0,0.0,0.0,728.448974609375,656.7490844726562,1116.5457763671875,979.9778442382812,638.7979125976562,1113.483642578125,741.0762939453125,472.0410461425781,1152.4783935546875,899.7201538085938,442.8930358886719,1144.1624755859375,655.3248291015625,578.4077758789062,858.50048828125,706.0355834960938,633.5994262695312,599.7210693359375,692.3123168945312,606.8961181640625,425.3766784667969,726.4778442382812,612.6560668945312,230.71780395507812,784.9984130859375,514.4131469726562,156.1806640625,760.8607177734375,783.406494140625,178.7438201904297,1026.472900390625,605.1578979492188,792.9231567382812,993.1015625,599.7279052734375,589.6651000976562,1008.8198852539062,501.3363037109375,504.9601135253906,969.8812255859375,344.25433349609375,361.44830322265625,906.8609008789062,259.6673278808594,385.8861999511719,936.2471923828125,413.9845886230469,170.3888702392578,0.0,0.0,0.0,0.0,0.0,0.0,0.0,0.0,0.0,0.0,0.0,0.0,1.0,5.0292,8.1826,-1.3877,0.061,-0.4272,-0.1831,99.6075,-31.2286,-159.928,0.2993,0.6941,-0.6479,-0.0941,0.0,0.0,0.0,0.0,0.0,0.0,0.0,0.0,0.0,0.0,0.0,0.0,1.0,0.0,0.0,0.0,0.0,0.0,0.0,0.0,0.0,0.0,0.0,0.0,0.0,1.0,0.0,0.0,0.0,0.0,0.0,0.0,0.0,0.0,0.0,0.0,0.0,0.0,1.0,0.0,0.0,0.0,0.0,0.0,0.0,0.0,0.0,0.0,0.0,0.0,0.0,1.0,0.0,0.0,0.0,0.0,0.0,0.0,0.0,0.0,0.0,0.0,0.0,0.0,1.0,0,0,0,0,0,0,0,0,0,0,0,0,0,0,0,0,0,0,0,0,0,0,0,0,0,0,0,0,0,0,0,0,0,0,0,0
1777291078.4208403,10634,1777291071.6856756,1777291071.7302942,,0,0,-44.61860656738281,,1,0,0.0,0.0,0.0,0.0,0.0,0.0,0.0,0.0,0.0,0.0,0.0,0.0,0.0,0.0,0.0,0.0,0.0,0.0,0.0,0.0,0.0,0.0,0.0,0.0,0.0,0.0,0.0,727.6044311523438,655.8579711914062,1116.9954833984375,979.1575317382812,638.0687866210938,1114.1719970703125,740.3536987304688,471.2435302734375,1153.182373046875,898.9904174804688,442.1325378417969,1144.9049072265625,654.480224609375,575.8229370117188,858.6106567382812,705.8765258789062,629.0221557617188,599.5164794921875,692.5457763671875,601.185302734375,425.3969421386719,726.8570556640625,605.4631958007812,230.83950805664062,785.2179565429688,506.95477294921875,156.36669921875,761.0957641601562,775.9932250976562,178.68467712402344,1025.9227294921875,608.3946533203125,795.2783813476562,992.7885131835938,608.1361694335938,593.0891723632812,1008.4339599609375,509.7662353515625,509.1221008300781,969.390380859375,352.0917053222656,365.9061584472656,905.1083374023438,267.9140930175781,389.76263427734375,938.5079345703125,422.3995361328125,173.776123046875,0.0,0.0,0.0,0.0,0.0,0.0,0.0,0.0,0.0,0.0,0.0,0.0,1.0,5.0292,8.1826,-1.3877,0.061,-0.4272,-0.1831,99.6075,-31.2286,-159.928,0.2993,0.6941,-0.6479,-0.0941,0.0,0.0,0.0,0.0,0.0,0.0,0.0,0.0,0.0,0.0,0.0,0.0,1.0,0.0,0.0,0.0,0.0,0.0,0.0,0.0,0.0,0.0,0.0,0.0,0.0,1.0,0.0,0.0,0.0,0.0,0.0,0.0,0.0,0.0,0.0,0.0,0.0,0.0,1.0,0.0,0.0,0.0,0.0,0.0,0.0,0.0,0.0,0.0,0.0,0.0,0.0,1.0,0.0,0.0,0.0,0.0,0.0,0.0,0.0,0.0,0.0,0.0,0.0,0.0,1.0,0,0,0,0,0,0,0,0,0,0,0,0,0,0,0,0,0,0,0,0,0,0,0,0,0,0,0,0,0,0,0,0,0,0,0,0
1777291078.4208403,10635,1777291071.6877568,1777291071.7302942,,0,0,-42.53745079040527,,1,0,0.0,0.0,0.0,0.0,0.0,0.0,0.0,0.0,0.0,0.0,0.0,0.0,0.0,0.0,0.0,0.0,0.0,0.0,0.0,0.0,0.0,0.0,0.0,0.0,0.0,0.0,0.0,726.8055419921875,654.8633422851562,1117.446533203125,978.38037109375,637.3295288085938,1114.9166259765625,739.7171630859375,470.35040283203125,1153.905029296875,898.35888671875,441.32586669921875,1145.727294921875,653.7646484375,573.1574096679688,858.7461547851562,705.757080078125,624.3746337890625,599.3656005859375,692.7254638671875,595.4266357421875,425.5044250488281,727.148193359375,598.2106323242188,231.00762939453125,785.4253540039062,499.4405517578125,156.5581512451172,761.2988891601562,768.5007934570312,178.68832397460938,1025.376953125,611.4898681640625,797.8729248046875,992.3103637695312,616.0411987304688,596.5477905273438,1007.8223266601562,517.9337768554688,512.9191284179688,968.65283203125,360.2490234375,369.3333435058594,903.0689697265625,275.68927001953125,391.1368103027344,940.7490844726562,432.8765869140625,177.6531982421875,0.0,0.0,0.0,0.0,0.0,0.0,0.0,0.0,0.0,0.0,0.0,0.0,1.0,5.0292,8.1826,-1.3877,0.061,-0.4272,-0.1831,99.6075,-31.2286,-159.928,0.2993,0.6941,-0.6479,-0.0941,0.0,0.0,0.0,0.0,0.0,0.0,0.0,0.0,0.0,0.0,0.0,0.0,1.0,0.0,0.0,0.0,0.0,0.0,0.0,0.0,0.0,0.0,0.0,0.0,0.0,1.0,0.0,0.0,0.0,0.0,0.0,0.0,0.0,0.0,0.0,0.0,0.0,0.0,1.0,0.0,0.0,0.0,0.0,0.0,0.0,0.0,0.0,0.0,0.0,0.0,0.0,1.0,0.0,0.0,0.0,0.0,0.0,0.0,0.0,0.0,0.0,0.0,0.0,0.0,1.0,0,0,0,0,0,0,0,0,0,0,0,0,0,0,0,0,0,0,0,0,0,0,0,0,0,0,0,0,0,0,0,0,0,0,0,0
1777291078.4208403,10636,1777291071.7112725,1777291071.7302942,,0,0,-19.02174949645996,,1,0,0.0,0.0,0.0,0.0,0.0,0.0,0.0,0.0,0.0,0.0,0.0,0.0,0.0,0.0,0.0,0.0,0.0,0.0,0.0,0.0,0.0,0.0,0.0,0.0,0.0,0.0,0.0,726.0468139648438,653.780029296875,1117.8961181640625,977.6421508789062,636.5894775390625,1115.7127685546875,739.1649780273438,469.37481689453125,1154.64111328125,897.8229370117188,440.48150634765625,1146.6212158203125,653.1759643554688,570.43359375,858.9102172851562,705.6747436523438,619.6679077148438,599.2647094726562,692.87109375,589.6094360351562,425.68768310546875,727.3751831054688,590.8951416015625,231.21701049804688,785.635498046875,491.880859375,156.74378967285156,761.4816284179688,760.9336547851562,178.74473571777344,1024.841552734375,614.4518432617188,800.684326171875,991.6864013671875,623.4243774414062,599.9750366210938,1007.0110473632812,525.8345947265625,516.2596435546875,967.7174682617188,368.7591857910156,371.634033203125,900.8688354492188,283.2107849121094,390.1756896972656,942.9412841796875,445.25213623046875,181.73008728027344,0.0,0.0,0.0,0.0,0.0,0.0,0.0,0.0,0.0,0.0,0.0,0.0,1.0,5.0292,8.1826,-1.3877,0.061,-0.4272,-0.1831,99.6075,-31.2286,-159.928,0.2993,0.6941,-0.6479,-0.0941,0.0,0.0,0.0,0.0,0.0,0.0,0.0,0.0,0.0,0.0,0.0,0.0,1.0,0.0,0.0,0.0,0.0,0.0,0.0,0.0,0.0,0.0,0.0,0.0,0.0,1.0,0.0,0.0,0.0,0.0,0.0,0.0,0.0,0.0,0.0,0.0,0.0,0.0,1.0,0.0,0.0,0.0,0.0,0.0,0.0,0.0,0.0,0.0,0.0,0.0,0.0,1.0,0.0,0.0,0.0,0.0,0.0,0.0,0.0,0.0,0.0,0.0,0.0,0.0,1.0,0,0,0,0,0,0,0,0,0,0,0,0,0,0,0,0,0,0,0,0,0,0,0,0,0,0,0,0,0,0,0,0,0,0,0,0
1777291078.4208403,10637,1777291071.71428,1777291071.7302942,,0,0,-16.01433753967285,,1,0,0.0,0.0,0.0,0.0,0.0,0.0,0.0,0.0,0.0,0.0,0.0,0.0,0.0,0.0,0.0,0.0,0.0,0.0,0.0,0.0,0.0,0.0,0.0,0.0,0.0,0.0,0.0,725.3234252929688,652.6231079101562,1118.3392333984375,976.939453125,635.8564453125,1116.5523681640625,738.6944580078125,468.3305969238281,1155.384521484375,897.3787231445312,439.60809326171875,1147.5760498046875,652.7086791992188,567.6659545898438,859.1006469726562,705.6262817382812,614.9061889648438,599.2060546875,693.0048217773438,583.7188110351562,425.9295349121094,727.5643310546875,583.514892578125,231.45932006835938,785.8638916015625,484.2909851074219,156.91207885742188,761.6541748046875,753.2991943359375,178.84193420410156,1024.3223876953125,617.2848510742188,803.6820678710938,990.9385986328125,630.2777099609375,603.3078002929688,1006.032470703125,533.47705078125,519.0667114257812,966.6395263671875,377.6591491699219,372.7463073730469,898.6235961914062,290.7481994628906,387.11077880859375,945.05517578125,459.2884826660156,185.71372985839844,0.0,0.0,0.0,0.0,0.0,0.0,0.0,0.0,0.0,0.0,0.0,0.0,1.0,5.0292,8.1826,-1.3877,0.061,-0.4272,-0.1831,99.6075,-31.2286,-159.928,0.2993,0.6941,-0.6479,-0.0941,0.0,0.0,0.0,0.0,0.0,0.0,0.0,0.0,0.0,0.0,0.0,0.0,1.0,0.0,0.0,0.0,0.0,0.0,0.0,0.0,0.0,0.0,0.0,0.0,0.0,1.0,0.0,0.0,0.0,0.0,0.0,0.0,0.0,0.0,0.0,0.0,0.0,0.0,1.0,0.0,0.0,0.0,0.0,0.0,0.0,0.0,0.0,0.0,0.0,0.0,0.0,1.0,0.0,0.0,0.0,0.0,0.0,0.0,0.0,0.0,0.0,0.0,0.0,0.0,1.0,0,0,0,0,0,0,0,0,0,0,0,0,0,0,0,0,0,0,0,0,0,0,0,0,0,0,0,0,0,0,0,0,0,0,0,0
1777291078.4208403,10638,1777291071.7274852,1777291071.7302942,,0,0,-2.8090476989746094,,1,0,0.0,0.0,0.0,0.0,0.0,0.0,0.0,0.0,0.0,0.0,0.0,0.0,0.0,0.0,0.0,0.0,0.0,0.0,0.0,0.0,0.0,0.0,0.0,0.0,0.0,0.0,0.0,724.631591796875,651.40771484375,1118.7686767578125,976.2702026367188,635.136962890625,1117.4237060546875,738.3025512695312,467.23187255859375,1156.1287841796875,897.0218505859375,438.7142639160156,1148.5799560546875,652.3549194335938,564.8615112304688,859.3107299804688,705.6075439453125,610.089599609375,599.178466796875,693.146240234375,577.7413940429688,426.20941162109375,727.7396240234375,576.0711669921875,231.72430419921875,786.1224975585938,476.6881103515625,157.05340576171875,761.8235473632812,745.6069946289062,178.9678192138672,1023.824462890625,619.98828125,806.8278198242188,990.0899658203125,636.601318359375,606.4881591796875,1004.9237060546875,540.8779296875,521.2816162109375,965.4771118164062,386.98492431640625,372.64385986328125,896.4326782226562,298.57354736328125,382.19866943359375,947.0618896484375,474.7159729003906,189.348388671875,0.0,0.0,0.0,0.0,0.0,0.0,0.0,0.0,0.0,0.0,0.0,0.0,1.0,5.0292,8.1826,-1.3877,0.061,-0.4272,-0.1831,99.6075,-31.2286,-159.928,0.2993,0.6941,-0.6479,-0.0941,0.0,0.0,0.0,0.0,0.0,0.0,0.0,0.0,0.0,0.0,0.0,0.0,1.0,0.0,0.0,0.0,0.0,0.0,0.0,0.0,0.0,0.0,0.0,0.0,0.0,1.0,0.0,0.0,0.0,0.0,0.0,0.0,0.0,0.0,0.0,0.0,0.0,0.0,1.0,0.0,0.0,0.0,0.0,0.0,0.0,0.0,0.0,0.0,0.0,0.0,0.0,1.0,0.0,0.0,0.0,0.0,0.0,0.0,0.0,0.0,0.0,0.0,0.0,0.0,1.0,0,0,0,0,0,0,0,0,0,0,0,0,0,0,0,0,0,0,0,0,0,0,0,0,0,0,0,0,0,0,0,0,0,0,0,0
1777291078.4213452,10639,1777291071.7312853,1777291071.7312853,,0,0,0.0,,1,0,0.0,0.0,0.0,0.0,0.0,0.0,0.0,0.0,0.0,0.0,0.0,0.0,0.0,0.0,0.0,0.0,0.0,0.0,0.0,0.0,0.0,0.0,0.0,0.0,0.0,0.0,0.0,723.968505859375,650.1485595703125,1119.1751708984375,975.6331176757812,634.436279296875,1118.312255859375,737.9857177734375,466.0927734375,1156.8668212890625,896.7471923828125,437.8088073730469,1149.6192626953125,652.1058959960938,562.020751953125,859.5303955078125,705.6129150390625,605.2163696289062,599.1688842773438,693.3092041015625,571.6689453125,426.5060119628906,727.91943359375,568.5684204101562,232.00100708007812,786.4163208007812,469.0857238769531,157.16204833984375,761.9931030273438,737.8679809570312,179.111572265625,1023.3523559570312,622.5556640625,810.0757446289062,989.1640014648438,642.4013671875,609.4645385742188,1003.7247314453125,548.0585327148438,522.8651123046875,964.2884521484375,396.7685546875,371.3348083496094,894.378173828125,306.9259338378906,375.69195556640625,948.93359375,491.27032470703125,192.44223022460938,0.0,0.0,0.0,0.0,0.0,0.0,0.0,0.0,0.0,0.0,0.0,0.0,1.0,5.0292,8.1826,-1.3829,0.2441,-0.4272,-0.1221,99.6075,-31.2286,-159.928,0.2993,0.6941,-0.6479,-0.0941,0.0,0.0,0.0,0.0,0.0,0.0,0.0,0.0,0.0,0.0,0.0,0.0,1.0,0.0,0.0,0.0,0.0,0.0,0.0,0.0,0.0,0.0,0.0,0.0,0.0,1.0,0.0,0.0,0.0,0.0,0.0,0.0,0.0,0.0,0.0,0.0,0.0,0.0,1.0,0.0,0.0,0.0,0.0,0.0,0.0,0.0,0.0,0.0,0.0,0.0,0.0,1.0,0.0,0.0,0.0,0.0,0.0,0.0,0.0,0.0,0.0,0.0,0.0,0.0,1.0,0,0,0,0,0,0,0,0,0,0,0,0,0,0,0,0,0,0,0,0,0,0,0,0,0,0,0,0,0,0,0,0,0,0,0,0
1777291078.4213452,10640,1777291071.7462108,1777291071.7312853,,0,0,14.925479888916016,,1,0,0.0,0.0,0.0,0.0,0.0,0.0,0.0,0.0,0.0,0.0,0.0,0.0,0.0,0.0,0.0,0.0,0.0,0.0,0.0,0.0,0.0,0.0,0.0,0.0,0.0,0.0,0.0,723.3324584960938,648.8597412109375,1119.5478515625,975.0279541015625,633.7587890625,1119.2003173828125,737.7401123046875,464.9271545410156,1157.591064453125,896.5494995117188,436.90045166015625,1150.6795654296875,651.9525146484375,559.1400756835938,859.7474365234375,705.6358032226562,600.2850341796875,599.1636352539062,693.5003662109375,565.5001220703125,426.7990417480469,728.115234375,561.0144653320312,232.27894592285156,786.7412719726562,461.48919677734375,157.23805236816406,762.162841796875,730.093994140625,179.26443481445312,1022.90966796875,624.9754028320312,813.3735961914062,988.1842041015625,647.6873779296875,612.1932983398438,1002.476806640625,555.0416870117188,523.7984008789062,963.1288452148438,407.0368957519531,368.8588562011719,892.52587890625,315.9930725097656,367.822998046875,950.6433715820312,508.7184753417969,194.87890625,0.0,0.0,0.0,0.0,0.0,0.0,0.0,0.0,0.0,0.0,0.0,0.0,1.0,5.0292,8.1826,-1.3829,0.2441,-0.4272,-0.1221,99.6075,-31.2286,-159.928,0.2993,0.6941,-0.6479,-0.0941,0.0,0.0,0.0,0.0,0.0,0.0,0.0,0.0,0.0,0.0,0.0,0.0,1.0,0.0,0.0,0.0,0.0,0.0,0.0,0.0,0.0,0.0,0.0,0.0,0.0,1.0,0.0,0.0,0.0,0.0,0.0,0.0,0.0,0.0,0.0,0.0,0.0,0.0,1.0,0.0,0.0,0.0,0.0,0.0,0.0,0.0,0.0,0.0,0.0,0.0,0.0,1.0,0.0,0.0,0.0,0.0,0.0,0.0,0.0,0.0,0.0,0.0,0.0,0.0,1.0,0,0,0,0,0,0,0,0,0,0,0,0,0,0,0,0,0,0,0,0,0,0,0,0,0,0,0,0,0,0,0,0,0,0,0,0
1777291078.4213452,10641,1777291071.7483604,1777291071.7312853,,0,0,17.075061798095703,,1,0,0.0,0.0,0.0,0.0,0.0,0.0,0.0,0.0,0.0,0.0,0.0,0.0,0.0,0.0,0.0,0.0,0.0,0.0,0.0,0.0,0.0,0.0,0.0,0.0,0.0,0.0,0.0,722.7224731445312,647.5543212890625,1119.875244140625,974.455078125,633.1083374023438,1120.06884765625,737.5620727539062,463.748291015625,1158.2938232421875,896.4235229492188,435.99798583984375,1151.74560546875,651.88623046875,556.2139892578125,859.9491577148438,705.669189453125,595.295654296875,599.149658203125,693.7202758789062,559.2406616210938,427.07122802734375,728.3318481445312,553.4191284179688,232.5491943359375,787.08447265625,453.8940124511719,157.28819274902344,762.3309936523438,722.2969970703125,179.41990661621094,1022.499755859375,627.2311401367188,816.6641235351562,987.1732788085938,652.4713745117188,614.6386108398438,1001.220703125,561.8497924804688,524.081298828125,962.0481567382812,417.8117370605469,365.2829284667969,890.9278564453125,325.90625,358.79913330078125,952.1650390625,526.872314453125,196.61643981933594,0.0,0.0,0.0,0.0,0.0,0.0,0.0,0.0,0.0,0.0,0.0,0.0,1.0,5.0292,8.1826,-1.3829,0.2441,-0.4272,-0.1221,99.6075,-31.2286,-159.928,0.2993,0.6941,-0.6479,-0.0941,0.0,0.0,0.0,0.0,0.0,0.0,0.0,0.0,0.0,0.0,0.0,0.0,1.0,0.0,0.0,0.0,0.0,0.0,0.0,0.0,0.0,0.0,0.0,0.0,0.0,1.0,0.0,0.0,0.0,0.0,0.0,0.0,0.0,0.0,0.0,0.0,0.0,0.0,1.0,0.0,0.0,0.0,0.0,0.0,0.0,0.0,0.0,0.0,0.0,0.0,0.0,1.0,0.0,0.0,0.0,0.0,0.0,0.0,0.0,0.0,0.0,0.0,0.0,0.0,1.0,0,0,0,0,0,0,0,0,0,0,0,0,0,0,0,0,0,0,0,0,0,0,0,0,0,0,0,0,0,0,0,0,0,0,0,0
1777291078.4213452,10642,1777291071.7629411,1777291071.7312853,,0,0,31.65578842163086,,1,0,0.0,0.0,0.0,0.0,0.0,0.0,0.0,0.0,0.0,0.0,0.0,0.0,0.0,0.0,0.0,0.0,0.0,0.0,0.0,0.0,0.0,0.0,0.0,0.0,0.0,0.0,0.0,722.13818359375,646.2443237304688,1120.1456298828125,973.9152221679688,632.4884643554688,1120.8974609375,737.4479370117188,462.5687255859375,1158.96728515625,896.3641357421875,435.110107421875,1152.8017578125,651.8994140625,553.23779296875,860.12353515625,705.7061767578125,590.2509765625,599.115478515625,693.9644165039062,552.9024658203125,427.30908203125,728.569091796875,545.7938232421875,232.80503845214844,787.4277954101562,446.2884521484375,157.3252410888672,762.4953002929688,714.488525390625,179.5734405517578,1022.1257934570312,629.3034057617188,819.8871459960938,986.1532592773438,656.766357421875,616.7726440429688,999.9954833984375,568.5045166015625,523.7301025390625,961.089111328125,429.1106262207031,360.6961975097656,889.6232299804688,336.74407958984375,348.804931640625,953.4728393554688,545.5911865234375,197.6773681640625,0.0,0.0,0.0,0.0,0.0,0.0,0.0,0.0,0.0,0.0,0.0,0.0,1.0,5.0292,8.1826,-1.3829,0.2441,-0.4272,-0.1221,99.6075,-31.2286,-159.928,0.2993,0.6941,-0.6479,-0.0941,0.0,0.0,0.0,0.0,0.0,0.0,0.0,0.0,0.0,0.0,0.0,0.0,1.0,0.0,0.0,0.0,0.0,0.0,0.0,0.0,0.0,0.0,0.0,0.0,0.0,1.0,0.0,0.0,0.0,0.0,0.0,0.0,0.0,0.0,0.0,0.0,0.0,0.0,1.0,0.0,0.0,0.0,0.0,0.0,0.0,0.0,0.0,0.0,0.0,0.0,0.0,1.0,0.0,0.0,0.0,0.0,0.0,0.0,0.0,0.0,0.0,0.0,0.0,0.0,1.0,0,0,0,0,0,0,0,0,0,0,0,0,0,0,0,0,0,0,0,0,0,0,0,0,0,0,0,0,0,0,0,0,0,0,0,0
1777291078.4213452,10643,1777291071.7807417,1777291071.7312853,,0,0,49.45635795593262,,1,0,0.0,0.0,0.0,0.0,0.0,0.0,0.0,0.0,0.0,0.0,0.0,0.0,0.0,0.0,0.0,0.0,0.0,0.0,0.0,0.0,0.0,0.0,0.0,0.0,0.0,0.0,0.0,721.5794677734375,644.9406127929688,1120.3480224609375,973.4091186523438,631.9024658203125,1121.666259765625,737.394287109375,461.400146484375,1159.6036376953125,896.3666381835938,434.24542236328125,1153.8326416015625,651.9850463867188,550.20947265625,860.2601928710938,705.7412109375,585.15673828125,599.0518798828125,694.2260131835938,546.5015869140625,427.5038757324219,728.82373046875,538.14990234375,233.04237365722656,787.7529907226562,438.65948486328125,157.36456298828125,762.654541015625,706.6788940429688,179.72152709960938,1021.7911987304688,631.170654296875,822.981689453125,985.1451416015625,660.5862426757812,618.5750122070312,998.837646484375,575.02685546875,522.7747192382812,960.2857055664062,440.94732666015625,355.2052917480469,888.6385498046875,348.54058837890625,338.0076599121094,954.541748046875,564.777099609375,198.13490295410156,0.0,0.0,0.0,0.0,0.0,0.0,0.0,0.0,0.0,0.0,0.0,0.0,1.0,5.0292,8.1826,-1.3829,0.2441,-0.4272,-0.1221,99.6075,-31.2286,-159.928,0.2993,0.6941,-0.6479,-0.0941,0.0,0.0,0.0,0.0,0.0,0.0,0.0,0.0,0.0,0.0,0.0,0.0,1.0,0.0,0.0,0.0,0.0,0.0,0.0,0.0,0.0,0.0,0.0,0.0,0.0,1.0,0.0,0.0,0.0,0.0,0.0,0.0,0.0,0.0,0.0,0.0,0.0,0.0,1.0,0.0,0.0,0.0,0.0,0.0,0.0,0.0,0.0,0.0,0.0,0.0,0.0,1.0,0.0,0.0,0.0,0.0,0.0,0.0,0.0,0.0,0.0,0.0,0.0,0.0,1.0,0,0,0,0,0,0,0,0,0,0,0,0,0,0,0,0,0,0,0,0,0,0,0,0,0,0,0,0,0,0,0,0,0,0,0,0
1777291078.4213452,10644,1777291071.7830267,1777291071.7312853,,0,0,51.74136161804199,,1,0,0.0,0.0,0.0,0.0,0.0,0.0,0.0,0.0,0.0,0.0,0.0,0.0,0.0,0.0,0.0,0.0,0.0,0.0,0.0,0.0,0.0,0.0,0.0,0.0,0.0,0.0,0.0,721.04638671875,643.6529541015625,1120.4725341796875,972.9373779296875,631.3538818359375,1122.3564453125,737.3980102539062,460.2532653808594,1160.1954345703125,896.4267578125,433.4124755859375,1154.8231201171875,652.1365356445312,547.1315307617188,860.35107421875,705.7703247070312,580.0219116210938,598.9523315429688,694.49755859375,540.0568237304688,427.6513977050781,729.0919189453125,530.4981079101562,233.25970458984375,788.0477294921875,430.99835205078125,157.41946411132812,762.8086547851562,698.876708984375,179.86065673828125,1021.4998779296875,632.8114624023438,825.8885498046875,984.1685791015625,663.9456176757812,620.0317993164062,997.7808837890625,581.4378051757812,521.255615234375,959.6627197265625,453.3323059082031,348.9301452636719,887.9873046875,361.2952880859375,326.5621643066406,955.3499145507812,584.364501953125,198.09860229492188,0.0,0.0,0.0,0.0,0.0,0.0,0.0,0.0,0.0,0.0,0.0,0.0,1.0,5.0292,8.1826,-1.3829,0.2441,-0.4272,-0.1221,99.6075,-31.2286,-159.928,0.2993,0.6941,-0.6479,-0.0941,0.0,0.0,0.0,0.0,0.0,0.0,0.0,0.0,0.0,0.0,0.0,0.0,1.0,0.0,0.0,0.0,0.0,0.0,0.0,0.0,0.0,0.0,0.0,0.0,0.0,1.0,0.0,0.0,0.0,0.0,0.0,0.0,0.0,0.0,0.0,0.0,0.0,0.0,1.0,0.0,0.0,0.0,0.0,0.0,0.0,0.0,0.0,0.0,0.0,0.0,0.0,1.0,0.0,0.0,0.0,0.0,0.0,0.0,0.0,0.0,0.0,0.0,0.0,0.0,1.0,0,0,0,0,0,0,0,0,0,0,0,0,0,0,0,0,0,0,0,0,0,0,0,0,0,0,0,0,0,0,0,0,0,0,0,0
1777291078.4213452,10645,1777291071.7981293,1777291071.7312853,,0,0,66.84398651123047,,1,0,0.0,0.0,0.0,0.0,0.0,0.0,0.0,0.0,0.0,0.0,0.0,0.0,0.0,0.0,0.0,0.0,0.0,0.0,0.0,0.0,0.0,0.0,0.0,0.0,0.0,0.0,0.0,720.5388793945312,642.3898315429688,1120.5111083984375,972.500244140625,630.8463134765625,1122.950927734375,737.4563598632812,459.1379089355469,1160.7353515625,896.5408325195312,432.61962890625,1155.7586669921875,652.3472290039062,544.011962890625,860.3904418945312,705.7918701171875,574.8584594726562,598.8129272460938,694.7732543945312,533.587646484375,427.75189208984375,729.3704833984375,522.8475952148438,233.45790100097656,788.308349609375,423.303466796875,157.49868774414062,762.9589233398438,691.089111328125,179.98641967773438,1021.2568359375,634.205810546875,828.5528564453125,983.2418212890625,666.8601684570312,621.135009765625,996.85498046875,587.7595825195312,519.2213745117188,959.2351684570312,466.2719421386719,342.0007019042969,887.6688842773438,374.982666015625,314.61492919921875,955.8807373046875,604.3087158203125,197.70071411132812,0.0,0.0,0.0,0.0,0.0,0.0,0.0,0.0,0.0,0.0,0.0,0.0,1.0,5.0292,8.1826,-1.3829,0.2441,-0.4272,-0.1221,99.6075,-31.2286,-159.928,0.2993,0.6941,-0.6479,-0.0941,0.0,0.0,0.0,0.0,0.0,0.0,0.0,0.0,0.0,0.0,0.0,0.0,1.0,0.0,0.0,0.0,0.0,0.0,0.0,0.0,0.0,0.0,0.0,0.0,0.0,1.0,0.0,0.0,0.0,0.0,0.0,0.0,0.0,0.0,0.0,0.0,0.0,0.0,1.0,0.0,0.0,0.0,0.0,0.0,0.0,0.0,0.0,0.0,0.0,0.0,0.0,1.0,0.0,0.0,0.0,0.0,0.0,0.0,0.0,0.0,0.0,0.0,0.0,0.0,1.0,0,0,0,0,0,0,0,0,0,0,0,0,0,0,0,0,0,0,0,0,0,0,0,0,0,0,0,0,0,0,0,0,0,0,0,0
1777291078.4213452,10646,1777291071.8040226,1777291071.7312853,,0,0,72.73721694946289,,1,0,0.0,0.0,0.0,0.0,0.0,0.0,0.0,0.0,0.0,0.0,0.0,0.0,0.0,0.0,0.0,0.0,0.0,0.0,0.0,0.0,0.0,0.0,0.0,0.0,0.0,0.0,0.0,720.0569458007812,641.158935546875,1120.4580078125,972.0975952148438,630.3838500976562,1123.4354248046875,737.56689453125,458.0630187988281,1161.2164306640625,896.7057495117188,431.8749694824219,1156.625732421875,652.6104736328125,540.864501953125,860.3749389648438,705.8065795898438,569.6814575195312,598.6322631835938,695.0491333007812,527.1130981445312,427.8091735839844,729.6578369140625,515.2059936523438,233.63966369628906,788.5396118164062,415.5804443359375,157.60610961914062,763.1077880859375,683.3216552734375,180.09303283691406,1021.068115234375,635.3372192382812,830.9260864257812,982.3814697265625,669.346923828125,621.8815307617188,996.0851440429688,594.0151977539062,516.7267456054688,959.0093383789062,479.76715087890625,334.5547790527344,887.6686401367188,389.5601806640625,302.30633544921875,956.1239013671875,624.57373046875,197.08428955078125,0.0,0.0,0.0,0.0,0.0,0.0,0.0,0.0,0.0,0.0,0.0,0.0,1.0,5.0292,8.1826,-1.3829,0.2441,-0.4272,-0.1221,99.6075,-31.2286,-159.928,0.2993,0.6941,-0.6479,-0.0941,0.0,0.0,0.0,0.0,0.0,0.0,0.0,0.0,0.0,0.0,0.0,0.0,1.0,0.0,0.0,0.0,0.0,0.0,0.0,0.0,0.0,0.0,0.0,0.0,0.0,1.0,0.0,0.0,0.0,0.0,0.0,0.0,0.0,0.0,0.0,0.0,0.0,0.0,1.0,0.0,0.0,0.0,0.0,0.0,0.0,0.0,0.0,0.0,0.0,0.0,0.0,1.0,0.0,0.0,0.0,0.0,0.0,0.0,0.0,0.0,0.0,0.0,0.0,0.0,1.0,0,0,0,0,0,0,0,0,0,0,0,0,0,0,0,0,0,0,0,0,0,0,0,0,0,0,0,0,0,0,0,0,0,0,0,0
1777291078.4213452,10647,1777291071.8197007,1777291071.8190758,,0,0,0.6248950958251953,,1,0,0.0,0.0,0.0,0.0,0.0,0.0,0.0,0.0,0.0,0.0,0.0,0.0,0.0,0.0,0.0,0.0,0.0,0.0,0.0,0.0,0.0,0.0,0.0,0.0,0.0,0.0,0.0,719.6002807617188,639.96728515625,1120.3092041015625,971.7286376953125,629.9705810546875,1123.7991943359375,737.7274780273438,457.036865234375,1161.6318359375,896.9188842773438,431.1865539550781,1157.4117431640625,652.9189453125,537.7080078125,860.3031005859375,705.8173828125,564.5084838867188,598.4111328125,695.3238525390625,520.6513061523438,427.83001708984375,729.95361328125,507.5790100097656,233.80917358398438,788.7527465820312,407.8400573730469,157.7415771484375,763.2587280273438,675.5787963867188,180.17356872558594,1020.9407958984375,636.1937866210938,832.968505859375,981.602294921875,671.4247436523438,622.2726440429688,995.4906616210938,600.2283935546875,513.8309326171875,958.98291015625,493.81121826171875,326.736083984375,887.95849609375,404.97296142578125,289.7724304199219,956.0747680664062,645.120849609375,196.39390563964844,0.0,0.0,0.0,0.0,0.0,0.0,0.0,0.0,0.0,0.0,0.0,0.0,1.0,5.0292,8.1778,-1.3829,0.1831,-0.3662,-0.1221,99.6075,-31.2286,-159.928,0.2993,0.6941,-0.6479,-0.0941,0.0,0.0,0.0,0.0,0.0,0.0,0.0,0.0,0.0,0.0,0.0,0.0,1.0,0.0,0.0,0.0,0.0,0.0,0.0,0.0,0.0,0.0,0.0,0.0,0.0,1.0,0.0,0.0,0.0,0.0,0.0,0.0,0.0,0.0,0.0,0.0,0.0,0.0,1.0,0.0,0.0,0.0,0.0,0.0,0.0,0.0,0.0,0.0,0.0,0.0,0.0,1.0,0.0,0.0,0.0,0.0,0.0,0.0,0.0,0.0,0.0,0.0,0.0,0.0,1.0,0,0,0,0,0,0,0,0,0,0,0,0,0,0,0,0,0,0,0,0,0,0,0,0,0,0,0,0,0,0,0,0,0,0,0,0
1777291078.4213452,10670,1777291072.0482738,1777291071.8190758,,1,22,229.19797897338867,,1,0,0.0,0.0,0.0,0.0,0.0,0.0,0.0,0.0,0.0,0.0,0.0,0.0,0.0,0.0,0.0,0.0,0.0,0.0,0.0,0.0,0.0,0.0,0.0,0.0,0.0,0.0,0.0,717.6463012695312,635.8423461914062,1101.8076171875,970.1808471679688,649.6309204101562,1107.1688232421875,755.772705078125,457.730224609375,1146.958984375,916.710205078125,445.5694885253906,1145.5228271484375,664.5147705078125,506.1482849121094,843.9652099609375,720.3577270507812,488.189208984375,585.5447387695312,711.028564453125,403.9910888671875,431.727294921875,741.8703002929688,342.3515930175781,245.62661743164062,795.9039916992188,232.73611450195312,171.06509399414062,768.1715087890625,501.3169860839844,175.94635009765625,1032.1356201171875,636.503173828125,808.7129516601562,981.893798828125,663.0517578125,574.9244995117188,995.5681762695312,687.5711059570312,439.9773254394531,953.8477783203125,735.8641357421875,228.11758422851562,895.7939453125,679.9302368164062,152.57969665527344,906.5738525390625,933.618896484375,228.5209197998047,0.0,0.0,0.0,0.0,0.0,0.0,0.0,0.0,0.0,0.0,0.0,0.0,1.0,5.0292,8.1778,-1.3829,0.1831,-0.3662,-0.1221,99.6075,-31.2286,-159.928,0.2993,0.6941,-0.6479,-0.0941,0.0,0.0,0.0,0.0,0.0,0.0,0.0,0.0,0.0,0.0,0.0,0.0,1.0,0.0,0.0,0.0,0.0,0.0,0.0,0.0,0.0,0.0,0.0,0.0,0.0,1.0,0.0,0.0,0.0,0.0,0.0,0.0,0.0,0.0,0.0,0.0,0.0,0.0,1.0,0.0,0.0,0.0,0.0,0.0,0.0,0.0,0.0,0.0,0.0,0.0,0.0,1.0,0.0,0.0,0.0,0.0,0.0,0.0,0.0,0.0,0.0,0.0,0.0,0.0,1.0,0,0,0,0,0,0,0,0,0,0,0,0,0,0,0,0,0,0,0,0,0,0,0,0,0,0,0,0,0,0,0,0,0,0,0,0
1777291078.4213452,10671,1777291072.0618737,1777291071.8190758,,0,0,242.7978515625,,1,0,0.0,0.0,0.0,0.0,0.0,0.0,0.0,0.0,0.0,0.0,0.0,0.0,0.0,0.0,0.0,0.0,0.0,0.0,0.0,0.0,0.0,0.0,0.0,0.0,0.0,0.0,0.0,718.1426391601562,636.8680419921875,1101.1905517578125,970.4952392578125,652.250244140625,1106.345703125,757.358154296875,458.7996520996094,1145.68115234375,918.4003295898438,447.67572021484375,1144.429443359375,665.3807983398438,507.2409362792969,842.7990112304688,721.6124877929688,488.8377685546875,584.5593872070312,712.2920532226562,401.4084167480469,432.49774169921875,742.8317260742188,336.22784423828125,247.43475341796875,796.5181884765625,225.61973571777344,173.6387481689453,768.371337890625,493.9474792480469,175.75338745117188,1032.0162353515625,638.7249145507812,807.0933227539062,981.9549560546875,663.2457885742188,572.8800659179688,995.0257568359375,686.6102294921875,437.77685546875,952.9371337890625,732.5889892578125,226.02781677246094,894.5087890625,674.968505859375,153.5253143310547,907.1837768554688,930.2119140625,222.94593811035156,0.0,0.0,0.0,0.0,0.0,0.0,0.0,0.0,0.0,0.0,0.0,0.0,1.0,5.0292,8.1778,-1.3829,0.1831,-0.3662,-0.1221,99.6075,-31.2286,-159.928,0.2993,0.6941,-0.6479,-0.0941,0.0,0.0,0.0,0.0,0.0,0.0,0.0,0.0,0.0,0.0,0.0,0.0,1.0,0.0,0.0,0.0,0.0,0.0,0.0,0.0,0.0,0.0,0.0,0.0,0.0,1.0,0.0,0.0,0.0,0.0,0.0,0.0,0.0,0.0,0.0,0.0,0.0,0.0,1.0,0.0,0.0,0.0,0.0,0.0,0.0,0.0,0.0,0.0,0.0,0.0,0.0,1.0,0.0,0.0,0.0,0.0,0.0,0.0,0.0,0.0,0.0,0.0,0.0,0.0,1.0,0,0,0,0,0,0,0,0,0,0,0,0,0,0,0,0,0,0,0,0,0,0,0,0,0,0,0,0,0,0,0,0,0,0,0,0
1777291078.4213452,10672,1777291072.0641637,1777291071.8190758,,0,0,245.0878620147705,,1,0,0.0,0.0,0.0,0.0,0.0,0.0,0.0,0.0,0.0,0.0,0.0,0.0,0.0,0.0,0.0,0.0,0.0,0.0,0.0,0.0,0.0,0.0,0.0,0.0,0.0,0.0,0.0,718.711669921875,637.9254760742188,1100.6785888671875,970.8631591796875,654.9494018554688,1105.6361083984375,759.0054931640625,459.88311767578125,1144.4598388671875,920.148193359375,449.83251953125,1143.4268798828125,666.305419921875,508.59930419921875,841.6630859375,722.74658203125,490.2458190917969,583.5546875,713.4321899414062,399.3855895996094,433.4506530761719,743.6884765625,330.4366760253906,249.58226013183594,797.1414184570312,218.6369171142578,176.78582763671875,768.5473022460938,486.6029357910156,175.5913543701172,1031.79443359375,641.1065673828125,805.6524658203125,982.0489501953125,663.7108764648438,571.1236572265625,994.635986328125,685.6533813476562,435.8428955078125,952.272705078125,728.7054443359375,224.0863037109375,893.6281127929688,669.1116943359375,154.66046142578125,907.57421875,926.153076171875,216.6691436767578,0.0,0.0,0.0,0.0,0.0,0.0,0.0,0.0,0.0,0.0,0.0,0.0,1.0,5.0292,8.1778,-1.3829,0.1831,-0.3662,-0.1221,99.6075,-31.2286,-159.928,0.2993,0.6941,-0.6479,-0.0941,0.0,0.0,0.0,0.0,0.0,0.0,0.0,0.0,0.0,0.0,0.0,0.0,1.0,0.0,0.0,0.0,0.0,0.0,0.0,0.0,0.0,0.0,0.0,0.0,0.0,1.0,0.0,0.0,0.0,0.0,0.0,0.0,0.0,0.0,0.0,0.0,0.0,0.0,1.0,0.0,0.0,0.0,0.0,0.0,0.0,0.0,0.0,0.0,0.0,0.0,0.0,1.0,0.0,0.0,0.0,0.0,0.0,0.0,0.0,0.0,0.0,0.0,0.0,0.0,1.0,0,0,0,0,0,0,0,0,0,0,0,0,0,0,0,0,0,0,0,0,0,0,0,0,0,0,0,0,0,0,0,0,0,0,0,0
1777291078.4213452,10673,1777291072.0792158,1777291071.8190758,,0,0,260.13994216918945,,1,0,0.0,0.0,0.0,0.0,0.0,0.0,0.0,0.0,0.0,0.0,0.0,0.0,0.0,0.0,0.0,0.0,0.0,0.0,0.0,0.0,0.0,0.0,0.0,0.0,0.0,0.0,0.0,719.35302734375,638.991455078125,1100.2830810546875,971.2852783203125,657.6981201171875,1105.0604248046875,760.708251953125,460.9617919921875,1143.314453125,921.9456176757812,452.0179443359375,1142.5328369140625,667.2840576171875,510.2466125488281,840.5763549804688,723.7109985351562,492.4879455566406,582.5521850585938,714.3970947265625,398.0257873535156,434.6309814453125,744.3901977539062,325.0731506347656,252.12435913085938,797.7857055664062,211.8285675048828,180.57479858398438,768.688232421875,479.2913513183594,175.470947265625,1031.498291015625,643.5985107421875,804.4207763671875,982.1868896484375,664.4273681640625,569.6883544921875,994.4317626953125,684.7755126953125,434.2279357910156,951.8665771484375,724.409912109375,222.36537170410156,893.1560668945312,662.657958984375,155.91392517089844,907.633544921875,921.59521484375,210.09059143066406,0.0,0.0,0.0,0.0,0.0,0.0,0.0,0.0,0.0,0.0,0.0,0.0,1.0,5.0292,8.1778,-1.3829,0.1831,-0.3662,-0.1221,99.6075,-31.2286,-159.928,0.2993,0.6941,-0.6479,-0.0941,0.0,0.0,0.0,0.0,0.0,0.0,0.0,0.0,0.0,0.0,0.0,0.0,1.0,0.0,0.0,0.0,0.0,0.0,0.0,0.0,0.0,0.0,0.0,0.0,0.0,1.0,0.0,0.0,0.0,0.0,0.0,0.0,0.0,0.0,0.0,0.0,0.0,0.0,1.0,0.0,0.0,0.0,0.0,0.0,0.0,0.0,0.0,0.0,0.0,0.0,0.0,1.0,0.0,0.0,0.0,0.0,0.0,0.0,0.0,0.0,0.0,0.0,0.0,0.0,1.0,0,0,0,0,0,0,0,0,0,0,0,0,0,0,0,0,0,0,0,0,0,0,0,0,0,0,0,0,0,0,0,0,0,0,0,0
1777291078.4213452,10674,1777291072.0815978,1777291071.8190758,,0,0,262.52198219299316,,1,0,0.0,0.0,0.0,0.0,0.0,0.0,0.0,0.0,0.0,0.0,0.0,0.0,0.0,0.0,0.0,0.0,0.0,0.0,0.0,0.0,0.0,0.0,0.0,0.0,0.0,0.0,0.0,720.0645141601562,640.041748046875,1100.0147705078125,971.7603759765625,660.464111328125,1104.637939453125,762.4594116210938,462.0166015625,1142.26318359375,923.78369140625,454.209228515625,1141.762939453125,668.3084716796875,512.2049560546875,839.560302734375,724.4562377929688,495.6242980957031,581.5804443359375,715.1365966796875,397.430908203125,436.0870361328125,744.8885498046875,320.2445373535156,255.1156768798828,798.4712524414062,205.26077270507812,185.08360290527344,768.7783203125,472.0305480957031,175.3944549560547,1031.1617431640625,646.1494140625,803.423828125,982.3745727539062,665.3560180664062,568.59375,994.4302978515625,684.0166015625,432.9686279296875,951.7113647460938,719.8482055664062,220.92117309570312,893.053466796875,655.8461303710938,157.20880126953125,907.3406982421875,916.629638671875,203.6202392578125,0.0,0.0,0.0,0.0,0.0,0.0,0.0,0.0,0.0,0.0,0.0,0.0,1.0,5.0292,8.1778,-1.3829,0.1831,-0.3662,-0.1221,99.6075,-31.2286,-159.928,0.2993,0.6941,-0.6479,-0.0941,0.0,0.0,0.0,0.0,0.0,0.0,0.0,0.0,0.0,0.0,0.0,0.0,1.0,0.0,0.0,0.0,0.0,0.0,0.0,0.0,0.0,0.0,0.0,0.0,0.0,1.0,0.0,0.0,0.0,0.0,0.0,0.0,0.0,0.0,0.0,0.0,0.0,0.0,1.0,0.0,0.0,0.0,0.0,0.0,0.0,0.0,0.0,0.0,0.0,0.0,0.0,1.0,0.0,0.0,0.0,0.0,0.0,0.0,0.0,0.0,0.0,0.0,0.0,0.0,1.0,0,0,0,0,0,0,0,0,0,0,0,0,0,0,0,0,0,0,0,0,0,0,0,0,0,0,0,0,0,0,0,0,0,0,0,0
1777291078.4213452,10675,1777291072.1004572,1777291072.0994756,,0,0,0.9815692901611328,,1,0,0.0,0.0,0.0,0.0,0.0,0.0,0.0,0.0,0.0,0.0,0.0,0.0,0.0,0.0,0.0,0.0,0.0,0.0,0.0,0.0,0.0,0.0,0.0,0.0,0.0,0.0,0.0,720.8416137695312,641.0517578125,1099.8822021484375,972.2855834960938,663.21435546875,1104.385986328125,764.2516479492188,463.02862548828125,1141.322509765625,925.6531982421875,456.3835144042969,1141.1290283203125,669.3665771484375,514.4928588867188,838.6389770507812,724.9346313476562,499.6951599121094,580.6746826171875,715.6053466796875,397.6950988769531,437.8677673339844,745.14013671875,316.06573486328125,258.60662841796875,799.2210693359375,199.03526306152344,190.40968322753906,768.7964477539062,464.8508605957031,175.35006713867188,1030.821533203125,648.7072143554688,802.6790771484375,982.611572265625,666.4376220703125,567.8426513671875,994.6295776367188,683.3755493164062,432.0806579589844,951.7826538085938,715.1115112304688,219.78866577148438,893.2540283203125,648.8468017578125,158.47030639648438,906.755615234375,911.295166015625,197.63082885742188,0.0,0.0,0.0,0.0,0.0,0.0,0.0,0.0,0.0,0.0,0.0,0.0,1.0,5.034,8.1826,-1.3877,0.1831,-0.3662,-0.1221,99.6075,-31.2286,-159.928,0.2993,0.6941,-0.6479,-0.0941,0.0,0.0,0.0,0.0,0.0,0.0,0.0,0.0,0.0,0.0,0.0,0.0,1.0,0.0,0.0,0.0,0.0,0.0,0.0,0.0,0.0,0.0,0.0,0.0,0.0,1.0,0.0,0.0,0.0,0.0,0.0,0.0,0.0,0.0,0.0,0.0,0.0,0.0,1.0,0.0,0.0,0.0,0.0,0.0,0.0,0.0,0.0,0.0,0.0,0.0,0.0,1.0,0.0,0.0,0.0,0.0,0.0,0.0,0.0,0.0,0.0,0.0,0.0,0.0,1.0,0,0,0,0,0,0,0,0,0,0,0,0,0,0,0,0,0,0,0,0,0,0,0,0,0,0,0,0,0,0,0,0,0,0,0,0
1777291078.4213452,10676,1777291072.1014812,1777291072.0994756,,0,0,2.0055770874023438,,1,0,0.0,0.0,0.0,0.0,0.0,0.0,0.0,0.0,0.0,0.0,0.0,0.0,0.0,0.0,0.0,0.0,0.0,0.0,0.0,0.0,0.0,0.0,0.0,0.0,0.0,0.0,0.0,721.677734375,641.99755859375,1099.8922119140625,972.85595703125,665.9166259765625,1104.318359375,766.07763671875,463.9798278808594,1140.5064697265625,927.5448608398438,458.5184631347656,1140.6396484375,670.4417114257812,517.1232299804688,837.8388671875,725.103271484375,504.7160339355469,579.8759155273438,715.765625,398.8979187011719,440.0187683105469,745.110107421875,312.6531066894531,262.6394958496094,800.0533447265625,193.29832458496094,196.6778106689453,768.71630859375,457.7969970703125,175.3089599609375,1030.5147705078125,651.220703125,802.1924438476562,982.8912353515625,667.5933227539062,567.41943359375,995.00732421875,682.810546875,431.5560302734375,952.0416259765625,710.2423706054688,218.97991943359375,893.678955078125,641.7674560546875,159.6351318359375,905.98876953125,905.6002807617188,192.41302490234375,0.0,0.0,0.0,0.0,0.0,0.0,0.0,0.0,0.0,0.0,0.0,0.0,1.0,5.034,8.1826,-1.3877,0.1831,-0.3662,-0.1221,99.6075,-31.2286,-159.928,0.2993,0.6941,-0.6479,-0.0941,0.0,0.0,0.0,0.0,0.0,0.0,0.0,0.0,0.0,0.0,0.0,0.0,1.0,0.0,0.0,0.0,0.0,0.0,0.0,0.0,0.0,0.0,0.0,0.0,0.0,1.0,0.0,0.0,0.0,0.0,0.0,0.0,0.0,0.0,0.0,0.0,0.0,0.0,1.0,0.0,0.0,0.0,0.0,0.0,0.0,0.0,0.0,0.0,0.0,0.0,0.0,1.0,0.0,0.0,0.0,0.0,0.0,0.0,0.0,0.0,0.0,0.0,0.0,0.0,1.0,0,0,0,0,0,0,0,0,0,0,0,0,0,0,0,0,0,0,0,0,0,0,0,0,0,0,0,0,0,0,0,0,0,0,0,0
1777291078.4213452,10677,1777291072.1148612,1777291072.0994756,,0,0,15.385627746582031,,1,0,0.0,0.0,0.0,0.0,0.0,0.0,0.0,0.0,0.0,0.0,0.0,0.0,0.0,0.0,0.0,0.0,0.0,0.0,0.0,0.0,0.0,0.0,0.0,0.0,0.0,0.0,0.0,722.5639038085938,642.8563842773438,1100.0484619140625,973.4645385742188,668.5402221679688,1104.4442138671875,767.9303588867188,464.8534851074219,1139.8260498046875,929.4495849609375,460.5929260253906,1140.29931640625,671.5128173828125,520.10107421875,837.1884155273438,724.9270629882812,510.67425537109375,579.2293701171875,715.5906982421875,401.0973205566406,442.57830810546875,744.7755737304688,310.1163330078125,267.244873046875,800.9730834960938,188.2461700439453,204.0425567626953,768.5075073242188,450.9278869628906,175.22683715820312,1030.276123046875,653.6400146484375,801.956298828125,983.2017822265625,668.7285766601562,567.2907104492188,995.5230102539062,682.2454223632812,431.3634033203125,952.4385375976562,705.2484130859375,218.48507690429688,894.248046875,634.6676025390625,160.6601104736328,905.1641235351562,899.5504150390625,188.14154052734375,0.0,0.0,0.0,0.0,0.0,0.0,0.0,0.0,0.0,0.0,0.0,0.0,1.0,5.034,8.1826,-1.3877,0.1831,-0.3662,-0.1221,99.6075,-31.2286,-159.928,0.2993,0.6941,-0.6479,-0.0941,0.0,0.0,0.0,0.0,0.0,0.0,0.0,0.0,0.0,0.0,0.0,0.0,1.0,0.0,0.0,0.0,0.0,0.0,0.0,0.0,0.0,0.0,0.0,0.0,0.0,1.0,0.0,0.0,0.0,0.0,0.0,0.0,0.0,0.0,0.0,0.0,0.0,0.0,1.0,0.0,0.0,0.0,0.0,0.0,0.0,0.0,0.0,0.0,0.0,0.0,0.0,1.0,0.0,0.0,0.0,0.0,0.0,0.0,0.0,0.0,0.0,0.0,0.0,0.0,1.0,0,0,0,0,0,0,0,0,0,0,0,0,0,0,0,0,0,0,0,0,0,0,0,0,0,0,0,0,0,0,0,0,0,0,0,0
1777291078.4213452,10679,1777291072.1330736,1777291072.0994756,,1,1,33.59794616699219,,1,0,0.0,0.0,0.0,0.0,0.0,0.0,0.0,0.0,0.0,0.0,0.0,0.0,0.0,0.0,0.0,0.0,0.0,0.0,0.0,0.0,0.0,0.0,0.0,0.0,0.0,0.0,0.0,724.4418334960938,644.234375,1100.79931640625,974.7605590820312,673.4437866210938,1105.2828369140625,771.6898193359375,466.3108215332031,1138.9002685546875,933.265380859375,464.48468017578125,1140.0650634765625,673.5361938476562,527.0731201171875,836.4542236328125,723.456298828125,525.2037353515625,578.5829467773438,714.1981811523438,408.57275390625,449.0166320800781,743.18408203125,308.0235290527344,278.2156982421875,802.991455078125,181.2133026123047,222.77679443359375,767.580810546875,438.0422058105469,174.72573852539062,1030.117919921875,658.0069580078125,802.1348266601562,983.8529663085938,670.5145874023438,567.7101440429688,996.7486572265625,680.7102661132812,431.7510681152344,953.4114990234375,694.8328247070312,218.30416870117188,895.532470703125,620.4976806640625,162.2371826171875,903.7312622070312,886.5017700195312,182.5130157470703,0.0,0.0,0.0,0.0,0.0,0.0,0.0,0.0,0.0,0.0,0.0,0.0,1.0,5.034,8.1826,-1.3877,0.1831,-0.3662,-0.1221,99.6075,-31.2286,-159.928,0.2993,0.6941,-0.6479,-0.0941,0.0,0.0,0.0,0.0,0.0,0.0,0.0,0.0,0.0,0.0,0.0,0.0,1.0,0.0,0.0,0.0,0.0,0.0,0.0,0.0,0.0,0.0,0.0,0.0,0.0,1.0,0.0,0.0,0.0,0.0,0.0,0.0,0.0,0.0,0.0,0.0,0.0,0.0,1.0,0.0,0.0,0.0,0.0,0.0,0.0,0.0,0.0,0.0,0.0,0.0,0.0,1.0,0.0,0.0,0.0,0.0,0.0,0.0,0.0,0.0,0.0,0.0,0.0,0.0,1.0,0,0,0,0,0,0,0,0,0,0,0,0,0,0,0,0,0,0,0,0,0,0,0,0,0,0,0,0,0,0,0,0,0,0,0,0
1777291078.4213452,10680,1777291072.1497967,1777291072.0994756,,0,0,50.321102142333984,,1,0,0.0,0.0,0.0,0.0,0.0,0.0,0.0,0.0,0.0,0.0,0.0,0.0,0.0,0.0,0.0,0.0,0.0,0.0,0.0,0.0,0.0,0.0,0.0,0.0,0.0,0.0,0.0,725.4078369140625,644.721923828125,1101.38525390625,975.4271850585938,675.6795043945312,1105.9820556640625,773.5844116210938,466.8717956542969,1138.659423828125,935.1616821289062,466.27001953125,1140.1614990234375,674.4262084960938,531.029541015625,836.427978515625,722.1542358398438,533.6050415039062,578.6753540039062,713.0020141601562,413.8064880371094,452.90447998046875,741.9722290039062,308.5762634277344,284.55426025390625,803.997314453125,179.81080627441406,234.47543334960938,766.8135375976562,432.19720458984375,174.21795654296875,1030.2396240234375,659.8670654296875,802.4677124023438,984.16064453125,670.955810546875,568.1326293945312,997.3425903320312,679.5315551757812,432.18756103515625,953.8643798828125,689.3770751953125,218.51809692382812,896.1339111328125,613.4356689453125,162.81173706054688,903.2269287109375,879.6168212890625,180.9416046142578,0.0,0.0,0.0,0.0,0.0,0.0,0.0,0.0,0.0,0.0,0.0,0.0,1.0,5.034,8.1826,-1.3877,0.1831,-0.3662,-0.1221,99.6075,-31.2286,-159.928,0.2993,0.6941,-0.6479,-0.0941,0.0,0.0,0.0,0.0,0.0,0.0,0.0,0.0,0.0,0.0,0.0,0.0,1.0,0.0,0.0,0.0,0.0,0.0,0.0,0.0,0.0,0.0,0.0,0.0,0.0,1.0,0.0,0.0,0.0,0.0,0.0,0.0,0.0,0.0,0.0,0.0,0.0,0.0,1.0,0.0,0.0,0.0,0.0,0.0,0.0,0.0,0.0,0.0,0.0,0.0,0.0,1.0,0.0,0.0,0.0,0.0,0.0,0.0,0.0,0.0,0.0,0.0,0.0,0.0,1.0,0,0,0,0,0,0,0,0,0,0,0,0,0,0,0,0,0,0,0,0,0,0,0,0,0,0,0,0,0,0,0,0,0,0,0,0
1777291078.4213452,10681,1777291072.1524348,1777291072.0994756,,0,0,52.95920372009277,,1,0,0.0,0.0,0.0,0.0,0.0,0.0,0.0,0.0,0.0,0.0,0.0,0.0,0.0,0.0,0.0,0.0,0.0,0.0,0.0,0.0,0.0,0.0,0.0,0.0,0.0,0.0,0.0,726.3741455078125,645.0604858398438,1102.100341796875,976.0916137695312,677.7490844726562,1106.84765625,775.4812622070312,467.310302734375,1138.564453125,937.0413818359375,467.93145751953125,1140.3885498046875,675.1898803710938,535.258544921875,836.6636962890625,720.4945068359375,542.6114501953125,579.0994873046875,711.5146484375,419.9498291015625,457.2161865234375,740.5477905273438,310.21044921875,291.4076232910156,804.9203491210938,180.18792724609375,247.8428497314453,765.82861328125,426.87451171875,173.5242919921875,1030.5098876953125,661.4588623046875,802.8935546875,984.4366455078125,670.9741821289062,568.6095581054688,997.8565673828125,677.9615478515625,432.6825866699219,954.2183227539062,683.7403564453125,218.85726928710938,896.6558227539062,606.3827514648438,163.27651977539062,902.8740844726562,872.5878295898438,179.95834350585938,0.0,0.0,0.0,0.0,0.0,0.0,0.0,0.0,0.0,0.0,0.0,0.0,1.0,5.034,8.1826,-1.3877,0.1831,-0.3662,-0.1221,99.6075,-31.2286,-159.928,0.2993,0.6941,-0.6479,-0.0941,0.0,0.0,0.0,0.0,0.0,0.0,0.0,0.0,0.0,0.0,0.0,0.0,1.0,0.0,0.0,0.0,0.0,0.0,0.0,0.0,0.0,0.0,0.0,0.0,0.0,1.0,0.0,0.0,0.0,0.0,0.0,0.0,0.0,0.0,0.0,0.0,0.0,0.0,1.0,0.0,0.0,0.0,0.0,0.0,0.0,0.0,0.0,0.0,0.0,0.0,0.0,1.0,0.0,0.0,0.0,0.0,0.0,0.0,0.0,0.0,0.0,0.0,0.0,0.0,1.0,0,0,0,0,0,0,0,0,0,0,0,0,0,0,0,0,0,0,0,0,0,0,0,0,0,0,0,0,0,0,0,0,0,0,0,0
1777291078.4213452,10682,1777291072.1681244,1777291072.1681244,,0,0,0.0,,1,0,0.0,0.0,0.0,0.0,0.0,0.0,0.0,0.0,0.0,0.0,0.0,0.0,0.0,0.0,0.0,0.0,0.0,0.0,0.0,0.0,0.0,0.0,0.0,0.0,0.0,0.0,0.0,727.3279418945312,645.2440795898438,1102.9329833984375,976.7432861328125,679.641357421875,1107.8564453125,777.3746948242188,467.6217041015625,1138.609375,938.8986206054688,469.4596862792969,1140.73486328125,675.7935791015625,539.7188110351562,837.1825561523438,718.5099487304688,552.0880737304688,579.8876342773438,709.7869873046875,426.8965148925781,461.9142150878906,738.9818725585938,312.8916931152344,298.70684814453125,805.7069091796875,182.54522705078125,262.80780029296875,764.6322631835938,422.1730041503906,172.69302368164062,1030.9296875,662.7487182617188,803.3553466796875,984.6696166992188,670.5031127929688,569.0809936523438,998.2542724609375,675.9425048828125,433.1645202636719,954.4275512695312,677.9197387695312,219.2645721435547,897.0769653320312,599.3303833007812,163.65896606445312,902.6483764648438,865.4845581054688,179.36582946777344,0.0,0.0,0.0,0.0,0.0,0.0,0.0,0.0,0.0,0.0,0.0,0.0,1.0,5.034,8.1826,-1.3877,0.1221,-0.4272,-0.1221,99.6075,-31.2286,-159.928,0.2993,0.6941,-0.6479,-0.0941,0.0,0.0,0.0,0.0,0.0,0.0,0.0,0.0,0.0,0.0,0.0,0.0,1.0,0.0,0.0,0.0,0.0,0.0,0.0,0.0,0.0,0.0,0.0,0.0,0.0,1.0,0.0,0.0,0.0,0.0,0.0,0.0,0.0,0.0,0.0,0.0,0.0,0.0,1.0,0.0,0.0,0.0,0.0,0.0,0.0,0.0,0.0,0.0,0.0,0.0,0.0,1.0,0.0,0.0,0.0,0.0,0.0,0.0,0.0,0.0,0.0,0.0,0.0,0.0,1.0,0,0,0,0,0,0,0,0,0,0,0,0,0,0,0,0,0,0,0,0,0,0,0,0,0,0,0,0,0,0,0,0,0,0,0,0
1777291078.4213452,10683,1777291072.170608,1777291072.1681244,,0,0,2.4836063385009766,,1,0,0.0,0.0,0.0,0.0,0.0,0.0,0.0,0.0,0.0,0.0,0.0,0.0,0.0,0.0,0.0,0.0,0.0,0.0,0.0,0.0,0.0,0.0,0.0,0.0,0.0,0.0,0.0,728.2577514648438,645.27099609375,1103.8690185546875,977.3727416992188,681.3496704101562,1108.980712890625,779.2587280273438,467.80419921875,1138.7864990234375,940.727783203125,470.8481750488281,1141.1868896484375,676.2070922851562,544.3619995117188,838.0001220703125,716.2454223632812,561.8922119140625,581.0626831054688,707.8817749023438,434.51556396484375,466.946044921875,737.3569946289062,316.5528259277344,306.3605041503906,806.3272705078125,186.96511840820312,279.1207275390625,763.2424926757812,418.2016296386719,171.83270263671875,1031.4908447265625,663.7095336914062,803.7979736328125,984.8513793945312,669.5015869140625,569.4973754882812,998.5130004882812,673.4461059570312,433.57440185546875,954.4603881835938,671.9196166992188,219.69061279296875,897.389404296875,592.2688598632812,163.98350524902344,902.5136108398438,858.3626708984375,178.98904418945312,0.0,0.0,0.0,0.0,0.0,0.0,0.0,0.0,0.0,0.0,0.0,0.0,1.0,5.034,8.1826,-1.3877,0.1221,-0.4272,-0.1221,99.6075,-31.2286,-159.928,0.2993,0.6941,-0.6479,-0.0941,0.0,0.0,0.0,0.0,0.0,0.0,0.0,0.0,0.0,0.0,0.0,0.0,1.0,0.0,0.0,0.0,0.0,0.0,0.0,0.0,0.0,0.0,0.0,0.0,0.0,1.0,0.0,0.0,0.0,0.0,0.0,0.0,0.0,0.0,0.0,0.0,0.0,0.0,1.0,0.0,0.0,0.0,0.0,0.0,0.0,0.0,0.0,0.0,0.0,0.0,0.0,1.0,0.0,0.0,0.0,0.0,0.0,0.0,0.0,0.0,0.0,0.0,0.0,0.0,1.0,0,0,0,0,0,0,0,0,0,0,0,0,0,0,0,0,0,0,0,0,0,0,0,0,0,0,0,0,0,0,0,0,0,0,0,0
1777291078.4213452,10684,1777291072.1848528,1777291072.1681244,,0,0,16.72840118408203,,1,0,0.0,0.0,0.0,0.0,0.0,0.0,0.0,0.0,0.0,0.0,0.0,0.0,0.0,0.0,0.0,0.0,0.0,0.0,0.0,0.0,0.0,0.0,0.0,0.0,0.0,0.0,0.0,729.1542358398438,645.1434326171875,1104.8936767578125,977.9721069335938,682.8709716796875,1110.1893310546875,781.1270141601562,467.8582763671875,1139.0860595703125,942.5233154296875,472.0928039550781,1141.730712890625,676.4068603515625,549.1342163085938,839.1250610351562,713.7543334960938,571.8810424804688,582.63671875,705.8690185546875,442.660888671875,472.2463684082031,735.75830078125,321.1018981933594,314.255859375,806.7882080078125,193.37759399414062,296.338134765625,761.6801147460938,415.0891418457031,171.1101531982422,1032.177001953125,664.3223266601562,804.1732177734375,984.9769287109375,667.9561157226562,569.8228149414062,998.6232299804688,670.473388671875,433.8706970214844,954.3018188476562,665.7506103515625,220.09767150878906,897.59619140625,585.1878051757812,164.2700958251953,902.4314575195312,851.2582397460938,178.6930694580078,0.0,0.0,0.0,0.0,0.0,0.0,0.0,0.0,0.0,0.0,0.0,0.0,1.0,5.034,8.1826,-1.3877,0.1221,-0.4272,-0.1221,99.6075,-31.2286,-159.928,0.2993,0.6941,-0.6479,-0.0941,0.0,0.0,0.0,0.0,0.0,0.0,0.0,0.0,0.0,0.0,0.0,0.0,1.0,0.0,0.0,0.0,0.0,0.0,0.0,0.0,0.0,0.0,0.0,0.0,0.0,1.0,0.0,0.0,0.0,0.0,0.0,0.0,0.0,0.0,0.0,0.0,0.0,0.0,1.0,0.0,0.0,0.0,0.0,0.0,0.0,0.0,0.0,0.0,0.0,0.0,0.0,1.0,0.0,0.0,0.0,0.0,0.0,0.0,0.0,0.0,0.0,0.0,0.0,0.0,1.0,0,0,0,0,0,0,0,0,0,0,0,0,0,0,0,0,0,0,0,0,0,0,0,0,0,0,0,0,0,0,0,0,0,0,0,0
1777291078.4213452,10685,1777291072.1875143,1777291072.1681244,,0,0,19.389867782592773,,1,0,0.0,0.0,0.0,0.0,0.0,0.0,0.0,0.0,0.0,0.0,0.0,0.0,0.0,0.0,0.0,0.0,0.0,0.0,0.0,0.0,0.0,0.0,0.0,0.0,0.0,0.0,0.0,730.0103759765625,644.8670654296875,1105.991455078125,978.53564453125,684.2056274414062,1111.449951171875,782.97265625,467.7866516113281,1139.497314453125,944.279541015625,473.191650390625,1142.3519287109375,676.3792724609375,553.976318359375,840.5582885742188,711.0947875976562,581.9183349609375,584.6099853515625,703.8203125,451.1817321777344,477.7394714355469,734.2647705078125,326.43280029296875,322.260498046875,807.1392211914062,201.54806518554688,313.83917236328125,759.95751953125,412.99505615234375,170.7350616455078,1032.9635009765625,664.5779418945312,804.44384765625,985.0444946289062,665.8797607421875,570.0360717773438,998.5873413085938,667.05126953125,434.0311584472656,953.9537353515625,659.4277954101562,220.46165466308594,897.7085571289062,578.0771484375,164.5341339111328,902.3682250976562,844.1869506835938,178.38914489746094,0.0,0.0,0.0,0.0,0.0,0.0,0.0,0.0,0.0,0.0,0.0,0.0,1.0,5.034,8.1826,-1.3877,0.1221,-0.4272,-0.1221,99.6075,-31.2286,-159.928,0.2993,0.6941,-0.6479,-0.0941,0.0,0.0,0.0,0.0,0.0,0.0,0.0,0.0,0.0,0.0,0.0,0.0,1.0,0.0,0.0,0.0,0.0,0.0,0.0,0.0,0.0,0.0,0.0,0.0,0.0,1.0,0.0,0.0,0.0,0.0,0.0,0.0,0.0,0.0,0.0,0.0,0.0,0.0,1.0,0.0,0.0,0.0,0.0,0.0,0.0,0.0,0.0,0.0,0.0,0.0,0.0,1.0,0.0,0.0,0.0,0.0,0.0,0.0,0.0,0.0,0.0,0.0,0.0,0.0,1.0,0,0,0,0,0,0,0,0,0,0,0,0,0,0,0,0,0,0,0,0,0,0,0,0,0,0,0,0,0,0,0,0,0,0,0,0
1777291078.4213452,10686,1777291072.2023523,1777291072.1681244,,0,0,34.227848052978516,,1,0,0.0,0.0,0.0,0.0,0.0,0.0,0.0,0.0,0.0,0.0,0.0,0.0,0.0,0.0,0.0,0.0,0.0,0.0,0.0,0.0,0.0,0.0,0.0,0.0,0.0,0.0,0.0,730.8216552734375,644.4505615234375,1107.147216796875,979.0596313476562,685.3563842773438,1112.7310791015625,784.7880859375,467.59368896484375,1140.00927734375,945.99072265625,474.1446533203125,1143.0361328125,676.1235961914062,558.8252563476562,842.2926635742188,708.32666015625,591.8799438476562,586.9710083007812,701.8035278320312,459.93267822265625,483.3420715332031,732.9410400390625,332.4364318847656,330.2244567871094,807.4710693359375,211.0911865234375,330.8735046386719,758.0695190429688,412.11541748046875,170.93235778808594,1033.8193359375,664.4783935546875,804.5862426757812,985.0552368164062,663.3088989257812,570.1307983398438,998.4178466796875,663.2271118164062,434.0523681640625,953.4345703125,652.9689331054688,220.7719268798828,897.7428588867188,570.9279174804688,164.7868194580078,902.2986450195312,837.1466064453125,178.03158569335938,0.0,0.0,0.0,0.0,0.0,0.0,0.0,0.0,0.0,0.0,0.0,0.0,1.0,5.034,8.1826,-1.3877,0.1221,-0.4272,-0.1221,99.6075,-31.2286,-159.928,0.2993,0.6941,-0.6479,-0.0941,0.0,0.0,0.0,0.0,0.0,0.0,0.0,0.0,0.0,0.0,0.0,0.0,1.0,0.0,0.0,0.0,0.0,0.0,0.0,0.0,0.0,0.0,0.0,0.0,0.0,1.0,0.0,0.0,0.0,0.0,0.0,0.0,0.0,0.0,0.0,0.0,0.0,0.0,1.0,0.0,0.0,0.0,0.0,0.0,0.0,0.0,0.0,0.0,0.0,0.0,0.0,1.0,0.0,0.0,0.0,0.0,0.0,0.0,0.0,0.0,0.0,0.0,0.0,0.0,1.0,0,0,0,0,0,0,0,0,0,0,0,0,0,0,0,0,0,0,0,0,0,0,0,0,0,0,0,0,0,0,0,0,0,0,0,0
1777291078.4213452,10687,1777291072.2195685,1777291072.1681244,,0,0,51.444053649902344,,1,0,0.0,0.0,0.0,0.0,0.0,0.0,0.0,0.0,0.0,0.0,0.0,0.0,0.0,0.0,0.0,0.0,0.0,0.0,0.0,0.0,0.0,0.0,0.0,0.0,0.0,0.0,0.0,731.5859375,643.90478515625,1108.3472900390625,979.5426025390625,686.3281860351562,1114.003173828125,786.5652465820312,467.2851257324219,1140.61083984375,947.65087890625,474.9532775878906,1143.77001953125,675.6533813476562,563.6141967773438,844.312255859375,705.5079956054688,601.6571044921875,589.6971435546875,699.8777465820312,468.78204345703125,488.96514892578125,731.8313598632812,339.0110168457031,337.9838562011719,807.9032592773438,221.51451110839844,346.6382751464844,755.9891967773438,412.6755676269531,171.9047088623047,1034.7088623046875,664.0374145507812,804.5918579101562,985.0131225585938,660.2980346679688,570.1137084960938,998.1353149414062,659.061767578125,433.94708251953125,952.77685546875,646.392333984375,221.02976989746094,897.7183227539062,563.7330322265625,165.03553771972656,902.2073974609375,830.121337890625,177.60931396484375,0.0,0.0,0.0,0.0,0.0,0.0,0.0,0.0,0.0,0.0,0.0,0.0,1.0,5.034,8.1826,-1.3877,0.1221,-0.4272,-0.1221,99.6075,-31.2286,-159.928,0.2993,0.6941,-0.6479,-0.0941,0.0,0.0,0.0,0.0,0.0,0.0,0.0,0.0,0.0,0.0,0.0,0.0,1.0,0.0,0.0,0.0,0.0,0.0,0.0,0.0,0.0,0.0,0.0,0.0,0.0,1.0,0.0,0.0,0.0,0.0,0.0,0.0,0.0,0.0,0.0,0.0,0.0,0.0,1.0,0.0,0.0,0.0,0.0,0.0,0.0,0.0,0.0,0.0,0.0,0.0,0.0,1.0,0.0,0.0,0.0,0.0,0.0,0.0,0.0,0.0,0.0,0.0,0.0,0.0,1.0,0,0,0,0,0,0,0,0,0,0,0,0,0,0,0,0,0,0,0,0,0,0,0,0,0,0,0,0,0,0,0,0,0,0,0,0
1777291078.4213452,10688,1777291072.2308476,1777291072.1681244,,0,0,62.72315979003906,,1,0,0.0,0.0,0.0,0.0,0.0,0.0,0.0,0.0,0.0,0.0,0.0,0.0,0.0,0.0,0.0,0.0,0.0,0.0,0.0,0.0,0.0,0.0,0.0,0.0,0.0,0.0,0.0,732.30322265625,643.2421875,1109.57958984375,979.9848022460938,687.1273193359375,1115.240966796875,788.2957153320312,466.8675537109375,1141.291259765625,949.2540283203125,475.6202697753906,1144.541015625,674.9959106445312,568.2744750976562,846.593017578125,702.6930541992188,611.1585693359375,592.7554321289062,698.08984375,477.6181335449219,494.5157165527344,730.95703125,346.0696716308594,345.3661193847656,808.55908203125,232.29196166992188,360.3776550292969,753.671142578125,414.9059143066406,173.79052734375,1035.593505859375,663.2796630859375,804.4664306640625,984.9244384765625,656.9133911132812,570.0016479492188,997.7657470703125,654.6219482421875,433.74029541015625,952.0234375,639.7153930664062,221.24551391601562,897.6549682617188,556.4874877929688,165.28443908691406,902.089599609375,823.0875854492188,177.13514709472656,0.0,0.0,0.0,0.0,0.0,0.0,0.0,0.0,0.0,0.0,0.0,0.0,1.0,5.034,8.1826,-1.3877,0.1221,-0.4272,-0.1221,99.6075,-31.2286,-159.928,0.2993,0.6941,-0.6479,-0.0941,0.0,0.0,0.0,0.0,0.0,0.0,0.0,0.0,0.0,0.0,0.0,0.0,1.0,0.0,0.0,0.0,0.0,0.0,0.0,0.0,0.0,0.0,0.0,0.0,0.0,1.0,0.0,0.0,0.0,0.0,0.0,0.0,0.0,0.0,0.0,0.0,0.0,0.0,1.0,0.0,0.0,0.0,0.0,0.0,0.0,0.0,0.0,0.0,0.0,0.0,0.0,1.0,0.0,0.0,0.0,0.0,0.0,0.0,0.0,0.0,0.0,0.0,0.0,0.0,1.0,0,0,0,0,0,0,0,0,0,0,0,0,0,0,0,0,0,0,0,0,0,0,0,0,0,0,0,0,0,0,0,0,0,0,0,0
1777291078.4213452,10689,1777291072.2368503,1777291072.1681244,,0,0,68.7258243560791,,1,0,0.0,0.0,0.0,0.0,0.0,0.0,0.0,0.0,0.0,0.0,0.0,0.0,0.0,0.0,0.0,0.0,0.0,0.0,0.0,0.0,0.0,0.0,0.0,0.0,0.0,0.0,0.0,732.9747924804688,642.4759521484375,1110.833984375,980.387939453125,687.760986328125,1116.42431640625,789.970947265625,466.3482360839844,1142.0406494140625,950.7940063476562,476.14923095703125,1145.337646484375,674.1904296875,572.7368774414062,849.1032104492188,699.9306030273438,620.3103637695312,596.1044311523438,696.4722290039062,486.3524169921875,499.8985290527344,730.3154296875,353.5453796386719,352.19671630859375,809.5326538085938,242.95849609375,371.4877624511719,751.0615844726562,419.0027770996094,176.62510681152344,1036.4344482421875,662.2391967773438,804.22802734375,984.7974243164062,653.2265014648438,569.8187255859375,997.3382568359375,649.9725952148438,433.464599609375,951.2230224609375,632.9533081054688,221.435302734375,897.572509765625,549.1888427734375,165.535400390625,901.9495239257812,816.0196533203125,176.6354522705078,0.0,0.0,0.0,0.0,0.0,0.0,0.0,0.0,0.0,0.0,0.0,0.0,1.0,5.034,8.1826,-1.3877,0.1221,-0.4272,-0.1221,99.6075,-31.2286,-159.928,0.2993,0.6941,-0.6479,-0.0941,0.0,0.0,0.0,0.0,0.0,0.0,0.0,0.0,0.0,0.0,0.0,0.0,1.0,0.0,0.0,0.0,0.0,0.0,0.0,0.0,0.0,0.0,0.0,0.0,0.0,1.0,0.0,0.0,0.0,0.0,0.0,0.0,0.0,0.0,0.0,0.0,0.0,0.0,1.0,0.0,0.0,0.0,0.0,0.0,0.0,0.0,0.0,0.0,0.0,0.0,0.0,1.0,0.0,0.0,0.0,0.0,0.0,0.0,0.0,0.0,0.0,0.0,0.0,0.0,1.0,0,0,0,0,0,0,0,0,0,0,0,0,0,0,0,0,0,0,0,0,0,0,0,0,0,0,0,0,0,0,0,0,0,0,0,0
1777291078.4213452,10690,1777291072.2398198,1777291072.1681244,,0,0,71.69532775878906,,1,0,0.0,0.0,0.0,0.0,0.0,0.0,0.0,0.0,0.0,0.0,0.0,0.0,0.0,0.0,0.0,0.0,0.0,0.0,0.0,0.0,0.0,0.0,0.0,0.0,0.0,0.0,0.0,733.6028442382812,641.6195678710938,1112.102783203125,980.7546997070312,688.2369995117188,1117.5380859375,791.58251953125,465.73468017578125,1142.8497314453125,952.2648315429688,476.5445861816406,1146.150146484375,673.284912109375,576.9337158203125,851.8043823242188,697.2631225585938,629.0546264648438,599.696044921875,695.0415649414062,494.9205017089844,505.0173645019531,729.8818969726562,361.3930969238281,358.3066711425781,810.8583374023438,253.20266723632812,379.6014099121094,748.1124877929688,425.0855407714844,180.31643676757812,1037.1956787109375,660.9567260742188,803.9032592773438,984.6411743164062,649.3078002929688,569.5923461914062,996.8822631835938,645.17138671875,433.1556091308594,950.4244995117188,626.1190185546875,221.61788940429688,897.4888305664062,541.8373413085938,165.78955078125,901.7979125976562,808.8951416015625,176.1414794921875,0.0,0.0,0.0,0.0,0.0,0.0,0.0,0.0,0.0,0.0,0.0,0.0,1.0,5.034,8.1826,-1.3877,0.1221,-0.4272,-0.1221,99.6075,-31.2286,-159.928,0.2993,0.6941,-0.6479,-0.0941,0.0,0.0,0.0,0.0,0.0,0.0,0.0,0.0,0.0,0.0,0.0,0.0,1.0,0.0,0.0,0.0,0.0,0.0,0.0,0.0,0.0,0.0,0.0,0.0,0.0,1.0,0.0,0.0,0.0,0.0,0.0,0.0,0.0,0.0,0.0,0.0,0.0,0.0,1.0,0.0,0.0,0.0,0.0,0.0,0.0,0.0,0.0,0.0,0.0,0.0,0.0,1.0,0.0,0.0,0.0,0.0,0.0,0.0,0.0,0.0,0.0,0.0,0.0,0.0,1.0,0,0,0,0,0,0,0,0,0,0,0,0,0,0,0,0,0,0,0,0,0,0,0,0,0,0,0,0,0,0,0,0,0,0,0,0
1777291078.4213452,10691,1777291072.2566023,1777291072.2566023,,0,0,0.0,,1,0,0.0,0.0,0.0,0.0,0.0,0.0,0.0,0.0,0.0,0.0,0.0,0.0,0.0,0.0,0.0,0.0,0.0,0.0,0.0,0.0,0.0,0.0,0.0,0.0,0.0,0.0,0.0,734.189697265625,640.685791015625,1113.380126953125,981.0880126953125,688.5635986328125,1118.5728759765625,793.122314453125,465.03460693359375,1143.7098388671875,953.6608276367188,476.8111877441406,1146.969482421875,672.3325805664062,580.8003540039062,854.6527709960938,694.7265014648438,637.3475952148438,603.47705078125,693.7994995117188,503.28033447265625,509.7772216796875,729.6127319335938,369.5890808105469,363.5403747558594,812.4959716796875,262.9206848144531,384.622314453125,744.7962036132812,433.1659240722656,184.6488494873047,1037.845947265625,659.4758911132812,803.5237426757812,984.46533203125,645.221435546875,569.3502807617188,996.4251098632812,640.2644653320312,432.8477783203125,949.6720581054688,619.2229614257812,221.81182861328125,897.4196166992188,534.4356689453125,166.04830932617188,901.6492919921875,801.6986083984375,175.68238830566406,0.0,0.0,0.0,0.0,0.0,0.0,0.0,0.0,0.0,0.0,0.0,0.0,1.0,5.0244,8.1874,-1.3829,0.1831,-0.3662,-0.1221,99.6075,-31.2286,-159.928,0.2993,0.6941,-0.6479,-0.0941,0.0,0.0,0.0,0.0,0.0,0.0,0.0,0.0,0.0,0.0,0.0,0.0,1.0,0.0,0.0,0.0,0.0,0.0,0.0,0.0,0.0,0.0,0.0,0.0,0.0,1.0,0.0,0.0,0.0,0.0,0.0,0.0,0.0,0.0,0.0,0.0,0.0,0.0,1.0,0.0,0.0,0.0,0.0,0.0,0.0,0.0,0.0,0.0,0.0,0.0,0.0,1.0,0.0,0.0,0.0,0.0,0.0,0.0,0.0,0.0,0.0,0.0,0.0,0.0,1.0,0,0,0,0,0,0,0,0,0,0,0,0,0,0,0,0,0,0,0,0,0,0,0,0,0,0,0,0,0,0,0,0,0,0,0,0
1777291078.4213452,10692,1777291072.260111,1777291072.2566023,,0,0,3.5088062286376953,,1,0,0.0,0.0,0.0,0.0,0.0,0.0,0.0,0.0,0.0,0.0,0.0,0.0,0.0,0.0,0.0,0.0,0.0,0.0,0.0,0.0,0.0,0.0,0.0,0.0,0.0,0.0,0.0,734.7371826171875,639.6868896484375,1114.6619873046875,981.3903198242188,688.7490234375,1119.5245361328125,794.5830078125,464.2557373046875,1144.6129150390625,954.9767456054688,476.9544372558594,1147.7882080078125,671.388427734375,584.27734375,857.6004638671875,692.3502807617188,645.1566162109375,607.3909912109375,692.7340087890625,511.40869140625,514.0865478515625,729.4497680664062,378.1281433105469,367.7625427246094,814.3379516601562,272.2049865722656,386.6961975097656,741.1139526367188,443.143310546875,189.31643676757812,1038.3623046875,657.83935546875,803.121337890625,984.2787475585938,641.0216064453125,569.1177978515625,995.9901733398438,635.28466796875,432.57135009765625,949.0009765625,612.2733764648438,222.0332794189453,897.3780517578125,526.9883422851562,166.31407165527344,901.51904296875,794.4230346679688,175.2806854248047,0.0,0.0,0.0,0.0,0.0,0.0,0.0,0.0,0.0,0.0,0.0,0.0,1.0,5.0244,8.1874,-1.3829,0.1831,-0.3662,-0.1221,99.6075,-31.2286,-159.928,0.2993,0.6941,-0.6479,-0.0941,0.0,0.0,0.0,0.0,0.0,0.0,0.0,0.0,0.0,0.0,0.0,0.0,1.0,0.0,0.0,0.0,0.0,0.0,0.0,0.0,0.0,0.0,0.0,0.0,0.0,1.0,0.0,0.0,0.0,0.0,0.0,0.0,0.0,0.0,0.0,0.0,0.0,0.0,1.0,0.0,0.0,0.0,0.0,0.0,0.0,0.0,0.0,0.0,0.0,0.0,0.0,1.0,0.0,0.0,0.0,0.0,0.0,0.0,0.0,0.0,0.0,0.0,0.0,0.0,1.0,0,0,0,0,0,0,0,0,0,0,0,0,0,0,0,0,0,0,0,0,0,0,0,0,0,0,0,0,0,0,0,0,0,0,0,0
1777291078.4213452,10693,1777291072.2753255,1777291072.2566023,,0,0,18.723249435424805,,1,0,0.0,0.0,0.0,0.0,0.0,0.0,0.0,0.0,0.0,0.0,0.0,0.0,0.0,0.0,0.0,0.0,0.0,0.0,0.0,0.0,0.0,0.0,0.0,0.0,0.0,0.0,0.0,735.246337890625,638.6339721679688,1115.9453125,981.6636962890625,688.8015747070312,1120.3924560546875,795.9578247070312,463.40576171875,1145.551025390625,956.2079467773438,476.9800109863281,1148.5997314453125,670.505859375,587.3115844726562,860.5973510742188,690.1580810546875,652.457763671875,611.3795776367188,691.8224487304688,519.296875,517.8601684570312,729.3267211914062,387.0189514160156,370.8641357421875,816.23193359375,281.27960205078125,386.13311767578125,737.0972290039062,454.8281555175781,193.97584533691406,1038.7308349609375,656.0848999023438,802.7250366210938,984.0894775390625,636.750244140625,568.9156494140625,995.5953369140625,630.251953125,432.3500061035156,948.4353637695312,605.2766723632812,222.29437255859375,897.3743896484375,519.5012817382812,166.58949279785156,901.4212646484375,787.06982421875,174.94979858398438,0.0,0.0,0.0,0.0,0.0,0.0,0.0,0.0,0.0,0.0,0.0,0.0,1.0,5.0244,8.1874,-1.3829,0.1831,-0.3662,-0.1221,99.6075,-31.2286,-159.928,0.2993,0.6941,-0.6479,-0.0941,0.0,0.0,0.0,0.0,0.0,0.0,0.0,0.0,0.0,0.0,0.0,0.0,1.0,0.0,0.0,0.0,0.0,0.0,0.0,0.0,0.0,0.0,0.0,0.0,0.0,1.0,0.0,0.0,0.0,0.0,0.0,0.0,0.0,0.0,0.0,0.0,0.0,0.0,1.0,0.0,0.0,0.0,0.0,0.0,0.0,0.0,0.0,0.0,0.0,0.0,0.0,1.0,0.0,0.0,0.0,0.0,0.0,0.0,0.0,0.0,0.0,0.0,0.0,0.0,1.0,0,0,0,0,0,0,0,0,0,0,0,0,0,0,0,0,0,0,0,0,0,0,0,0,0,0,0,0,0,0,0,0,0,0,0,0
1777291078.4213452,10694,1777291072.2788343,1777291072.2566023,,0,0,22.2320556640625,,1,0,0.0,0.0,0.0,0.0,0.0,0.0,0.0,0.0,0.0,0.0,0.0,0.0,0.0,0.0,0.0,0.0,0.0,0.0,0.0,0.0,0.0,0.0,0.0,0.0,0.0,0.0,0.0,735.7171630859375,637.5367431640625,1117.2275390625,981.9089965820312,688.7295532226562,1121.17919921875,797.2410888671875,462.49237060546875,1146.5166015625,957.3502807617188,476.89398193359375,1149.3983154296875,669.7333984375,589.8580322265625,863.5922241210938,688.1680297851562,659.2325439453125,615.3839111328125,691.03515625,526.9457397460938,521.0222778320312,729.1754760742188,396.2781066894531,372.7664489746094,818.0086669921875,290.4191589355469,383.3127746582031,732.8013305664062,467.983154296875,198.30160522460938,1038.9478759765625,654.2427368164062,802.3580322265625,983.90380859375,632.4363403320312,568.759033203125,995.25244140625,625.17431640625,432.1998291015625,947.987060546875,598.2380981445312,222.60223388671875,897.4149780273438,511.9815673828125,166.87655639648438,901.3674926757812,779.6474609375,174.69371032714844,0.0,0.0,0.0,0.0,0.0,0.0,0.0,0.0,0.0,0.0,0.0,0.0,1.0,5.0244,8.1874,-1.3829,0.1831,-0.3662,-0.1221,99.6075,-31.2286,-159.928,0.2993,0.6941,-0.6479,-0.0941,0.0,0.0,0.0,0.0,0.0,0.0,0.0,0.0,0.0,0.0,0.0,0.0,1.0,0.0,0.0,0.0,0.0,0.0,0.0,0.0,0.0,0.0,0.0,0.0,0.0,1.0,0.0,0.0,0.0,0.0,0.0,0.0,0.0,0.0,0.0,0.0,0.0,0.0,1.0,0.0,0.0,0.0,0.0,0.0,0.0,0.0,0.0,0.0,0.0,0.0,0.0,1.0,0.0,0.0,0.0,0.0,0.0,0.0,0.0,0.0,0.0,0.0,0.0,0.0,1.0,0,0,0,0,0,0,0,0,0,0,0,0,0,0,0,0,0,0,0,0,0,0,0,0,0,0,0,0,0,0,0,0,0,0,0,0
1777291078.4213452,10695,1777291072.2938328,1777291072.2566023,,0,0,37.230491638183594,,1,0,0.0,0.0,0.0,0.0,0.0,0.0,0.0,0.0,0.0,0.0,0.0,0.0,0.0,0.0,0.0,0.0,0.0,0.0,0.0,0.0,0.0,0.0,0.0,0.0,0.0,0.0,0.0,736.1484985351562,636.4041137695312,1118.505615234375,982.1259765625,688.5411376953125,1121.8890380859375,798.42822265625,461.5231018066406,1147.501708984375,958.4005737304688,476.70257568359375,1150.1787109375,669.1119995117188,591.8810424804688,866.5344848632812,686.3929443359375,665.466064453125,619.3455200195312,690.3391723632812,534.3611450195312,523.5098266601562,728.9324951171875,405.92529296875,373.423583984375,819.507568359375,299.8820495605469,378.6014404296875,728.2947998046875,482.3673095703125,202.0303955078125,1039.01953125,652.333251953125,802.0360717773438,983.72607421875,628.0966186523438,568.6568603515625,994.967041015625,620.0503540039062,432.1288146972656,947.6556396484375,591.161865234375,222.958740234375,897.5013427734375,504.4372253417969,167.17605590820312,901.3646240234375,772.1692504882812,174.5084686279297,0.0,0.0,0.0,0.0,0.0,0.0,0.0,0.0,0.0,0.0,0.0,0.0,1.0,5.0244,8.1874,-1.3829,0.1831,-0.3662,-0.1221,99.6075,-31.2286,-159.928,0.2993,0.6941,-0.6479,-0.0941,0.0,0.0,0.0,0.0,0.0,0.0,0.0,0.0,0.0,0.0,0.0,0.0,1.0,0.0,0.0,0.0,0.0,0.0,0.0,0.0,0.0,0.0,0.0,0.0,0.0,1.0,0.0,0.0,0.0,0.0,0.0,0.0,0.0,0.0,0.0,0.0,0.0,0.0,1.0,0.0,0.0,0.0,0.0,0.0,0.0,0.0,0.0,0.0,0.0,0.0,0.0,1.0,0.0,0.0,0.0,0.0,0.0,0.0,0.0,0.0,0.0,0.0,0.0,0.0,1.0,0,0,0,0,0,0,0,0,0,0,0,0,0,0,0,0,0,0,0,0,0,0,0,0,0,0,0,0,0,0,0,0,0,0,0,0
1777291078.4213452,10696,1777291072.3110652,1777291072.2566023,,0,0,54.46290969848633,,1,0,0.0,0.0,0.0,0.0,0.0,0.0,0.0,0.0,0.0,0.0,0.0,0.0,0.0,0.0,0.0,0.0,0.0,0.0,0.0,0.0,0.0,0.0,0.0,0.0,0.0,0.0,0.0,736.5383911132812,635.24365234375,1119.7757568359375,982.3135986328125,688.2444458007812,1122.5264892578125,799.5153198242188,460.50555419921875,1148.498046875,959.3562622070312,476.4123840332031,1150.9365234375,668.673095703125,593.3553466796875,869.3754272460938,684.8411865234375,671.1447143554688,623.2069091796875,689.7022094726562,541.5501708984375,525.2750244140625,728.5428466796875,415.9797058105469,372.8228759765625,820.5963745117188,309.8721618652344,372.2987060546875,723.64892578125,497.7697448730469,204.98683166503906,1038.959716796875,650.3667602539062,801.7672119140625,983.5587158203125,623.7369384765625,568.612060546875,994.7385864257812,614.8721313476562,432.1373291015625,947.4304809570312,584.0517578125,223.3611297607422,897.6301879882812,496.8768615722656,167.4877166748047,901.4142456054688,764.650146484375,174.3844451904297,0.0,0.0,0.0,0.0,0.0,0.0,0.0,0.0,0.0,0.0,0.0,0.0,1.0,5.0244,8.1874,-1.3829,0.1831,-0.3662,-0.1221,99.6075,-31.2286,-159.928,0.2993,0.6941,-0.6479,-0.0941,0.0,0.0,0.0,0.0,0.0,0.0,0.0,0.0,0.0,0.0,0.0,0.0,1.0,0.0,0.0,0.0,0.0,0.0,0.0,0.0,0.0,0.0,0.0,0.0,0.0,1.0,0.0,0.0,0.0,0.0,0.0,0.0,0.0,0.0,0.0,0.0,0.0,0.0,1.0,0.0,0.0,0.0,0.0,0.0,0.0,0.0,0.0,0.0,0.0,0.0,0.0,1.0,0.0,0.0,0.0,0.0,0.0,0.0,0.0,0.0,0.0,0.0,0.0,0.0,1.0,0,0,0,0,0,0,0,0,0,0,0,0,0,0,0,0,0,0,0,0,0,0,0,0,0,0,0,0,0,0,0,0,0,0,0,0
1777291078.4213452,10697,1777291072.3150644,1777291072.314065,,0,0,0.99945068359375,,1,0,0.0,0.0,0.0,0.0,0.0,0.0,0.0,0.0,0.0,0.0,0.0,0.0,0.0,0.0,0.0,0.0,0.0,0.0,0.0,0.0,0.0,0.0,0.0,0.0,0.0,0.0,0.0,736.8843383789062,634.06201171875,1121.0328369140625,982.469970703125,687.84765625,1123.095947265625,800.4998168945312,459.4471435546875,1149.4971923828125,960.215576171875,476.03009033203125,1151.6671142578125,668.4365234375,594.2673950195312,872.0697021484375,683.5164794921875,676.2551879882812,626.9124755859375,689.0953369140625,548.5186767578125,526.2868041992188,727.9629516601562,426.4585266113281,370.983642578125,821.1821899414062,320.5289306640625,364.61907958984375,718.9285278320312,514.0272216796875,207.08963012695312,1038.787841796875,648.3442993164062,801.5518798828125,983.4022827148438,619.3549194335938,568.6221923828125,994.5617065429688,609.628173828125,432.2194519042969,947.293212890625,576.9108276367188,223.80319213867188,897.7935180664062,489.3094787597656,167.8101806640625,901.5125732421875,757.1048583984375,174.3091583251953,0.0,0.0,0.0,0.0,0.0,0.0,0.0,0.0,0.0,0.0,0.0,0.0,1.0,5.0292,8.1874,-1.3877,0.1221,-0.4272,-0.1221,99.6075,-31.2286,-159.928,0.2993,0.6941,-0.6479,-0.0941,0.0,0.0,0.0,0.0,0.0,0.0,0.0,0.0,0.0,0.0,0.0,0.0,1.0,0.0,0.0,0.0,0.0,0.0,0.0,0.0,0.0,0.0,0.0,0.0,0.0,1.0,0.0,0.0,0.0,0.0,0.0,0.0,0.0,0.0,0.0,0.0,0.0,0.0,1.0,0.0,0.0,0.0,0.0,0.0,0.0,0.0,0.0,0.0,0.0,0.0,0.0,1.0,0.0,0.0,0.0,0.0,0.0,0.0,0.0,0.0,0.0,0.0,0.0,0.0,1.0,0,0,0,0,0,0,0,0,0,0,0,0,0,0,0,0,0,0,0,0,0,0,0,0,0,0,0,0,0,0,0,0,0,0,0,0
1777291078.4223506,10698,1777291072.3288662,1777291072.314065,,0,0,14.801263809204102,,1,0,0.0,0.0,0.0,0.0,0.0,0.0,0.0,0.0,0.0,0.0,0.0,0.0,0.0,0.0,0.0,0.0,0.0,0.0,0.0,0.0,0.0,0.0,0.0,0.0,0.0,0.0,0.0,737.1837768554688,632.8651123046875,1122.269287109375,982.5927734375,687.3590087890625,1123.599853515625,801.3796997070312,458.3551940917969,1150.48974609375,960.9773559570312,475.5625915527344,1152.3663330078125,668.4100952148438,594.6160888671875,874.5762939453125,682.4183959960938,680.78369140625,630.40869140625,688.4950561523438,555.2711181640625,526.5311279296875,727.1611938476562,437.3767395019531,367.9547119140625,821.2162475585938,331.9374694824219,355.70306396484375,714.1857299804688,531.0255126953125,208.3421630859375,1038.5263671875,646.25927734375,801.3844604492188,983.2557983398438,614.9428100585938,568.6807250976562,994.4271850585938,604.3065185546875,432.3644714355469,947.2213745117188,569.7422485351562,224.27635192871094,897.9804077148438,481.74383544921875,168.14089965820312,901.6517333984375,749.5463256835938,174.2693634033203,0.0,0.0,0.0,0.0,0.0,0.0,0.0,0.0,0.0,0.0,0.0,0.0,1.0,5.0292,8.1874,-1.3877,0.1221,-0.4272,-0.1221,99.6075,-31.2286,-159.928,0.2993,0.6941,-0.6479,-0.0941,0.0,0.0,0.0,0.0,0.0,0.0,0.0,0.0,0.0,0.0,0.0,0.0,1.0,0.0,0.0,0.0,0.0,0.0,0.0,0.0,0.0,0.0,0.0,0.0,0.0,1.0,0.0,0.0,0.0,0.0,0.0,0.0,0.0,0.0,0.0,0.0,0.0,0.0,1.0,0.0,0.0,0.0,0.0,0.0,0.0,0.0,0.0,0.0,0.0,0.0,0.0,1.0,0.0,0.0,0.0,0.0,0.0,0.0,0.0,0.0,0.0,0.0,0.0,0.0,1.0,0,0,0,0,0,0,0,0,0,0,0,0,0,0,0,0,0,0,0,0,0,0,0,0,0,0,0,0,0,0,0,0,0,0,0,0
1777291078.4223506,10699,1777291072.331251,1777291072.314065,,0,0,17.18592643737793,,1,0,0.0,0.0,0.0,0.0,0.0,0.0,0.0,0.0,0.0,0.0,0.0,0.0,0.0,0.0,0.0,0.0,0.0,0.0,0.0,0.0,0.0,0.0,0.0,0.0,0.0,0.0,0.0,737.4342651367188,631.6580810546875,1123.4757080078125,982.6799926757812,686.7864990234375,1124.0389404296875,802.1539916992188,457.23681640625,1151.4659423828125,961.64111328125,475.0167236328125,1153.0299072265625,668.5889892578125,594.41357421875,876.8598022460938,681.5427856445312,684.7163696289062,633.6453247070312,687.8837280273438,561.8114624023438,526.0098876953125,726.1177368164062,448.7477722167969,363.8114318847656,820.6929931640625,344.1478576660156,345.64666748046875,709.4569091796875,548.6885375976562,208.8128204345703,1038.197998046875,644.1000366210938,801.2546997070312,983.1170043945312,610.490234375,568.7781982421875,994.3240966796875,598.8972778320312,432.55889892578125,947.1918334960938,562.5487670898438,224.7710418701172,898.1785888671875,474.1878967285156,168.47593688964844,901.8215942382812,741.98486328125,174.25277709960938,0.0,0.0,0.0,0.0,0.0,0.0,0.0,0.0,0.0,0.0,0.0,0.0,1.0,5.0292,8.1874,-1.3877,0.1221,-0.4272,-0.1221,99.6075,-31.2286,-159.928,0.2993,0.6941,-0.6479,-0.0941,0.0,0.0,0.0,0.0,0.0,0.0,0.0,0.0,0.0,0.0,0.0,0.0,1.0,0.0,0.0,0.0,0.0,0.0,0.0,0.0,0.0,0.0,0.0,0.0,0.0,1.0,0.0,0.0,0.0,0.0,0.0,0.0,0.0,0.0,0.0,0.0,0.0,0.0,1.0,0.0,0.0,0.0,0.0,0.0,0.0,0.0,0.0,0.0,0.0,0.0,0.0,1.0,0.0,0.0,0.0,0.0,0.0,0.0,0.0,0.0,0.0,0.0,0.0,0.0,1.0,0,0,0,0,0,0,0,0,0,0,0,0,0,0,0,0,0,0,0,0,0,0,0,0,0,0,0,0,0,0,0,0,0,0,0,0
1777291078.4223506,10700,1777291072.345571,1777291072.314065,,0,0,31.506061553955078,,1,0,0.0,0.0,0.0,0.0,0.0,0.0,0.0,0.0,0.0,0.0,0.0,0.0,0.0,0.0,0.0,0.0,0.0,0.0,0.0,0.0,0.0,0.0,0.0,0.0,0.0,0.0,0.0,737.6339721679688,630.4456787109375,1124.640380859375,982.7297973632812,686.1383056640625,1124.412109375,802.8221435546875,456.0987854003906,1152.41552734375,962.20703125,474.3994445800781,1153.6536865234375,668.9560546875,593.6853637695312,878.89111328125,680.8819580078125,688.0398559570312,636.575927734375,687.248779296875,568.1448974609375,524.7393188476562,724.82275390625,460.5843505859375,358.652587890625,819.6458740234375,357.1932678222656,334.5358581542969,704.763916015625,566.9622802734375,208.61253356933594,1037.8238525390625,641.8529052734375,801.1494140625,982.9833374023438,605.9866943359375,568.9032592773438,994.2412109375,593.39453125,432.7879333496094,947.18359375,555.3333129882812,225.27752685546875,898.3764038085938,466.647705078125,168.81008911132812,902.0116577148438,734.4279174804688,174.24913024902344,0.0,0.0,0.0,0.0,0.0,0.0,0.0,0.0,0.0,0.0,0.0,0.0,1.0,5.0292,8.1874,-1.3877,0.1221,-0.4272,-0.1221,99.6075,-31.2286,-159.928,0.2993,0.6941,-0.6479,-0.0941,0.0,0.0,0.0,0.0,0.0,0.0,0.0,0.0,0.0,0.0,0.0,0.0,1.0,0.0,0.0,0.0,0.0,0.0,0.0,0.0,0.0,0.0,0.0,0.0,0.0,1.0,0.0,0.0,0.0,0.0,0.0,0.0,0.0,0.0,0.0,0.0,0.0,0.0,1.0,0.0,0.0,0.0,0.0,0.0,0.0,0.0,0.0,0.0,0.0,0.0,0.0,1.0,0.0,0.0,0.0,0.0,0.0,0.0,0.0,0.0,0.0,0.0,0.0,0.0,1.0,0,0,0,0,0,0,0,0,0,0,0,0,0,0,0,0,0,0,0,0,0,0,0,0,0,0,0,0,0,0,0,0,0,0,0,0
1777291078.4223506,10701,1777291072.3499572,1777291072.314065,,0,0,35.89224815368652,,1,0,0.0,0.0,0.0,0.0,0.0,0.0,0.0,0.0,0.0,0.0,0.0,0.0,0.0,0.0,0.0,0.0,0.0,0.0,0.0,0.0,0.0,0.0,0.0,0.0,0.0,0.0,0.0,737.7819213867188,629.2322387695312,1125.7498779296875,982.7410888671875,685.42236328125,1124.7159423828125,803.3843383789062,454.9476623535156,1153.3275146484375,962.6754150390625,473.7174987792969,1154.233154296875,669.4830322265625,592.4701538085938,880.6483154296875,680.4246826171875,690.742431640625,639.1588745117188,686.5810546875,574.280029296875,522.748291015625,723.275146484375,472.8987121582031,352.59716796875,818.1395263671875,371.10064697265625,322.4766540527344,700.1171264648438,585.7984008789062,207.87484741210938,1037.4215087890625,639.5048828125,801.05419921875,982.8519287109375,601.4237670898438,569.043701171875,994.1683349609375,587.7970581054688,433.03692626953125,947.179931640625,548.0986938476562,225.7865753173828,898.5645141601562,459.1264953613281,169.13763427734375,902.2125854492188,726.8795776367188,174.2508544921875,0.0,0.0,0.0,0.0,0.0,0.0,0.0,0.0,0.0,0.0,0.0,0.0,1.0,5.0292,8.1874,-1.3877,0.1221,-0.4272,-0.1221,99.6075,-31.2286,-159.928,0.2993,0.6941,-0.6479,-0.0941,0.0,0.0,0.0,0.0,0.0,0.0,0.0,0.0,0.0,0.0,0.0,0.0,1.0,0.0,0.0,0.0,0.0,0.0,0.0,0.0,0.0,0.0,0.0,0.0,0.0,1.0,0.0,0.0,0.0,0.0,0.0,0.0,0.0,0.0,0.0,0.0,0.0,0.0,1.0,0.0,0.0,0.0,0.0,0.0,0.0,0.0,0.0,0.0,0.0,0.0,0.0,1.0,0.0,0.0,0.0,0.0,0.0,0.0,0.0,0.0,0.0,0.0,0.0,0.0,1.0,0,0,0,0,0,0,0,0,0,0,0,0,0,0,0,0,0,0,0,0,0,0,0,0,0,0,0,0,0,0,0,0,0,0,0,0
1777291078.4223506,10702,1777291072.3640692,1777291072.314065,,0,0,50.00424385070801,,1,0,0.0,0.0,0.0,0.0,0.0,0.0,0.0,0.0,0.0,0.0,0.0,0.0,0.0,0.0,0.0,0.0,0.0,0.0,0.0,0.0,0.0,0.0,0.0,0.0,0.0,0.0,0.0,737.877685546875,628.0219116210938,1126.7890625,982.7135620117188,684.646240234375,1124.945556640625,803.8410034179688,453.7895202636719,1154.191162109375,963.04736328125,472.97747802734375,1154.7637939453125,670.131591796875,590.8182983398438,882.1168823242188,680.156494140625,692.8157348632812,641.3587036132812,685.8726196289062,580.2300415039062,520.0772705078125,721.4804077148438,485.70208740234375,345.7818908691406,816.2586669921875,385.8918151855469,309.61370849609375,695.5211181640625,605.1431274414062,206.74282836914062,1037.004638671875,637.0462646484375,800.9546508789062,982.7203369140625,596.796630859375,569.187255859375,994.0973510742188,582.1087646484375,433.2919006347656,947.1692504882812,540.8474731445312,226.2899627685547,898.7368774414062,451.6242980957031,169.45291137695312,902.4171142578125,719.3408203125,174.25338745117188,0.0,0.0,0.0,0.0,0.0,0.0,0.0,0.0,0.0,0.0,0.0,0.0,1.0,5.0292,8.1874,-1.3877,0.1221,-0.4272,-0.1221,99.6075,-31.2286,-159.928,0.2993,0.6941,-0.6479,-0.0941,0.0,0.0,0.0,0.0,0.0,0.0,0.0,0.0,0.0,0.0,0.0,0.0,1.0,0.0,0.0,0.0,0.0,0.0,0.0,0.0,0.0,0.0,0.0,0.0,0.0,1.0,0.0,0.0,0.0,0.0,0.0,0.0,0.0,0.0,0.0,0.0,0.0,0.0,1.0,0.0,0.0,0.0,0.0,0.0,0.0,0.0,0.0,0.0,0.0,0.0,0.0,1.0,0.0,0.0,0.0,0.0,0.0,0.0,0.0,0.0,0.0,0.0,0.0,0.0,1.0,0,0,0,0,0,0,0,0,0,0,0,0,0,0,0,0,0,0,0,0,0,0,0,0,0,0,0,0,0,0,0,0,0,0,0,0
1777291078.4223506,10703,1777291072.3810375,1777291072.314065,,0,0,66.97249412536621,,1,0,0.0,0.0,0.0,0.0,0.0,0.0,0.0,0.0,0.0,0.0,0.0,0.0,0.0,0.0,0.0,0.0,0.0,0.0,0.0,0.0,0.0,0.0,0.0,0.0,0.0,0.0,0.0,737.9215698242188,626.8184814453125,1127.7421875,982.6476440429688,683.8173217773438,1125.0950927734375,804.1930541992188,452.6300964355469,1154.995361328125,963.3239135742188,472.1857604980469,1155.2412109375,670.85595703125,588.7904052734375,883.289794921875,680.0599975585938,694.2561645507812,643.1470947265625,685.1153564453125,586.0128173828125,516.7782592773438,719.4500122070312,499.0030212402344,338.3586120605469,814.0947265625,401.57708740234375,296.1363830566406,690.9824829101562,624.9335327148438,205.36395263671875,1036.58251953125,634.47265625,800.8372192382812,982.586669921875,592.1051635742188,569.3221435546875,994.0225219726562,576.33837890625,433.54034423828125,947.1454467773438,533.5821533203125,226.78074645996094,898.8903198242188,444.1380310058594,169.7507781982422,902.6212768554688,711.8099365234375,174.25506591796875,0.0,0.0,0.0,0.0,0.0,0.0,0.0,0.0,0.0,0.0,0.0,0.0,1.0,5.0292,8.1874,-1.3877,0.1221,-0.4272,-0.1221,99.6075,-31.2286,-159.928,0.2993,0.6941,-0.6479,-0.0941,0.0,0.0,0.0,0.0,0.0,0.0,0.0,0.0,0.0,0.0,0.0,0.0,1.0,0.0,0.0,0.0,0.0,0.0,0.0,0.0,0.0,0.0,0.0,0.0,0.0,1.0,0.0,0.0,0.0,0.0,0.0,0.0,0.0,0.0,0.0,0.0,0.0,0.0,1.0,0.0,0.0,0.0,0.0,0.0,0.0,0.0,0.0,0.0,0.0,0.0,0.0,1.0,0.0,0.0,0.0,0.0,0.0,0.0,0.0,0.0,0.0,0.0,0.0,0.0,1.0,0,0,0,0,0,0,0,0,0,0,0,0,0,0,0,0,0,0,0,0,0,0,0,0,0,0,0,0,0,0,0,0,0,0,0,0
1777291078.4223506,10704,1777291072.384758,1777291072.314065,,0,0,70.6930160522461,,1,0,0.0,0.0,0.0,0.0,0.0,0.0,0.0,0.0,0.0,0.0,0.0,0.0,0.0,0.0,0.0,0.0,0.0,0.0,0.0,0.0,0.0,0.0,0.0,0.0,0.0,0.0,0.0,737.9144897460938,625.6258544921875,1128.59326171875,982.54443359375,682.942626953125,1125.1580810546875,804.4417114257812,451.4745788574219,1155.72900390625,963.5066528320312,471.34844970703125,1155.6605224609375,671.605224609375,586.4542236328125,884.1671752929688,680.115234375,695.0668334960938,644.5042114257812,684.3005981445312,591.64990234375,512.9149169921875,717.2001953125,512.804443359375,330.49176025390625,811.7310791015625,418.1449890136719,282.27178955078125,686.518798828125,645.0985717773438,203.89048767089844,1036.1602783203125,631.7857055664062,800.6901245117188,982.449462890625,587.3538818359375,569.4373779296875,993.9404907226562,570.4985961914062,433.771240234375,947.1070556640625,526.3049926757812,227.2535400390625,899.0245971679688,436.6623840332031,170.02706909179688,902.82373046875,704.2833862304688,174.2564239501953,0.0,0.0,0.0,0.0,0.0,0.0,0.0,0.0,0.0,0.0,0.0,0.0,1.0,5.0292,8.1874,-1.3877,0.1221,-0.4272,-0.1221,99.6075,-31.2286,-159.928,0.2993,0.6941,-0.6479,-0.0941,0.0,0.0,0.0,0.0,0.0,0.0,0.0,0.0,0.0,0.0,0.0,0.0,1.0,0.0,0.0,0.0,0.0,0.0,0.0,0.0,0.0,0.0,0.0,0.0,0.0,1.0,0.0,0.0,0.0,0.0,0.0,0.0,0.0,0.0,0.0,0.0,0.0,0.0,1.0,0.0,0.0,0.0,0.0,0.0,0.0,0.0,0.0,0.0,0.0,0.0,0.0,1.0,0.0,0.0,0.0,0.0,0.0,0.0,0.0,0.0,0.0,0.0,0.0,0.0,1.0,0,0,0,0,0,0,0,0,0,0,0,0,0,0,0,0,0,0,0,0,0,0,0,0,0,0,0,0,0,0,0,0,0,0,0,0
1777291078.4223506,10705,1777291072.4008887,1777291072.4008887,,0,0,0.0,,1,0,0.0,0.0,0.0,0.0,0.0,0.0,0.0,0.0,0.0,0.0,0.0,0.0,0.0,0.0,0.0,0.0,0.0,0.0,0.0,0.0,0.0,0.0,0.0,0.0,0.0,0.0,0.0,737.8574829101562,624.4475708007812,1129.3275146484375,982.4052734375,682.0285034179688,1125.12841796875,804.58837890625,450.327880859375,1156.381591796875,963.5972900390625,470.471435546875,1156.0167236328125,672.3268432617188,583.8812255859375,884.7554321289062,680.3001708984375,695.25927734375,645.4197387695312,683.4198608398438,597.1646118164062,508.5633239746094,714.7521362304688,527.0999145507812,322.3551025390625,809.2291259765625,435.5525207519531,268.26837158203125,682.1678466796875,665.5626831054688,202.48191833496094,1035.7392578125,628.9937133789062,800.503173828125,982.3077392578125,582.5523071289062,569.5230102539062,993.8499145507812,564.60498046875,433.97552490234375,947.0560913085938,519.0181884765625,227.70455932617188,899.1417846679688,429.19073486328125,170.27915954589844,903.025634765625,696.7572631835938,174.25929260253906,0.0,0.0,0.0,0.0,0.0,0.0,0.0,0.0,0.0,0.0,0.0,0.0,1.0,5.034,8.1826,-1.3781,0.1831,-0.3662,-0.1831,99.6075,-31.2286,-159.928,0.2993,0.6941,-0.6479,-0.0941,0.0,0.0,0.0,0.0,0.0,0.0,0.0,0.0,0.0,0.0,0.0,0.0,1.0,0.0,0.0,0.0,0.0,0.0,0.0,0.0,0.0,0.0,0.0,0.0,0.0,1.0,0.0,0.0,0.0,0.0,0.0,0.0,0.0,0.0,0.0,0.0,0.0,0.0,1.0,0.0,0.0,0.0,0.0,0.0,0.0,0.0,0.0,0.0,0.0,0.0,0.0,1.0,0.0,0.0,0.0,0.0,0.0,0.0,0.0,0.0,0.0,0.0,0.0,0.0,1.0,0,0,0,0,0,0,0,0,0,0,0,0,0,0,0,0,0,0,0,0,0,0,0,0,0,0,0,0,0,0,0,0,0,0,0,0
1777291078.4223506,10706,1777291072.4024906,1777291072.4008887,,0,0,1.6019344329833984,,1,0,0.0,0.0,0.0,0.0,0.0,0.0,0.0,0.0,0.0,0.0,0.0,0.0,0.0,0.0,0.0,0.0,0.0,0.0,0.0,0.0,0.0,0.0,0.0,0.0,0.0,0.0,0.0,737.7515869140625,623.287109375,1129.9310302734375,982.2318725585938,681.0811157226562,1125.0006103515625,804.6350708007812,449.1943664550781,1156.9432373046875,963.5978393554688,469.56036376953125,1156.3050537109375,672.9699096679688,581.1425170898438,885.066162109375,680.5914916992188,694.8546142578125,645.8937377929688,682.4661254882812,602.5794067382812,503.8123474121094,712.13134765625,541.8688354492188,314.12811279296875,806.6173706054688,453.7190246582031,254.37574768066406,677.993896484375,686.2484130859375,201.30572509765625,1035.3182373046875,626.1109008789062,800.2683715820312,982.1604614257812,577.7136840820312,569.5704345703125,993.7504272460938,558.6749877929688,434.1458435058594,946.996826171875,511.7237548828125,228.13153076171875,899.2460327148438,421.7160949707031,170.5067138671875,903.2298583984375,689.228271484375,174.26577758789062,0.0,0.0,0.0,0.0,0.0,0.0,0.0,0.0,0.0,0.0,0.0,0.0,1.0,5.034,8.1826,-1.3781,0.1831,-0.3662,-0.1831,99.6075,-31.2286,-159.928,0.2993,0.6941,-0.6479,-0.0941,0.0,0.0,0.0,0.0,0.0,0.0,0.0,0.0,0.0,0.0,0.0,0.0,1.0,0.0,0.0,0.0,0.0,0.0,0.0,0.0,0.0,0.0,0.0,0.0,0.0,1.0,0.0,0.0,0.0,0.0,0.0,0.0,0.0,0.0,0.0,0.0,0.0,0.0,1.0,0.0,0.0,0.0,0.0,0.0,0.0,0.0,0.0,0.0,0.0,0.0,0.0,1.0,0.0,0.0,0.0,0.0,0.0,0.0,0.0,0.0,0.0,0.0,0.0,0.0,1.0,0,0,0,0,0,0,0,0,0,0,0,0,0,0,0,0,0,0,0,0,0,0,0,0,0,0,0,0,0,0,0,0,0,0,0,0
1777291078.4223506,10707,1777291072.4161823,1777291072.4008887,,0,0,15.293598175048828,,1,0,0.0,0.0,0.0,0.0,0.0,0.0,0.0,0.0,0.0,0.0,0.0,0.0,0.0,0.0,0.0,0.0,0.0,0.0,0.0,0.0,0.0,0.0,0.0,0.0,0.0,0.0,0.0,737.5975952148438,622.1478271484375,1130.392822265625,982.0255126953125,680.1060180664062,1124.7708740234375,804.5838012695312,448.07818603515625,1157.404541015625,963.5105590820312,468.6208190917969,1156.5206298828125,673.4889526367188,578.3047485351562,885.11474609375,680.9653930664062,693.8848266601562,645.9368286132812,681.434814453125,607.9129638671875,498.7628479003906,709.3675537109375,557.0713500976562,305.9912109375,803.8851318359375,472.5258483886719,240.82595825195312,674.0889282226562,707.0757446289062,200.53480529785156,1034.8939208984375,623.1564331054688,799.9793090820312,982.006103515625,572.8543701171875,569.572509765625,993.642333984375,552.7268676757812,434.2767028808594,946.9342651367188,504.4239501953125,228.53370666503906,899.3429565429688,414.2318115234375,170.71197509765625,903.4398193359375,681.6941528320312,174.27735900878906,0.0,0.0,0.0,0.0,0.0,0.0,0.0,0.0,0.0,0.0,0.0,0.0,1.0,5.034,8.1826,-1.3781,0.1831,-0.3662,-0.1831,99.6075,-31.2286,-159.928,0.2993,0.6941,-0.6479,-0.0941,0.0,0.0,0.0,0.0,0.0,0.0,0.0,0.0,0.0,0.0,0.0,0.0,1.0,0.0,0.0,0.0,0.0,0.0,0.0,0.0,0.0,0.0,0.0,0.0,0.0,1.0,0.0,0.0,0.0,0.0,0.0,0.0,0.0,0.0,0.0,0.0,0.0,0.0,1.0,0.0,0.0,0.0,0.0,0.0,0.0,0.0,0.0,0.0,0.0,0.0,0.0,1.0,0.0,0.0,0.0,0.0,0.0,0.0,0.0,0.0,0.0,0.0,0.0,0.0,1.0,0,0,0,0,0,0,0,0,0,0,0,0,0,0,0,0,0,0,0,0,0,0,0,0,0,0,0,0,0,0,0,0,0,0,0,0
1777291078.4223506,10708,1777291072.420767,1777291072.4008887,,0,0,19.878387451171875,,1,0,0.0,0.0,0.0,0.0,0.0,0.0,0.0,0.0,0.0,0.0,0.0,0.0,0.0,0.0,0.0,0.0,0.0,0.0,0.0,0.0,0.0,0.0,0.0,0.0,0.0,0.0,0.0,737.39599609375,621.032958984375,1130.7039794921875,981.787109375,679.1087036132812,1124.43701171875,804.4371337890625,446.9830627441406,1157.7574462890625,963.337890625,467.6583557128906,1156.658935546875,673.8468017578125,575.426513671875,884.918701171875,681.3983154296875,692.3932495117188,645.5701904296875,680.3248901367188,613.1775512695312,493.52593994140625,706.4940185546875,572.6432495117188,298.1201477050781,800.9855346679688,491.8193054199219,227.8201446533203,670.5682373046875,727.9580078125,200.33969116210938,1034.4615478515625,620.153076171875,799.63134765625,981.8425903320312,567.9924926757812,569.5236206054688,993.5253295898438,546.7786865234375,434.3643798828125,946.8733520507812,497.1212158203125,228.91177368164062,899.4385375976562,406.7324523925781,170.89938354492188,903.6583862304688,674.1537475585938,174.29385375976562,0.0,0.0,0.0,0.0,0.0,0.0,0.0,0.0,0.0,0.0,0.0,0.0,1.0,5.034,8.1826,-1.3781,0.1831,-0.3662,-0.1831,99.6075,-31.2286,-159.928,0.2993,0.6941,-0.6479,-0.0941,0.0,0.0,0.0,0.0,0.0,0.0,0.0,0.0,0.0,0.0,0.0,0.0,1.0,0.0,0.0,0.0,0.0,0.0,0.0,0.0,0.0,0.0,0.0,0.0,0.0,1.0,0.0,0.0,0.0,0.0,0.0,0.0,0.0,0.0,0.0,0.0,0.0,0.0,1.0,0.0,0.0,0.0,0.0,0.0,0.0,0.0,0.0,0.0,0.0,0.0,0.0,1.0,0.0,0.0,0.0,0.0,0.0,0.0,0.0,0.0,0.0,0.0,0.0,0.0,1.0,0,0,0,0,0,0,0,0,0,0,0,0,0,0,0,0,0,0,0,0,0,0,0,0,0,0,0,0,0,0,0,0,0,0,0,0
1777291078.4223506,10709,1777291072.4352767,1777291072.4008887,,0,0,34.388065338134766,,1,0,0.0,0.0,0.0,0.0,0.0,0.0,0.0,0.0,0.0,0.0,0.0,0.0,0.0,0.0,0.0,0.0,0.0,0.0,0.0,0.0,0.0,0.0,0.0,0.0,0.0,0.0,0.0,737.1468505859375,619.9453735351562,1130.859130859375,981.5170288085938,678.094482421875,1123.999267578125,804.197998046875,445.9125061035156,1157.9949951171875,963.08251953125,466.6787414550781,1156.71533203125,674.0172119140625,572.5563354492188,884.4967041015625,681.86767578125,690.4344482421875,644.8248291015625,679.138671875,618.376953125,488.219482421875,703.5473022460938,588.491455078125,290.6796875,797.8489379882812,511.4160461425781,215.52142333984375,667.5604858398438,748.794189453125,200.87551879882812,1034.015869140625,617.1254272460938,799.221435546875,981.6668090820312,563.1468505859375,569.4200439453125,993.3984985351562,540.8480224609375,434.406982421875,946.8176879882812,489.8182373046875,229.2678680419922,899.5380859375,399.21453857421875,171.07464599609375,903.88720703125,666.6068115234375,174.3130340576172,0.0,0.0,0.0,0.0,0.0,0.0,0.0,0.0,0.0,0.0,0.0,0.0,1.0,5.034,8.1826,-1.3781,0.1831,-0.3662,-0.1831,99.6075,-31.2286,-159.928,0.2993,0.6941,-0.6479,-0.0941,0.0,0.0,0.0,0.0,0.0,0.0,0.0,0.0,0.0,0.0,0.0,0.0,1.0,0.0,0.0,0.0,0.0,0.0,0.0,0.0,0.0,0.0,0.0,0.0,0.0,1.0,0.0,0.0,0.0,0.0,0.0,0.0,0.0,0.0,0.0,0.0,0.0,0.0,1.0,0.0,0.0,0.0,0.0,0.0,0.0,0.0,0.0,0.0,0.0,0.0,0.0,1.0,0.0,0.0,0.0,0.0,0.0,0.0,0.0,0.0,0.0,0.0,0.0,0.0,1.0,0,0,0,0,0,0,0,0,0,0,0,0,0,0,0,0,0,0,0,0,0,0,0,0,0,0,0,0,0,0,0,0,0,0,0,0
