Timestamp,Vicon_Frame_Num,IsDuplicate,Vicon_Root_X,Vicon_Root_Y,Vicon_Root_Z,Vicon_L_Femur_X,Vicon_L_Femur_Y,Vicon_L_Femur_Z,Vicon_L_Tibia_X,Vicon_L_Tibia_Y,Vicon_L_Tibia_Z,Vicon_L_Foot_X,Vicon_L_Foot_Y,Vicon_L_Foot_Z,Vicon_L_Toe_X,Vicon_L_Toe_Y,Vicon_L_Toe_Z,Vicon_R_Femur_X,Vicon_R_Femur_Y,Vicon_R_Femur_Z,Vicon_R_Tibia_X,Vicon_R_Tibia_Y,Vicon_R_Tibia_Z,Vicon_R_Foot_X,Vicon_R_Foot_Y,Vicon_R_Foot_Z,Vicon_R_Toe_X,Vicon_R_Toe_Y,Vicon_R_Toe_Z,Vicon_LASI_X,Vicon_LASI_Y,Vicon_LASI_Z,Vicon_RASI_X,Vicon_RASI_Y,Vicon_RASI_Z,Vicon_LPSI_X,Vicon_LPSI_Y,Vicon_LPSI_Z,Vicon_RPSI_X,Vicon_RPSI_Y,Vicon_RPSI_Z,Vicon_LTHI_X,Vicon_LTHI_Y,Vicon_LTHI_Z,Vicon_LKNE_X,Vicon_LKNE_Y,Vicon_LKNE_Z,Vicon_LTIB_X,Vicon_LTIB_Y,Vicon_LTIB_Z,Vicon_LANK_X,Vicon_LANK_Y,Vicon_LANK_Z,Vicon_LHEE_X,Vicon_LHEE_Y,Vicon_LHEE_Z,Vicon_LTOE_X,Vicon_LTOE_Y,Vicon_LTOE_Z,Vicon_RTHI_X,Vicon_RTHI_Y,Vicon_RTHI_Z,Vicon_RKNE_X,Vicon_RKNE_Y,Vicon_RKNE_Z,Vicon_RTIB_X,Vicon_RTIB_Y,Vicon_RTIB_Z,Vicon_RANK_X,Vicon_RANK_Y,Vicon_RANK_Z,Vicon_RHEE_X,Vicon_RHEE_Y,Vicon_RHEE_Z,Vicon_RTOE_X,Vicon_RTOE_Y,Vicon_RTOE_Z,IMU_Trunk_Acc_X,IMU_Trunk_Acc_Y,IMU_Trunk_Acc_Z,IMU_Trunk_Gyro_X,IMU_Trunk_Gyro_Y,IMU_Trunk_Gyro_Z,IMU_Trunk_Roll,IMU_Trunk_Pitch,IMU_Trunk_Yaw,IMU_Trunk_Quat_x,IMU_Trunk_Quat_y,IMU_Trunk_Quat_z,IMU_Trunk_Quat_w,IMU_L_Femur_Acc_X,IMU_L_Femur_Acc_Y,IMU_L_Femur_Acc_Z,IMU_L_Femur_Gyro_X,IMU_L_Femur_Gyro_Y,IMU_L_Femur_Gyro_Z,IMU_L_Femur_Roll,IMU_L_Femur_Pitch,IMU_L_Femur_Yaw,IMU_L_Femur_Quat_x,IMU_L_Femur_Quat_y,IMU_L_Femur_Quat_z,IMU_L_Femur_Quat_w,IMU_L_Tibia_Acc_X,IMU_L_Tibia_Acc_Y,IMU_L_Tibia_Acc_Z,IMU_L_Tibia_Gyro_X,IMU_L_Tibia_Gyro_Y,IMU_L_Tibia_Gyro_Z,IMU_L_Tibia_Roll,IMU_L_Tibia_Pitch,IMU_L_Tibia_Yaw,IMU_L_Tibia_Quat_x,IMU_L_Tibia_Quat_y,IMU_L_Tibia_Quat_z,IMU_L_Tibia_Quat_w,IMU_L_Foot_Acc_X,IMU_L_Foot_Acc_Y,IMU_L_Foot_Acc_Z,IMU_L_Foot_Gyro_X,IMU_L_Foot_Gyro_Y,IMU_L_Foot_Gyro_Z,IMU_L_Foot_Roll,IMU_L_Foot_Pitch,IMU_L_Foot_Yaw,IMU_L_Foot_Quat_x,IMU_L_Foot_Quat_y,IMU_L_Foot_Quat_z,IMU_L_Foot_Quat_w,IMU_R_Femur_Acc_X,IMU_R_Femur_Acc_Y,IMU_R_Femur_Acc_Z,IMU_R_Femur_Gyro_X,IMU_R_Femur_Gyro_Y,IMU_R_Femur_Gyro_Z,IMU_R_Femur_Roll,IMU_R_Femur_Pitch,IMU_R_Femur_Yaw,IMU_R_Femur_Quat_x,IMU_R_Femur_Quat_y,IMU_R_Femur_Quat_z,IMU_R_Femur_Quat_w,IMU_R_Tibia_Acc_X,IMU_R_Tibia_Acc_Y,IMU_R_Tibia_Acc_Z,IMU_R_Tibia_Gyro_X,IMU_R_Tibia_Gyro_Y,IMU_R_Tibia_Gyro_Z,IMU_R_Tibia_Roll,IMU_R_Tibia_Pitch,IMU_R_Tibia_Yaw,IMU_R_Tibia_Quat_x,IMU_R_Tibia_Quat_y,IMU_R_Tibia_Quat_z,IMU_R_Tibia_Quat_w,IMU_R_Foot_Acc_X,IMU_R_Foot_Acc_Y,IMU_R_Foot_Acc_Z,IMU_R_Foot_Gyro_X,IMU_R_Foot_Gyro_Y,IMU_R_Foot_Gyro_Z,IMU_R_Foot_Roll,IMU_R_Foot_Pitch,IMU_R_Foot_Yaw,IMU_R_Foot_Quat_x,IMU_R_Foot_Quat_y,IMU_R_Foot_Quat_z,IMU_R_Foot_Quat_w,Planter_Left_0,Planter_Left_1,Planter_Left_2,Planter_Left_3,Planter_Left_4,Planter_Left_5,Planter_Left_6,Planter_Left_7,Planter_Left_8,Planter_Left_9,Planter_Left_10,Planter_Left_11,Planter_Left_12,Planter_Left_13,Planter_Left_14,Planter_Left_15,Planter_Left_16,Planter_Left_17,Planter_Right_0,Planter_Right_1,Planter_Right_2,Planter_Right_3,Planter_Right_4,Planter_Right_5,Planter_Right_6,Planter_Right_7,Planter_Right_8,Planter_Right_9,Planter_Right_10,Planter_Right_11,Planter_Right_12,Planter_Right_13,Planter_Right_14,Planter_Right_15,Planter_Right_16,Planter_Right_17
1777280248.698345,898,0,0.0,0.0,0.0,0.0,0.0,0.0,0.0,0.0,0.0,0.0,0.0,0.0,0.0,0.0,0.0,0.0,0.0,0.0,0.0,0.0,0.0,0.0,0.0,0.0,0.0,0.0,0.0,683.394287109375,578.0553588867188,1120.93310546875,933.2542114257812,598.1702270507812,1137.3226318359375,724.7516479492188,399.22930908203125,1161.4776611328125,885.4492797851562,391.2364196777344,1167.240966796875,636.0891723632812,482.2505187988281,861.484619140625,682.17578125,521.4467163085938,605.165283203125,679.8668212890625,464.5578918457031,437.3144226074219,715.53369140625,455.9046936035156,237.69680786132812,789.696044921875,364.1065673828125,161.70143127441406,749.5869140625,630.0039672851562,184.51124572753906,1010.807861328125,594.6038208007812,843.03564453125,973.8400268554688,619.7546997070312,619.3236083984375,984.196533203125,567.7570190429688,497.34210205078125,941.00830078125,501.6849365234375,293.3013000488281,858.4119262695312,434.9555358886719,227.4857177734375,970.625244140625,676.0724487304688,212.3085479736328,0.0,0.0,0.0,0.0,0.0,0.0,0.0,0.0,0.0,0.0,0.0,0.0,1.0,0.0,0.0,0.0,0.0,0.0,0.0,0.0,0.0,0.0,0.0,0.0,0.0,1.0,0.0,0.0,0.0,0.0,0.0,0.0,0.0,0.0,0.0,0.0,0.0,0.0,1.0,0.0,0.0,0.0,0.0,0.0,0.0,0.0,0.0,0.0,0.0,0.0,0.0,1.0,0.0,0.0,0.0,0.0,0.0,0.0,0.0,0.0,0.0,0.0,0.0,0.0,1.0,0.0,0.0,0.0,0.0,0.0,0.0,0.0,0.0,0.0,0.0,0.0,0.0,1.0,0.0,0.0,0.0,0.0,0.0,0.0,0.0,0.0,0.0,0.0,0.0,0.0,1.0,0,0,0,0,0,0,0,0,0,0,0,0,0,0,0,0,0,0,0,0,0,0,0,0,0,0,0,0,0,0,0,0,0,0,0,0
1777280248.7251241,899,0,0.0,0.0,0.0,0.0,0.0,0.0,0.0,0.0,0.0,0.0,0.0,0.0,0.0,0.0,0.0,0.0,0.0,0.0,0.0,0.0,0.0,0.0,0.0,0.0,0.0,0.0,0.0,683.1734619140625,575.861328125,1120.846923828125,933.0215454101562,596.2510986328125,1137.7098388671875,724.709716796875,397.1319274902344,1161.929443359375,885.4215698242188,389.2873229980469,1167.922119140625,636.3287963867188,478.49627685546875,861.6813354492188,682.3275146484375,515.7296752929688,605.1952514648438,680.1651611328125,457.9459228515625,437.6401672363281,715.9076538085938,448.44964599609375,237.9831085205078,789.935302734375,356.4324645996094,161.95852661132812,749.7774047851562,622.3903198242188,184.51580810546875,1011.0150146484375,593.2024536132812,844.1998901367188,973.6494140625,619.917236328125,619.3494262695312,984.6126708984375,572.7885131835938,495.12255859375,942.109375,515.1055908203125,288.11749267578125,859.8841552734375,450.3885803222656,220.16607666015625,970.4092407226562,692.7435302734375,212.64830017089844,0.0,0.0,0.0,0.0,0.0,0.0,0.0,0.0,0.0,0.0,0.0,0.0,1.0,0.0,0.0,0.0,0.0,0.0,0.0,0.0,0.0,0.0,0.0,0.0,0.0,1.0,0.0,0.0,0.0,0.0,0.0,0.0,0.0,0.0,0.0,0.0,0.0,0.0,1.0,0.0,0.0,0.0,0.0,0.0,0.0,0.0,0.0,0.0,0.0,0.0,0.0,1.0,0.0,0.0,0.0,0.0,0.0,0.0,0.0,0.0,0.0,0.0,0.0,0.0,1.0,0.0,0.0,0.0,0.0,0.0,0.0,0.0,0.0,0.0,0.0,0.0,0.0,1.0,0.0,0.0,0.0,0.0,0.0,0.0,0.0,0.0,0.0,0.0,0.0,0.0,1.0,0,0,0,0,0,0,0,0,0,0,0,0,0,0,0,0,0,0,0,0,0,0,0,0,0,0,0,0,0,0,0,0,0,0,0,0
1777280248.7276275,901,0,0.0,0.0,0.0,0.0,0.0,0.0,0.0,0.0,0.0,0.0,0.0,0.0,0.0,0.0,0.0,0.0,0.0,0.0,0.0,0.0,0.0,0.0,0.0,0.0,0.0,0.0,0.0,682.85400390625,571.5960083007812,1120.4703369140625,932.67724609375,592.5952758789062,1138.09228515625,724.8176879882812,393.07598876953125,1162.640625,885.5653686523438,385.5926513671875,1168.9947509765625,636.8919067382812,471.0356750488281,861.9230346679688,682.7815551757812,504.24273681640625,605.1040649414062,680.914794921875,444.7197570800781,438.1034240722656,716.8366088867188,433.5502014160156,238.43792724609375,790.4721069335938,341.126220703125,162.3445281982422,750.2183837890625,607.1640014648438,184.4840545654297,1011.6275634765625,589.9630737304688,845.6537475585938,973.2952880859375,619.4471435546875,618.6993408203125,985.3949584960938,582.461669921875,490.54498291015625,944.0477294921875,542.1536254882812,278.6354675292969,862.5756225585938,481.247802734375,207.36508178710938,969.30322265625,725.6552734375,213.41346740722656,0.0,0.0,0.0,0.0,0.0,0.0,0.0,0.0,0.0,0.0,0.0,0.0,1.0,0.0,0.0,0.0,0.0,0.0,0.0,0.0,0.0,0.0,0.0,0.0,0.0,1.0,0.0,0.0,0.0,0.0,0.0,0.0,0.0,0.0,0.0,0.0,0.0,0.0,1.0,0.0,0.0,0.0,0.0,0.0,0.0,0.0,0.0,0.0,0.0,0.0,0.0,1.0,0.0,0.0,0.0,0.0,0.0,0.0,0.0,0.0,0.0,0.0,0.0,0.0,1.0,0.0,0.0,0.0,0.0,0.0,0.0,0.0,0.0,0.0,0.0,0.0,0.0,1.0,0.0,0.0,0.0,0.0,0.0,0.0,0.0,0.0,0.0,0.0,0.0,0.0,1.0,0,0,0,0,0,0,0,0,0,0,0,0,0,0,0,0,0,0,0,0,0,0,0,0,0,0,0,0,0,0,0,0,0,0,0,0
1777280248.739943,901,1,0.0,0.0,0.0,0.0,0.0,0.0,0.0,0.0,0.0,0.0,0.0,0.0,0.0,0.0,0.0,0.0,0.0,0.0,0.0,0.0,0.0,0.0,0.0,0.0,0.0,0.0,0.0,682.85400390625,571.5960083007812,1120.4703369140625,932.67724609375,592.5952758789062,1138.09228515625,724.8176879882812,393.07598876953125,1162.640625,885.5653686523438,385.5926513671875,1168.9947509765625,636.8919067382812,471.0356750488281,861.9230346679688,682.7815551757812,504.24273681640625,605.1040649414062,680.914794921875,444.7197570800781,438.1034240722656,716.8366088867188,433.5502014160156,238.43792724609375,790.4721069335938,341.126220703125,162.3445281982422,750.2183837890625,607.1640014648438,184.4840545654297,1011.6275634765625,589.9630737304688,845.6537475585938,973.2952880859375,619.4471435546875,618.6993408203125,985.3949584960938,582.461669921875,490.54498291015625,944.0477294921875,542.1536254882812,278.6354675292969,862.5756225585938,481.247802734375,207.36508178710938,969.30322265625,725.6552734375,213.41346740722656,0.0,0.0,0.0,0.0,0.0,0.0,0.0,0.0,0.0,0.0,0.0,0.0,1.0,0.0,0.0,0.0,0.0,0.0,0.0,0.0,0.0,0.0,0.0,0.0,0.0,1.0,0.0,0.0,0.0,0.0,0.0,0.0,0.0,0.0,0.0,0.0,0.0,0.0,1.0,0.0,0.0,0.0,0.0,0.0,0.0,0.0,0.0,0.0,0.0,0.0,0.0,1.0,0.0,0.0,0.0,0.0,0.0,0.0,0.0,0.0,0.0,0.0,0.0,0.0,1.0,0.0,0.0,0.0,0.0,0.0,0.0,0.0,0.0,0.0,0.0,0.0,0.0,1.0,0.0,0.0,0.0,0.0,0.0,0.0,0.0,0.0,0.0,0.0,0.0,0.0,1.0,0,0,0,0,0,0,0,0,0,0,0,0,0,0,0,0,0,0,0,0,0,0,0,0,0,0,0,0,0,0,0,0,0,0,0,0
1777280248.7562718,903,0,0.0,0.0,0.0,0.0,0.0,0.0,0.0,0.0,0.0,0.0,0.0,0.0,0.0,0.0,0.0,0.0,0.0,0.0,0.0,0.0,0.0,0.0,0.0,0.0,0.0,0.0,0.0,682.6723022460938,567.5050659179688,1119.8277587890625,932.4674682617188,589.22705078125,1137.9534912109375,725.1749267578125,389.2261047363281,1163.0736083984375,885.9637451171875,382.2040100097656,1169.65380859375,637.54443359375,463.72332763671875,861.9548950195312,683.4041137695312,492.79541015625,604.8189086914062,681.82958984375,431.573974609375,438.341552734375,717.9527587890625,418.6730041503906,238.76287841796875,791.0491333007812,325.86578369140625,162.60311889648438,750.7311401367188,591.9426879882812,184.39984130859375,1012.4572143554688,586.2535400390625,845.9860229492188,972.9443969726562,618.0563354492188,617.2155151367188,986.0125732421875,591.4755249023438,485.97796630859375,945.471435546875,568.8046875,270.69525146484375,864.7265625,511.2653503417969,197.53689575195312,967.3494873046875,757.2224731445312,214.44122314453125,0.0,0.0,0.0,0.0,0.0,0.0,0.0,0.0,0.0,0.0,0.0,0.0,1.0,0.0,0.0,0.0,0.0,0.0,0.0,0.0,0.0,0.0,0.0,0.0,0.0,1.0,0.0,0.0,0.0,0.0,0.0,0.0,0.0,0.0,0.0,0.0,0.0,0.0,1.0,0.0,0.0,0.0,0.0,0.0,0.0,0.0,0.0,0.0,0.0,0.0,0.0,1.0,0.0,0.0,0.0,0.0,0.0,0.0,0.0,0.0,0.0,0.0,0.0,0.0,1.0,0.0,0.0,0.0,0.0,0.0,0.0,0.0,0.0,0.0,0.0,0.0,0.0,1.0,0.0,0.0,0.0,0.0,0.0,0.0,0.0,0.0,0.0,0.0,0.0,0.0,1.0,0,0,0,0,0,0,0,0,0,0,0,0,0,0,0,0,0,0,0,0,0,0,0,0,0,0,0,0,0,0,0,0,0,0,0,0
1777280248.758756,904,0,0.0,0.0,0.0,0.0,0.0,0.0,0.0,0.0,0.0,0.0,0.0,0.0,0.0,0.0,0.0,0.0,0.0,0.0,0.0,0.0,0.0,0.0,0.0,0.0,0.0,0.0,0.0,682.6243896484375,565.5301513671875,1119.4144287109375,932.4043579101562,587.665771484375,1137.6983642578125,725.4445190429688,387.3865966796875,1163.1798095703125,886.25439453125,380.6369934082031,1169.8218994140625,637.89794921875,460.1581115722656,861.8927612304688,683.7644653320312,487.13116455078125,604.6112670898438,682.3294677734375,425.0616455078125,438.393798828125,718.5559692382812,411.2456359863281,238.89212036132812,791.3419799804688,318.24273681640625,162.7059326171875,751.0136108398438,584.3278198242188,184.34042358398438,1012.9273071289062,584.2791748046875,845.7659301757812,972.75439453125,617.0684814453125,616.203125,986.22314453125,595.6636352539062,483.7501220703125,945.9428100585938,581.686279296875,267.374755859375,865.5179443359375,525.6752319335938,193.70005798339844,966.0979614257812,772.197265625,215.24755859375,0.0,0.0,0.0,0.0,0.0,0.0,0.0,0.0,0.0,0.0,0.0,0.0,1.0,0.0,0.0,0.0,0.0,0.0,0.0,0.0,0.0,0.0,0.0,0.0,0.0,1.0,0.0,0.0,0.0,0.0,0.0,0.0,0.0,0.0,0.0,0.0,0.0,0.0,1.0,0.0,0.0,0.0,0.0,0.0,0.0,0.0,0.0,0.0,0.0,0.0,0.0,1.0,0.0,0.0,0.0,0.0,0.0,0.0,0.0,0.0,0.0,0.0,0.0,0.0,1.0,0.0,0.0,0.0,0.0,0.0,0.0,0.0,0.0,0.0,0.0,0.0,0.0,1.0,0.0,0.0,0.0,0.0,0.0,0.0,0.0,0.0,0.0,0.0,0.0,0.0,1.0,0,0,0,0,0,0,0,0,0,0,0,0,0,0,0,0,0,0,0,0,0,0,0,0,0,0,0,0,0,0,0,0,0,0,0,0
1777280248.7712662,904,1,0.0,0.0,0.0,0.0,0.0,0.0,0.0,0.0,0.0,0.0,0.0,0.0,0.0,0.0,0.0,0.0,0.0,0.0,0.0,0.0,0.0,0.0,0.0,0.0,0.0,0.0,0.0,682.6243896484375,565.5301513671875,1119.4144287109375,932.4043579101562,587.665771484375,1137.6983642578125,725.4445190429688,387.3865966796875,1163.1798095703125,886.25439453125,380.6369934082031,1169.8218994140625,637.89794921875,460.1581115722656,861.8927612304688,683.7644653320312,487.13116455078125,604.6112670898438,682.3294677734375,425.0616455078125,438.393798828125,718.5559692382812,411.2456359863281,238.89212036132812,791.3419799804688,318.24273681640625,162.7059326171875,751.0136108398438,584.3278198242188,184.34042358398438,1012.9273071289062,584.2791748046875,845.7659301757812,972.75439453125,617.0684814453125,616.203125,986.22314453125,595.6636352539062,483.7501220703125,945.9428100585938,581.686279296875,267.374755859375,865.5179443359375,525.6752319335938,193.70005798339844,966.0979614257812,772.197265625,215.24755859375,0.0,0.0,0.0,0.0,0.0,0.0,0.0,0.0,0.0,0.0,0.0,0.0,1.0,0.0,0.0,0.0,0.0,0.0,0.0,0.0,0.0,0.0,0.0,0.0,0.0,1.0,0.0,0.0,0.0,0.0,0.0,0.0,0.0,0.0,0.0,0.0,0.0,0.0,1.0,0.0,0.0,0.0,0.0,0.0,0.0,0.0,0.0,0.0,0.0,0.0,0.0,1.0,0.0,0.0,0.0,0.0,0.0,0.0,0.0,0.0,0.0,0.0,0.0,0.0,1.0,0.0,0.0,0.0,0.0,0.0,0.0,0.0,0.0,0.0,0.0,0.0,0.0,1.0,0.0,0.0,0.0,0.0,0.0,0.0,0.0,0.0,0.0,0.0,0.0,0.0,1.0,0,0,0,0,0,0,0,0,0,0,0,0,0,0,0,0,0,0,0,0,0,0,0,0,0,0,0,0,0,0,0,0,0,0,0,0
1777280248.7877266,905,0,0.0,0.0,0.0,0.0,0.0,0.0,0.0,0.0,0.0,0.0,0.0,0.0,0.0,0.0,0.0,0.0,0.0,0.0,0.0,0.0,0.0,0.0,0.0,0.0,0.0,0.0,0.0,682.6012573242188,563.606201171875,1118.946044921875,932.3652954101562,586.1936645507812,1137.328125,725.7733154296875,385.6091613769531,1163.2103271484375,886.6039428710938,379.1614074707031,1169.88134765625,638.2671508789062,456.6728515625,861.7805786132812,684.1497802734375,481.5296936035156,604.3666381835938,682.8468017578125,418.60418701171875,438.41400146484375,719.1754150390625,403.82720947265625,239.0093994140625,791.6337890625,310.6188049316406,162.8030242919922,751.3121337890625,576.7031860351562,184.272216796875,1013.4168701171875,582.2618408203125,845.313720703125,972.5448608398438,615.913818359375,615.0345458984375,986.3499145507812,599.5929565429688,481.5774841308594,946.2371215820312,594.10302734375,264.49139404296875,866.0763549804688,539.5617065429688,190.4417266845703,964.6991577148438,786.4673461914062,216.40447998046875,0.0,0.0,0.0,0.0,0.0,0.0,0.0,0.0,0.0,0.0,0.0,0.0,1.0,0.0,0.0,0.0,0.0,0.0,0.0,0.0,0.0,0.0,0.0,0.0,0.0,1.0,0.0,0.0,0.0,0.0,0.0,0.0,0.0,0.0,0.0,0.0,0.0,0.0,1.0,0.0,0.0,0.0,0.0,0.0,0.0,0.0,0.0,0.0,0.0,0.0,0.0,1.0,0.0,0.0,0.0,0.0,0.0,0.0,0.0,0.0,0.0,0.0,0.0,0.0,1.0,0.0,0.0,0.0,0.0,0.0,0.0,0.0,0.0,0.0,0.0,0.0,0.0,1.0,0.0,0.0,0.0,0.0,0.0,0.0,0.0,0.0,0.0,0.0,0.0,0.0,1.0,0,0,0,0,0,0,0,0,0,0,0,0,0,0,0,0,0,0,0,0,0,0,0,0,0,0,0,0,0,0,0,0,0,0,0,0
1777280248.790598,907,0,0.0,0.0,0.0,0.0,0.0,0.0,0.0,0.0,0.0,0.0,0.0,0.0,0.0,0.0,0.0,0.0,0.0,0.0,0.0,0.0,0.0,0.0,0.0,0.0,0.0,0.0,0.0,682.6207275390625,559.9290771484375,1117.8680419921875,932.3526000976562,583.5365600585938,1136.275634765625,726.6036376953125,382.2597351074219,1163.0419921875,887.4736938476562,376.50421142578125,1169.675048828125,639.0460815429688,449.99627685546875,861.417236328125,684.974609375,470.5754699707031,603.79052734375,683.9061889648438,405.8902587890625,438.40081787109375,720.4260864257812,389.0216369628906,239.2418975830078,792.2047119140625,295.35577392578125,163.01222229003906,751.9483642578125,561.4046630859375,184.11993408203125,1014.3963012695312,578.2201538085938,843.8013305664062,972.0374755859375,613.1897583007812,612.3045654296875,986.3068237304688,606.5331420898438,477.4290466308594,946.273681640625,617.0541381835938,259.9528503417969,866.4027099609375,565.4576416015625,185.06773376464844,961.5877685546875,812.4288330078125,220.16201782226562,0.0,0.0,0.0,0.0,0.0,0.0,0.0,0.0,0.0,0.0,0.0,0.0,1.0,0.0,0.0,0.0,0.0,0.0,0.0,0.0,0.0,0.0,0.0,0.0,0.0,1.0,0.0,0.0,0.0,0.0,0.0,0.0,0.0,0.0,0.0,0.0,0.0,0.0,1.0,0.0,0.0,0.0,0.0,0.0,0.0,0.0,0.0,0.0,0.0,0.0,0.0,1.0,0.0,0.0,0.0,0.0,0.0,0.0,0.0,0.0,0.0,0.0,0.0,0.0,1.0,0.0,0.0,0.0,0.0,0.0,0.0,0.0,0.0,0.0,0.0,0.0,0.0,1.0,0.0,0.0,0.0,0.0,0.0,0.0,0.0,0.0,0.0,0.0,0.0,0.0,1.0,0,0,0,0,0,0,0,0,0,0,0,0,0,0,0,0,0,0,0,0,0,0,0,0,0,0,0,0,0,0,0,0,0,0,0,0
1777280248.8052998,908,0,0.0,0.0,0.0,0.0,0.0,0.0,0.0,0.0,0.0,0.0,0.0,0.0,0.0,0.0,0.0,0.0,0.0,0.0,0.0,0.0,0.0,0.0,0.0,0.0,0.0,0.0,0.0,682.6607666015625,558.1875,1117.271240234375,932.3770141601562,582.361083984375,1135.6112060546875,727.1026611328125,380.6992492675781,1162.843505859375,887.990966796875,375.33245849609375,1169.4122314453125,639.4528198242188,446.8293762207031,861.1734619140625,685.4065551757812,465.24786376953125,603.4725952148438,684.4386596679688,399.6495361328125,438.3891296386719,721.04345703125,381.63751220703125,239.3742218017578,792.4795532226562,287.71295166015625,163.13677978515625,752.2808227539062,553.7250366210938,184.0399169921875,1014.85693359375,576.2579956054688,842.787109375,971.725830078125,611.6639404296875,610.781005859375,986.1218872070312,609.48095703125,475.4599609375,946.0192260742188,627.3710327148438,258.22119140625,866.1593017578125,577.3201293945312,182.68218994140625,959.9379272460938,823.9213256835938,222.8303985595703,0.0,0.0,0.0,0.0,0.0,0.0,0.0,0.0,0.0,0.0,0.0,0.0,1.0,0.0,0.0,0.0,0.0,0.0,0.0,0.0,0.0,0.0,0.0,0.0,0.0,1.0,0.0,0.0,0.0,0.0,0.0,0.0,0.0,0.0,0.0,0.0,0.0,0.0,1.0,0.0,0.0,0.0,0.0,0.0,0.0,0.0,0.0,0.0,0.0,0.0,0.0,1.0,0.0,0.0,0.0,0.0,0.0,0.0,0.0,0.0,0.0,0.0,0.0,0.0,1.0,0.0,0.0,0.0,0.0,0.0,0.0,0.0,0.0,0.0,0.0,0.0,0.0,1.0,0.0,0.0,0.0,0.0,0.0,0.0,0.0,0.0,0.0,0.0,0.0,0.0,1.0,0,0,0,0,0,0,0,0,0,0,0,0,0,0,0,0,0,0,0,0,0,0,0,0,0,0,0,0,0,0,0,0,0,0,0,0
1777280248.81993,909,0,0.0,0.0,0.0,0.0,0.0,0.0,0.0,0.0,0.0,0.0,0.0,0.0,0.0,0.0,0.0,0.0,0.0,0.0,0.0,0.0,0.0,0.0,0.0,0.0,0.0,0.0,0.0,682.720458984375,556.5203247070312,1116.6448974609375,932.4220581054688,581.2939453125,1134.8668212890625,727.6558227539062,379.2239685058594,1162.5699462890625,888.5612182617188,374.2719421386719,1169.046142578125,639.8690185546875,443.79052734375,860.894287109375,685.8488159179688,460.0328674316406,603.1443481445312,684.97021484375,393.49560546875,438.3879699707031,721.6504516601562,374.2684326171875,239.5281524658203,792.7454223632812,280.0614013671875,163.2793731689453,752.61962890625,546.0252075195312,183.95823669433594,1015.279296875,574.3753662109375,841.631103515625,971.3677368164062,610.0584716796875,609.175537109375,985.8240356445312,612.048583984375,473.55950927734375,945.5933227539062,636.7938842773438,256.7778625488281,865.6640014648438,588.3544921875,180.3790740966797,958.2607421875,834.319091796875,225.95516967773438,0.0,0.0,0.0,0.0,0.0,0.0,0.0,0.0,0.0,0.0,0.0,0.0,1.0,0.0,0.0,0.0,0.0,0.0,0.0,0.0,0.0,0.0,0.0,0.0,0.0,1.0,0.0,0.0,0.0,0.0,0.0,0.0,0.0,0.0,0.0,0.0,0.0,0.0,1.0,0.0,0.0,0.0,0.0,0.0,0.0,0.0,0.0,0.0,0.0,0.0,0.0,1.0,0.0,0.0,0.0,0.0,0.0,0.0,0.0,0.0,0.0,0.0,0.0,0.0,1.0,0.0,0.0,0.0,0.0,0.0,0.0,0.0,0.0,0.0,0.0,0.0,0.0,1.0,0.0,0.0,0.0,0.0,0.0,0.0,0.0,0.0,0.0,0.0,0.0,0.0,1.0,0,0,0,0,0,0,0,0,0,0,0,0,0,0,0,0,0,0,0,0,0,0,0,0,0,0,0,0,0,0,0,0,0,0,0,0
1777280248.8362935,911,0,0.0,0.0,0.0,0.0,0.0,0.0,0.0,0.0,0.0,0.0,0.0,0.0,0.0,0.0,0.0,0.0,0.0,0.0,0.0,0.0,0.0,0.0,0.0,0.0,0.0,0.0,0.0,682.9024658203125,553.4454345703125,1115.3299560546875,932.5786743164062,579.5045166015625,1133.1739501953125,728.9191284179688,376.56097412109375,1161.8043212890625,889.8552856445312,372.5044860839844,1168.0172119140625,640.72314453125,438.1295166015625,860.249755859375,686.76416015625,449.966796875,602.4866333007812,686.0379028320312,381.4715881347656,438.45501708984375,722.8346557617188,359.5843200683594,239.9298553466797,793.2514038085938,264.7314758300781,163.6162109375,753.3101806640625,530.57763671875,183.78472900390625,1015.9594116210938,570.9578247070312,838.9761352539062,970.4949340820312,606.6958618164062,605.7811889648438,984.8986206054688,615.9903564453125,469.9371337890625,944.2787475585938,652.6781616210938,254.4994354248047,864.04833984375,607.58544921875,175.9166717529297,954.8892211914062,851.6293334960938,233.00160217285156,0.0,0.0,0.0,0.0,0.0,0.0,0.0,0.0,0.0,0.0,0.0,0.0,1.0,0.0,0.0,0.0,0.0,0.0,0.0,0.0,0.0,0.0,0.0,0.0,0.0,1.0,0.0,0.0,0.0,0.0,0.0,0.0,0.0,0.0,0.0,0.0,0.0,0.0,1.0,0.0,0.0,0.0,0.0,0.0,0.0,0.0,0.0,0.0,0.0,0.0,0.0,1.0,0.0,0.0,0.0,0.0,0.0,0.0,0.0,0.0,0.0,0.0,0.0,0.0,1.0,0.0,0.0,0.0,0.0,0.0,0.0,0.0,0.0,0.0,0.0,0.0,0.0,1.0,0.0,0.0,0.0,0.0,0.0,0.0,0.0,0.0,0.0,0.0,0.0,0.0,1.0,0,0,0,0,0,0,0,0,0,0,0,0,0,0,0,0,0,0,0,0,0,0,0,0,0,0,0,0,0,0,0,0,0,0,0,0
1777280248.8388138,912,0,0.0,0.0,0.0,0.0,0.0,0.0,0.0,0.0,0.0,0.0,0.0,0.0,0.0,0.0,0.0,0.0,0.0,0.0,0.0,0.0,0.0,0.0,0.0,0.0,0.0,0.0,0.0,683.0286865234375,552.0585327148438,1114.654052734375,932.6948852539062,578.7924194335938,1132.24267578125,729.6265258789062,375.390869140625,1161.31640625,890.5765380859375,371.8074035644531,1167.3624267578125,641.1578979492188,435.52008056640625,859.8952026367188,687.240234375,445.1244812011719,602.1715087890625,686.5833740234375,375.6102600097656,438.5403747558594,723.41845703125,352.27252197265625,240.19036865234375,793.4959716796875,257.05328369140625,163.8026580810547,753.6594848632812,522.8402099609375,183.68771362304688,1016.1956176757812,569.4700927734375,837.5128173828125,969.9730834960938,604.9803466796875,604.0173950195312,984.2815551757812,617.3540649414062,468.1926574707031,943.4185791015625,659.030517578125,253.52700805664062,863.0033569335938,615.59521484375,173.76235961914062,953.2026977539062,858.4740600585938,236.56069946289062,0.0,0.0,0.0,0.0,0.0,0.0,0.0,0.0,0.0,0.0,0.0,0.0,1.0,0.0,0.0,0.0,0.0,0.0,0.0,0.0,0.0,0.0,0.0,0.0,0.0,1.0,0.0,0.0,0.0,0.0,0.0,0.0,0.0,0.0,0.0,0.0,0.0,0.0,1.0,0.0,0.0,0.0,0.0,0.0,0.0,0.0,0.0,0.0,0.0,0.0,0.0,1.0,0.0,0.0,0.0,0.0,0.0,0.0,0.0,0.0,0.0,0.0,0.0,0.0,1.0,0.0,0.0,0.0,0.0,0.0,0.0,0.0,0.0,0.0,0.0,0.0,0.0,1.0,0.0,0.0,0.0,0.0,0.0,0.0,0.0,0.0,0.0,0.0,0.0,0.0,1.0,0,0,0,0,0,0,0,0,0,0,0,0,0,0,0,0,0,0,0,0,0,0,0,0,0,0,0,0,0,0,0,0,0,0,0,0
1777280248.8525934,912,1,0.0,0.0,0.0,0.0,0.0,0.0,0.0,0.0,0.0,0.0,0.0,0.0,0.0,0.0,0.0,0.0,0.0,0.0,0.0,0.0,0.0,0.0,0.0,0.0,0.0,0.0,0.0,683.0286865234375,552.0585327148438,1114.654052734375,932.6948852539062,578.7924194335938,1132.24267578125,729.6265258789062,375.390869140625,1161.31640625,890.5765380859375,371.8074035644531,1167.3624267578125,641.1578979492188,435.52008056640625,859.8952026367188,687.240234375,445.1244812011719,602.1715087890625,686.5833740234375,375.6102600097656,438.5403747558594,723.41845703125,352.27252197265625,240.19036865234375,793.4959716796875,257.05328369140625,163.8026580810547,753.6594848632812,522.8402099609375,183.68771362304688,1016.1956176757812,569.4700927734375,837.5128173828125,969.9730834960938,604.9803466796875,604.0173950195312,984.2815551757812,617.3540649414062,468.1926574707031,943.4185791015625,659.030517578125,253.52700805664062,863.0033569335938,615.59521484375,173.76235961914062,953.2026977539062,858.4740600585938,236.56069946289062,0.0,0.0,0.0,0.0,0.0,0.0,0.0,0.0,0.0,0.0,0.0,0.0,1.0,0.0,0.0,0.0,0.0,0.0,0.0,0.0,0.0,0.0,0.0,0.0,0.0,1.0,0.0,0.0,0.0,0.0,0.0,0.0,0.0,0.0,0.0,0.0,0.0,0.0,1.0,0.0,0.0,0.0,0.0,0.0,0.0,0.0,0.0,0.0,0.0,0.0,0.0,1.0,0.0,0.0,0.0,0.0,0.0,0.0,0.0,0.0,0.0,0.0,0.0,0.0,1.0,0.0,0.0,0.0,0.0,0.0,0.0,0.0,0.0,0.0,0.0,0.0,0.0,1.0,0.0,0.0,0.0,0.0,0.0,0.0,0.0,0.0,0.0,0.0,0.0,0.0,1.0,0,0,0,0,0,0,0,0,0,0,0,0,0,0,0,0,0,0,0,0,0,0,0,0,0,0,0,0,0,0,0,0,0,0,0,0
1777280248.8556685,914,0,0.0,0.0,0.0,0.0,0.0,0.0,0.0,0.0,0.0,0.0,0.0,0.0,0.0,0.0,0.0,0.0,0.0,0.0,0.0,0.0,0.0,0.0,0.0,0.0,0.0,0.0,0.0,683.36767578125,549.6444091796875,1113.294677734375,933.0205078125,577.7604370117188,1130.2510986328125,731.1854858398438,373.4205627441406,1160.1436767578125,892.1615600585938,370.8098449707031,1165.7967529296875,642.0357055664062,430.7686462402344,859.14892578125,688.2415161132812,435.8367919921875,601.600341796875,687.7298583984375,364.197265625,438.8536071777344,724.5925903320312,337.7088623046875,240.8580780029297,793.9884643554688,241.6704559326172,164.18043518066406,754.35888671875,507.3695373535156,183.45849609375,1016.4178466796875,567.0272827148438,834.3831787109375,968.74267578125,601.5716552734375,600.3999633789062,982.7666015625,618.8717041015625,464.76043701171875,941.352294921875,668.361572265625,251.5783233642578,860.5988159179688,627.9559936523438,169.606201171875,949.7516479492188,868.4420776367188,242.852294921875,0.0,0.0,0.0,0.0,0.0,0.0,0.0,0.0,0.0,0.0,0.0,0.0,1.0,0.0,0.0,0.0,0.0,0.0,0.0,0.0,0.0,0.0,0.0,0.0,0.0,1.0,0.0,0.0,0.0,0.0,0.0,0.0,0.0,0.0,0.0,0.0,0.0,0.0,1.0,0.0,0.0,0.0,0.0,0.0,0.0,0.0,0.0,0.0,0.0,0.0,0.0,1.0,0.0,0.0,0.0,0.0,0.0,0.0,0.0,0.0,0.0,0.0,0.0,0.0,1.0,0.0,0.0,0.0,0.0,0.0,0.0,0.0,0.0,0.0,0.0,0.0,0.0,1.0,0.0,0.0,0.0,0.0,0.0,0.0,0.0,0.0,0.0,0.0,0.0,0.0,1.0,0,0,0,0,0,0,0,0,0,0,0,0,0,0,0,0,0,0,0,0,0,0,0,0,0,0,0,0,0,0,0,0,0,0,0,0
1777280248.8692474,914,1,0.0,0.0,0.0,0.0,0.0,0.0,0.0,0.0,0.0,0.0,0.0,0.0,0.0,0.0,0.0,0.0,0.0,0.0,0.0,0.0,0.0,0.0,0.0,0.0,0.0,0.0,0.0,683.36767578125,549.6444091796875,1113.294677734375,933.0205078125,577.7604370117188,1130.2510986328125,731.1854858398438,373.4205627441406,1160.1436767578125,892.1615600585938,370.8098449707031,1165.7967529296875,642.0357055664062,430.7686462402344,859.14892578125,688.2415161132812,435.8367919921875,601.600341796875,687.7298583984375,364.197265625,438.8536071777344,724.5925903320312,337.7088623046875,240.8580780029297,793.9884643554688,241.6704559326172,164.18043518066406,754.35888671875,507.3695373535156,183.45849609375,1016.4178466796875,567.0272827148438,834.3831787109375,968.74267578125,601.5716552734375,600.3999633789062,982.7666015625,618.8717041015625,464.76043701171875,941.352294921875,668.361572265625,251.5783233642578,860.5988159179688,627.9559936523438,169.606201171875,949.7516479492188,868.4420776367188,242.852294921875,0.0,0.0,0.0,0.0,0.0,0.0,0.0,0.0,0.0,0.0,0.0,0.0,1.0,0.0,0.0,0.0,0.0,0.0,0.0,0.0,0.0,0.0,0.0,0.0,0.0,1.0,0.0,0.0,0.0,0.0,0.0,0.0,0.0,0.0,0.0,0.0,0.0,0.0,1.0,0.0,0.0,0.0,0.0,0.0,0.0,0.0,0.0,0.0,0.0,0.0,0.0,1.0,0.0,0.0,0.0,0.0,0.0,0.0,0.0,0.0,0.0,0.0,0.0,0.0,1.0,0.0,0.0,0.0,0.0,0.0,0.0,0.0,0.0,0.0,0.0,0.0,0.0,1.0,0.0,0.0,0.0,0.0,0.0,0.0,0.0,0.0,0.0,0.0,0.0,0.0,1.0,0,0,0,0,0,0,0,0,0,0,0,0,0,0,0,0,0,0,0,0,0,0,0,0,0,0,0,0,0,0,0,0,0,0,0,0
1777280248.8844967,915,0,0.0,0.0,0.0,0.0,0.0,0.0,0.0,0.0,0.0,0.0,0.0,0.0,0.0,0.0,0.0,0.0,0.0,0.0,0.0,0.0,0.0,0.0,0.0,0.0,0.0,0.0,0.0,683.5895385742188,548.6422729492188,1112.6212158203125,933.2391357421875,577.4513549804688,1129.205810546875,732.0343017578125,372.6396179199219,1159.4647216796875,893.0230712890625,370.51763916015625,1164.897216796875,642.4763793945312,428.63641357421875,858.767578125,688.7711791992188,431.39892578125,601.3543701171875,688.34228515625,358.6428527832031,439.0961608886719,725.1893310546875,330.45208740234375,241.27505493164062,794.2463989257812,233.966552734375,164.36117553710938,754.70458984375,499.6473388671875,183.32217407226562,1016.3916625976562,566.0966796875,832.7359008789062,968.0277099609375,599.9071044921875,598.5560913085938,981.8748168945312,619.03466796875,463.0379943847656,940.1597290039062,671.2972412109375,250.48228454589844,859.2818603515625,632.1563720703125,167.57403564453125,947.9120483398438,871.555908203125,245.2862548828125,0.0,0.0,0.0,0.0,0.0,0.0,0.0,0.0,0.0,0.0,0.0,0.0,1.0,0.0,0.0,0.0,0.0,0.0,0.0,0.0,0.0,0.0,0.0,0.0,0.0,1.0,0.0,0.0,0.0,0.0,0.0,0.0,0.0,0.0,0.0,0.0,0.0,0.0,1.0,0.0,0.0,0.0,0.0,0.0,0.0,0.0,0.0,0.0,0.0,0.0,0.0,1.0,0.0,0.0,0.0,0.0,0.0,0.0,0.0,0.0,0.0,0.0,0.0,0.0,1.0,0.0,0.0,0.0,0.0,0.0,0.0,0.0,0.0,0.0,0.0,0.0,0.0,1.0,0.0,0.0,0.0,0.0,0.0,0.0,0.0,0.0,0.0,0.0,0.0,0.0,1.0,0,0,0,0,0,0,0,0,0,0,0,0,0,0,0,0,0,0,0,0,0,0,0,0,0,0,0,0,0,0,0,0,0,0,0,0
1777280248.8880196,917,0,0.0,0.0,0.0,0.0,0.0,0.0,0.0,0.0,0.0,0.0,0.0,0.0,0.0,0.0,0.0,0.0,0.0,0.0,0.0,0.0,0.0,0.0,0.0,0.0,0.0,0.0,0.0,684.1661987304688,547.1110229492188,1111.3072509765625,933.8161010742188,577.272216796875,1127.051025390625,733.8635864257812,371.5314025878906,1157.939208984375,894.8786010742188,370.3626708984375,1162.896728515625,643.3548583984375,424.89044189453125,858.0118408203125,689.8912353515625,422.972900390625,600.95556640625,689.6550903320312,347.8250427246094,439.7868347167969,726.3976440429688,315.9678955078125,242.2999267578125,794.8077392578125,218.5436553955078,164.7147979736328,755.3714599609375,484.24517822265625,183.0029754638672,1016.0468139648438,564.8489990234375,829.306884765625,966.3836669921875,596.7078857421875,594.8076782226562,979.8181762695312,618.208740234375,459.49798583984375,937.4584350585938,673.7198486328125,247.821044921875,856.5028076171875,636.331787109375,163.561279296875,943.7037353515625,874.1531982421875,248.16539001464844,0.0,0.0,0.0,0.0,0.0,0.0,0.0,0.0,0.0,0.0,0.0,0.0,1.0,0.0,0.0,0.0,0.0,0.0,0.0,0.0,0.0,0.0,0.0,0.0,0.0,1.0,0.0,0.0,0.0,0.0,0.0,0.0,0.0,0.0,0.0,0.0,0.0,0.0,1.0,0.0,0.0,0.0,0.0,0.0,0.0,0.0,0.0,0.0,0.0,0.0,0.0,1.0,0.0,0.0,0.0,0.0,0.0,0.0,0.0,0.0,0.0,0.0,0.0,0.0,1.0,0.0,0.0,0.0,0.0,0.0,0.0,0.0,0.0,0.0,0.0,0.0,0.0,1.0,0.0,0.0,0.0,0.0,0.0,0.0,0.0,0.0,0.0,0.0,0.0,0.0,1.0,0,0,0,0,0,0,0,0,0,0,0,0,0,0,0,0,0,0,0,0,0,0,0,0,0,0,0,0,0,0,0,0,0,0,0,0
1777280248.9015992,917,1,0.0,0.0,0.0,0.0,0.0,0.0,0.0,0.0,0.0,0.0,0.0,0.0,0.0,0.0,0.0,0.0,0.0,0.0,0.0,0.0,0.0,0.0,0.0,0.0,0.0,0.0,0.0,684.1661987304688,547.1110229492188,1111.3072509765625,933.8161010742188,577.272216796875,1127.051025390625,733.8635864257812,371.5314025878906,1157.939208984375,894.8786010742188,370.3626708984375,1162.896728515625,643.3548583984375,424.89044189453125,858.0118408203125,689.8912353515625,422.972900390625,600.95556640625,689.6550903320312,347.8250427246094,439.7868347167969,726.3976440429688,315.9678955078125,242.2999267578125,794.8077392578125,218.5436553955078,164.7147979736328,755.3714599609375,484.24517822265625,183.0029754638672,1016.0468139648438,564.8489990234375,829.306884765625,966.3836669921875,596.7078857421875,594.8076782226562,979.8181762695312,618.208740234375,459.49798583984375,937.4584350585938,673.7198486328125,247.821044921875,856.5028076171875,636.331787109375,163.561279296875,943.7037353515625,874.1531982421875,248.16539001464844,0.0,0.0,0.0,0.0,0.0,0.0,0.0,0.0,0.0,0.0,0.0,0.0,1.0,0.0,0.0,0.0,0.0,0.0,0.0,0.0,0.0,0.0,0.0,0.0,0.0,1.0,0.0,0.0,0.0,0.0,0.0,0.0,0.0,0.0,0.0,0.0,0.0,0.0,1.0,0.0,0.0,0.0,0.0,0.0,0.0,0.0,0.0,0.0,0.0,0.0,0.0,1.0,0.0,0.0,0.0,0.0,0.0,0.0,0.0,0.0,0.0,0.0,0.0,0.0,1.0,0.0,0.0,0.0,0.0,0.0,0.0,0.0,0.0,0.0,0.0,0.0,0.0,1.0,0.0,0.0,0.0,0.0,0.0,0.0,0.0,0.0,0.0,0.0,0.0,0.0,1.0,0,0,0,0,0,0,0,0,0,0,0,0,0,0,0,0,0,0,0,0,0,0,0,0,0,0,0,0,0,0,0,0,0,0,0,0
1777280248.9166067,919,0,0.0,0.0,0.0,0.0,0.0,0.0,0.0,0.0,0.0,0.0,0.0,0.0,0.0,0.0,0.0,0.0,0.0,0.0,0.0,0.0,0.0,0.0,0.0,0.0,0.0,0.0,0.0,684.9653930664062,546.2880859375,1110.0572509765625,934.6221923828125,577.7041625976562,1124.854248046875,735.858642578125,371.07781982421875,1156.216796875,896.9037475585938,370.7908630371094,1160.6787109375,644.2175903320312,421.90069580078125,857.287109375,691.0717163085938,415.2577819824219,600.67578125,691.0531005859375,337.3978271484375,440.78839111328125,727.5797119140625,301.49761962890625,243.6199188232422,795.4413452148438,203.13673400878906,165.17730712890625,755.9752807617188,468.9050598144531,182.62437438964844,1015.3090209960938,564.4207763671875,825.7256469726562,964.4476928710938,593.7237548828125,590.98193359375,977.3738403320312,615.9586181640625,455.7532958984375,934.3107299804688,671.8125,244.39703369140625,853.699462890625,634.7717895507812,159.82852172851562,938.274169921875,872.3622436523438,247.8759307861328,0.0,0.0,0.0,0.0,0.0,0.0,0.0,0.0,0.0,0.0,0.0,0.0,1.0,0.0,0.0,0.0,0.0,0.0,0.0,0.0,0.0,0.0,0.0,0.0,0.0,1.0,0.0,0.0,0.0,0.0,0.0,0.0,0.0,0.0,0.0,0.0,0.0,0.0,1.0,0.0,0.0,0.0,0.0,0.0,0.0,0.0,0.0,0.0,0.0,0.0,0.0,1.0,0.0,0.0,0.0,0.0,0.0,0.0,0.0,0.0,0.0,0.0,0.0,0.0,1.0,0.0,0.0,0.0,0.0,0.0,0.0,0.0,0.0,0.0,0.0,0.0,0.0,1.0,0.0,0.0,0.0,0.0,0.0,0.0,0.0,0.0,0.0,0.0,0.0,0.0,1.0,0,0,0,0,0,0,0,0,0,0,0,0,0,0,0,0,0,0,0,0,0,0,0,0,0,0,0,0,0,0,0,0,0,0,0,0
1777280248.91875,920,0,0.0,0.0,0.0,0.0,0.0,0.0,0.0,0.0,0.0,0.0,0.0,0.0,0.0,0.0,0.0,0.0,0.0,0.0,0.0,0.0,0.0,0.0,0.0,0.0,0.0,0.0,0.0,685.4673461914062,546.1661987304688,1109.4615478515625,935.1282348632812,578.1544799804688,1123.756103515625,736.9144287109375,371.1092224121094,1155.2930908203125,897.976806640625,371.2228698730469,1159.509521484375,644.63671875,420.724365234375,856.9398193359375,691.666259765625,411.7392578125,600.568115234375,691.7564697265625,332.35064697265625,441.4158935546875,728.1315307617188,294.2669677734375,244.41184997558594,795.7797241210938,195.46099853515625,165.53958129882812,756.2423095703125,461.2574768066406,182.4139862060547,1014.79931640625,564.5029907226562,823.8887939453125,963.377685546875,592.3263549804688,589.044677734375,976.0025634765625,614.37451171875,453.7939758300781,932.5652465820312,669.4342651367188,242.4099578857422,852.38134765625,631.9290161132812,158.2311553955078,934.9173583984375,870.0950927734375,246.42898559570312,0.0,0.0,0.0,0.0,0.0,0.0,0.0,0.0,0.0,0.0,0.0,0.0,1.0,0.0,0.0,0.0,0.0,0.0,0.0,0.0,0.0,0.0,0.0,0.0,0.0,1.0,0.0,0.0,0.0,0.0,0.0,0.0,0.0,0.0,0.0,0.0,0.0,0.0,1.0,0.0,0.0,0.0,0.0,0.0,0.0,0.0,0.0,0.0,0.0,0.0,0.0,1.0,0.0,0.0,0.0,0.0,0.0,0.0,0.0,0.0,0.0,0.0,0.0,0.0,1.0,0.0,0.0,0.0,0.0,0.0,0.0,0.0,0.0,0.0,0.0,0.0,0.0,1.0,0.0,0.0,0.0,0.0,0.0,0.0,0.0,0.0,0.0,0.0,0.0,0.0,1.0,0,0,0,0,0,0,0,0,0,0,0,0,0,0,0,0,0,0,0,0,0,0,0,0,0,0,0,0,0,0,0,0,0,0,0,0
1777280248.9446986,920,1,0.0,0.0,0.0,0.0,0.0,0.0,0.0,0.0,0.0,0.0,0.0,0.0,0.0,0.0,0.0,0.0,0.0,0.0,0.0,0.0,0.0,0.0,0.0,0.0,0.0,0.0,0.0,685.4673461914062,546.1661987304688,1109.4615478515625,935.1282348632812,578.1544799804688,1123.756103515625,736.9144287109375,371.1092224121094,1155.2930908203125,897.976806640625,371.2228698730469,1159.509521484375,644.63671875,420.724365234375,856.9398193359375,691.666259765625,411.7392578125,600.568115234375,691.7564697265625,332.35064697265625,441.4158935546875,728.1315307617188,294.2669677734375,244.41184997558594,795.7797241210938,195.46099853515625,165.53958129882812,756.2423095703125,461.2574768066406,182.4139862060547,1014.79931640625,564.5029907226562,823.8887939453125,963.377685546875,592.3263549804688,589.044677734375,976.0025634765625,614.37451171875,453.7939758300781,932.5652465820312,669.4342651367188,242.4099578857422,852.38134765625,631.9290161132812,158.2311553955078,934.9173583984375,870.0950927734375,246.42898559570312,0.0,0.0,0.0,0.0,0.0,0.0,0.0,0.0,0.0,0.0,0.0,0.0,1.0,0.0,0.0,0.0,0.0,0.0,0.0,0.0,0.0,0.0,0.0,0.0,0.0,1.0,0.0,0.0,0.0,0.0,0.0,0.0,0.0,0.0,0.0,0.0,0.0,0.0,1.0,0.0,0.0,0.0,0.0,0.0,0.0,0.0,0.0,0.0,0.0,0.0,0.0,1.0,0.0,0.0,0.0,0.0,0.0,0.0,0.0,0.0,0.0,0.0,0.0,0.0,1.0,0.0,0.0,0.0,0.0,0.0,0.0,0.0,0.0,0.0,0.0,0.0,0.0,1.0,0.0,0.0,0.0,0.0,0.0,0.0,0.0,0.0,0.0,0.0,0.0,0.0,1.0,0,0,0,0,0,0,0,0,0,0,0,0,0,0,0,0,0,0,0,0,0,0,0,0,0,0,0,0,0,0,0,0,0,0,0,0
1777280248.9479706,923,0,0.0,0.0,0.0,0.0,0.0,0.0,0.0,0.0,0.0,0.0,0.0,0.0,0.0,0.0,0.0,0.0,0.0,0.0,0.0,0.0,0.0,0.0,0.0,0.0,0.0,0.0,0.0,687.47705078125,547.0182495117188,1107.808837890625,937.138671875,580.4247436523438,1120.543701171875,740.2915649414062,372.2422790527344,1152.33447265625,901.41796875,373.3471374511719,1155.879638671875,645.807373046875,418.7134094238281,855.9322509765625,693.2918701171875,403.1426696777344,600.2385864257812,693.6668090820312,318.1819152832031,443.8360290527344,729.43017578125,272.7137145996094,247.4844970703125,796.7754516601562,172.65965270996094,167.7825164794922,756.884033203125,438.3800964355469,181.71408081054688,1012.805419921875,565.82373046875,818.2890014648438,959.9027709960938,588.6237182617188,583.2308959960938,971.416748046875,608.4323120117188,447.6905517578125,926.7830200195312,658.1713256835938,235.7830047607422,849.2265625,616.7050170898438,155.2770233154297,922.0045166015625,859.5377807617188,237.05496215820312,0.0,0.0,0.0,0.0,0.0,0.0,0.0,0.0,0.0,0.0,0.0,0.0,1.0,0.0,0.0,0.0,0.0,0.0,0.0,0.0,0.0,0.0,0.0,0.0,0.0,1.0,0.0,0.0,0.0,0.0,0.0,0.0,0.0,0.0,0.0,0.0,0.0,0.0,1.0,0.0,0.0,0.0,0.0,0.0,0.0,0.0,0.0,0.0,0.0,0.0,0.0,1.0,0.0,0.0,0.0,0.0,0.0,0.0,0.0,0.0,0.0,0.0,0.0,0.0,1.0,0.0,0.0,0.0,0.0,0.0,0.0,0.0,0.0,0.0,0.0,0.0,0.0,1.0,0.0,0.0,0.0,0.0,0.0,0.0,0.0,0.0,0.0,0.0,0.0,0.0,1.0,0,0,0,0,0,0,0,0,0,0,0,0,0,0,0,0,0,0,0,0,0,0,0,0,0,0,0,0,0,0,0,0,0,0,0,0
1777280248.9596665,924,0,0.0,0.0,0.0,0.0,0.0,0.0,0.0,0.0,0.0,0.0,0.0,0.0,0.0,0.0,0.0,0.0,0.0,0.0,0.0,0.0,0.0,0.0,0.0,0.0,0.0,0.0,0.0,688.3388061523438,547.7053833007812,1107.306640625,937.9921875,581.4693603515625,1119.525146484375,741.4794921875,372.9510498046875,1151.3055419921875,902.631591796875,374.3081970214844,1154.6649169921875,646.1596069335938,418.6329345703125,855.5885620117188,693.709716796875,401.1630554199219,600.0723266601562,694.1597290039062,313.9379577636719,444.83001708984375,729.6778564453125,265.65765380859375,248.8091583251953,797.0595703125,165.15235900878906,169.08180236816406,757.0510864257812,430.762451171875,181.4725799560547,1012.0342407226562,566.5791015625,816.4368896484375,958.7294311523438,587.6021118164062,581.3450317382812,969.8223876953125,606.2989501953125,445.66046142578125,924.7802124023438,653.5739135742188,233.5408935546875,848.52685546875,610.082275390625,154.9980010986328,916.96044921875,855.2470092773438,232.50221252441406,0.0,0.0,0.0,0.0,0.0,0.0,0.0,0.0,0.0,0.0,0.0,0.0,1.0,0.0,0.0,0.0,0.0,0.0,0.0,0.0,0.0,0.0,0.0,0.0,0.0,1.0,0.0,0.0,0.0,0.0,0.0,0.0,0.0,0.0,0.0,0.0,0.0,0.0,1.0,0.0,0.0,0.0,0.0,0.0,0.0,0.0,0.0,0.0,0.0,0.0,0.0,1.0,0.0,0.0,0.0,0.0,0.0,0.0,0.0,0.0,0.0,0.0,0.0,0.0,1.0,0.0,0.0,0.0,0.0,0.0,0.0,0.0,0.0,0.0,0.0,0.0,0.0,1.0,0.0,0.0,0.0,0.0,0.0,0.0,0.0,0.0,0.0,0.0,0.0,0.0,1.0,0,0,0,0,0,0,0,0,0,0,0,0,0,0,0,0,0,0,0,0,0,0,0,0,0,0,0,0,0,0,0,0,0,0,0,0
1777280248.9781256,925,0,0.0,0.0,0.0,0.0,0.0,0.0,0.0,0.0,0.0,0.0,0.0,0.0,0.0,0.0,0.0,0.0,0.0,0.0,0.0,0.0,0.0,0.0,0.0,0.0,0.0,0.0,0.0,689.3058471679688,548.5827026367188,1106.8311767578125,938.9444580078125,582.6419677734375,1118.54638671875,742.6939086914062,373.8096008300781,1150.265869140625,903.8739013671875,375.379150390625,1153.4666748046875,646.4910888671875,418.8932189941406,855.2267456054688,694.0209350585938,399.7665100097656,599.8462524414062,694.5364379882812,310.04449462890625,445.9231872558594,729.7958374023438,258.73541259765625,250.32752990722656,797.30224609375,157.6922149658203,170.71641540527344,757.2017211914062,423.1407470703125,181.24058532714844,1011.24365234375,567.4660034179688,814.6226806640625,957.5989990234375,586.7177734375,579.522705078125,968.2677001953125,604.2246704101562,443.6883850097656,922.8265380859375,648.8222045898438,231.38954162597656,848.0247192382812,603.0631103515625,155.07101440429688,911.7947387695312,850.7659301757812,227.42897033691406,0.0,0.0,0.0,0.0,0.0,0.0,0.0,0.0,0.0,0.0,0.0,0.0,1.0,0.0,0.0,0.0,0.0,0.0,0.0,0.0,0.0,0.0,0.0,0.0,0.0,1.0,0.0,0.0,0.0,0.0,0.0,0.0,0.0,0.0,0.0,0.0,0.0,0.0,1.0,0.0,0.0,0.0,0.0,0.0,0.0,0.0,0.0,0.0,0.0,0.0,0.0,1.0,0.0,0.0,0.0,0.0,0.0,0.0,0.0,0.0,0.0,0.0,0.0,0.0,1.0,0.0,0.0,0.0,0.0,0.0,0.0,0.0,0.0,0.0,0.0,0.0,0.0,1.0,0.0,0.0,0.0,0.0,0.0,0.0,0.0,0.0,0.0,0.0,0.0,0.0,1.0,0,0,0,0,0,0,0,0,0,0,0,0,0,0,0,0,0,0,0,0,0,0,0,0,0,0,0,0,0,0,0,0,0,0,0,0
1777280248.9803019,926,0,0.0,0.0,0.0,0.0,0.0,0.0,0.0,0.0,0.0,0.0,0.0,0.0,0.0,0.0,0.0,0.0,0.0,0.0,0.0,0.0,0.0,0.0,0.0,0.0,0.0,0.0,0.0,690.3812255859375,549.6367797851562,1106.384033203125,939.99755859375,583.9290161132812,1117.6160888671875,743.9318237304688,374.8035583496094,1149.2225341796875,905.1414184570312,376.54705810546875,1152.29638671875,646.803466796875,419.5216064453125,854.8359375,694.1952514648438,399.04583740234375,599.5409545898438,694.7677001953125,306.5885009765625,447.1202697753906,729.7597045898438,252.01028442382812,252.07090759277344,797.4996948242188,150.27890014648438,172.71063232421875,757.3406372070312,415.5124816894531,181.02854919433594,1010.4589233398438,568.4658203125,812.8689575195312,956.5473022460938,585.9895629882812,577.790771484375,966.8089599609375,602.2855224609375,441.8128662109375,920.9895629882812,644.0481567382812,229.38943481445312,847.723876953125,595.8431396484375,155.47470092773438,906.7261962890625,846.1624145507812,221.97781372070312,0.0,0.0,0.0,0.0,0.0,0.0,0.0,0.0,0.0,0.0,0.0,0.0,1.0,0.0,0.0,0.0,0.0,0.0,0.0,0.0,0.0,0.0,0.0,0.0,0.0,1.0,0.0,0.0,0.0,0.0,0.0,0.0,0.0,0.0,0.0,0.0,0.0,0.0,1.0,0.0,0.0,0.0,0.0,0.0,0.0,0.0,0.0,0.0,0.0,0.0,0.0,1.0,0.0,0.0,0.0,0.0,0.0,0.0,0.0,0.0,0.0,0.0,0.0,0.0,1.0,0.0,0.0,0.0,0.0,0.0,0.0,0.0,0.0,0.0,0.0,0.0,0.0,1.0,0.0,0.0,0.0,0.0,0.0,0.0,0.0,0.0,0.0,0.0,0.0,0.0,1.0,0,0,0,0,0,0,0,0,0,0,0,0,0,0,0,0,0,0,0,0,0,0,0,0,0,0,0,0,0,0,0,0,0,0,0,0
1777280248.9919674,926,1,0.0,0.0,0.0,0.0,0.0,0.0,0.0,0.0,0.0,0.0,0.0,0.0,0.0,0.0,0.0,0.0,0.0,0.0,0.0,0.0,0.0,0.0,0.0,0.0,0.0,0.0,0.0,690.3812255859375,549.6367797851562,1106.384033203125,939.99755859375,583.9290161132812,1117.6160888671875,743.9318237304688,374.8035583496094,1149.2225341796875,905.1414184570312,376.54705810546875,1152.29638671875,646.803466796875,419.5216064453125,854.8359375,694.1952514648438,399.04583740234375,599.5409545898438,694.7677001953125,306.5885009765625,447.1202697753906,729.7597045898438,252.01028442382812,252.07090759277344,797.4996948242188,150.27890014648438,172.71063232421875,757.3406372070312,415.5124816894531,181.02854919433594,1010.4589233398438,568.4658203125,812.8689575195312,956.5473022460938,585.9895629882812,577.790771484375,966.8089599609375,602.2855224609375,441.8128662109375,920.9895629882812,644.0481567382812,229.38943481445312,847.723876953125,595.8431396484375,155.47470092773438,906.7261962890625,846.1624145507812,221.97781372070312,0.0,0.0,0.0,0.0,0.0,0.0,0.0,0.0,0.0,0.0,0.0,0.0,1.0,0.0,0.0,0.0,0.0,0.0,0.0,0.0,0.0,0.0,0.0,0.0,0.0,1.0,0.0,0.0,0.0,0.0,0.0,0.0,0.0,0.0,0.0,0.0,0.0,0.0,1.0,0.0,0.0,0.0,0.0,0.0,0.0,0.0,0.0,0.0,0.0,0.0,0.0,1.0,0.0,0.0,0.0,0.0,0.0,0.0,0.0,0.0,0.0,0.0,0.0,0.0,1.0,0.0,0.0,0.0,0.0,0.0,0.0,0.0,0.0,0.0,0.0,0.0,0.0,1.0,0.0,0.0,0.0,0.0,0.0,0.0,0.0,0.0,0.0,0.0,0.0,0.0,1.0,0,0,0,0,0,0,0,0,0,0,0,0,0,0,0,0,0,0,0,0,0,0,0,0,0,0,0,0,0,0,0,0,0,0,0,0
1777280249.0073304,928,0,0.0,0.0,0.0,0.0,0.0,0.0,0.0,0.0,0.0,0.0,0.0,0.0,0.0,0.0,0.0,0.0,0.0,0.0,0.0,0.0,0.0,0.0,0.0,0.0,0.0,0.0,0.0,692.8568725585938,552.2003173828125,1105.583251953125,942.4044799804688,586.779296875,1115.9366455078125,746.4652709960938,377.1249694824219,1147.154541015625,907.7372436523438,379.11322021484375,1150.0848388671875,647.3897094726562,421.979736328125,853.9232177734375,694.0100708007812,400.0004577636719,598.6271362304688,694.6734619140625,301.39276123046875,449.84979248046875,729.1206665039062,239.48626708984375,256.37078857421875,797.767333984375,135.63479614257812,177.917236328125,757.594482421875,400.2544250488281,180.6949005126953,1009.0191650390625,570.718017578125,809.638671875,954.8251953125,585.0526733398438,574.7051391601562,964.41552734375,599.035888671875,438.4968566894531,917.929931640625,634.7715454101562,226.02032470703125,847.6989135742188,581.33984375,157.10842895507812,897.7908935546875,836.6466064453125,210.57962036132812,0.0,0.0,0.0,0.0,0.0,0.0,0.0,0.0,0.0,0.0,0.0,0.0,1.0,0.0,0.0,0.0,0.0,0.0,0.0,0.0,0.0,0.0,0.0,0.0,0.0,1.0,0.0,0.0,0.0,0.0,0.0,0.0,0.0,0.0,0.0,0.0,0.0,0.0,1.0,0.0,0.0,0.0,0.0,0.0,0.0,0.0,0.0,0.0,0.0,0.0,0.0,1.0,0.0,0.0,0.0,0.0,0.0,0.0,0.0,0.0,0.0,0.0,0.0,0.0,1.0,0.0,0.0,0.0,0.0,0.0,0.0,0.0,0.0,0.0,0.0,0.0,0.0,1.0,0.0,0.0,0.0,0.0,0.0,0.0,0.0,0.0,0.0,0.0,0.0,0.0,1.0,0,0,0,0,0,0,0,0,0,0,0,0,0,0,0,0,0,0,0,0,0,0,0,0,0,0,0,0,0,0,0,0,0,0,0,0
1777280249.009364,929,0,0.0,0.0,0.0,0.0,0.0,0.0,0.0,0.0,0.0,0.0,0.0,0.0,0.0,0.0,0.0,0.0,0.0,0.0,0.0,0.0,0.0,0.0,0.0,0.0,0.0,0.0,0.0,694.25,553.6620483398438,1105.23486328125,943.7514038085938,588.303466796875,1115.20458984375,747.754150390625,378.4095764160156,1146.145751953125,909.057373046875,380.4775390625,1149.0648193359375,647.6792602539062,423.8467102050781,853.3816528320312,693.5944213867188,401.8436584472656,597.9971313476562,694.2883911132812,299.8733215332031,451.39605712890625,728.4647827148438,233.8954620361328,259.0,797.8432006835938,128.4731903076172,181.26388549804688,757.7059326171875,392.6575927734375,180.57232666015625,1008.4221801757812,571.9210815429688,808.20751953125,954.2191162109375,584.8467407226562,573.3966064453125,963.5867309570312,597.7740478515625,437.11309814453125,916.8087158203125,630.3250122070312,224.69659423828125,847.9364013671875,574.1911010742188,158.21006774902344,894.2952270507812,831.6683349609375,204.98590087890625,0.0,0.0,0.0,0.0,0.0,0.0,0.0,0.0,0.0,0.0,0.0,0.0,1.0,0.0,0.0,0.0,0.0,0.0,0.0,0.0,0.0,0.0,0.0,0.0,0.0,1.0,0.0,0.0,0.0,0.0,0.0,0.0,0.0,0.0,0.0,0.0,0.0,0.0,1.0,0.0,0.0,0.0,0.0,0.0,0.0,0.0,0.0,0.0,0.0,0.0,0.0,1.0,0.0,0.0,0.0,0.0,0.0,0.0,0.0,0.0,0.0,0.0,0.0,0.0,1.0,0.0,0.0,0.0,0.0,0.0,0.0,0.0,0.0,0.0,0.0,0.0,0.0,1.0,0.0,0.0,0.0,0.0,0.0,0.0,0.0,0.0,0.0,0.0,0.0,0.0,1.0,0,0,0,0,0,0,0,0,0,0,0,0,0,0,0,0,0,0,0,0,0,0,0,0,0,0,0,0,0,0,0,0,0,0,0,0
1777280249.0227182,929,1,0.0,0.0,0.0,0.0,0.0,0.0,0.0,0.0,0.0,0.0,0.0,0.0,0.0,0.0,0.0,0.0,0.0,0.0,0.0,0.0,0.0,0.0,0.0,0.0,0.0,0.0,0.0,694.25,553.6620483398438,1105.23486328125,943.7514038085938,588.303466796875,1115.20458984375,747.754150390625,378.4095764160156,1146.145751953125,909.057373046875,380.4775390625,1149.0648193359375,647.6792602539062,423.8467102050781,853.3816528320312,693.5944213867188,401.8436584472656,597.9971313476562,694.2883911132812,299.8733215332031,451.39605712890625,728.4647827148438,233.8954620361328,259.0,797.8432006835938,128.4731903076172,181.26388549804688,757.7059326171875,392.6575927734375,180.57232666015625,1008.4221801757812,571.9210815429688,808.20751953125,954.2191162109375,584.8467407226562,573.3966064453125,963.5867309570312,597.7740478515625,437.11309814453125,916.8087158203125,630.3250122070312,224.69659423828125,847.9364013671875,574.1911010742188,158.21006774902344,894.2952270507812,831.6683349609375,204.98590087890625,0.0,0.0,0.0,0.0,0.0,0.0,0.0,0.0,0.0,0.0,0.0,0.0,1.0,0.0,0.0,0.0,0.0,0.0,0.0,0.0,0.0,0.0,0.0,0.0,0.0,1.0,0.0,0.0,0.0,0.0,0.0,0.0,0.0,0.0,0.0,0.0,0.0,0.0,1.0,0.0,0.0,0.0,0.0,0.0,0.0,0.0,0.0,0.0,0.0,0.0,0.0,1.0,0.0,0.0,0.0,0.0,0.0,0.0,0.0,0.0,0.0,0.0,0.0,0.0,1.0,0.0,0.0,0.0,0.0,0.0,0.0,0.0,0.0,0.0,0.0,0.0,0.0,1.0,0.0,0.0,0.0,0.0,0.0,0.0,0.0,0.0,0.0,0.0,0.0,0.0,1.0,0,0,0,0,0,0,0,0,0,0,0,0,0,0,0,0,0,0,0,0,0,0,0,0,0,0,0,0,0,0,0,0,0,0,0,0
1777280249.0252223,931,0,0.0,0.0,0.0,0.0,0.0,0.0,0.0,0.0,0.0,0.0,0.0,0.0,0.0,0.0,0.0,0.0,0.0,0.0,0.0,0.0,0.0,0.0,0.0,0.0,0.0,0.0,0.0,697.305419921875,556.8018188476562,1104.6578369140625,946.6956787109375,591.4405517578125,1113.9935302734375,750.3600463867188,381.10577392578125,1144.219970703125,911.7211303710938,383.27587890625,1147.24462890625,648.3062133789062,428.9009094238281,852.1002807617188,692.0166625976562,408.5787048339844,596.3912353515625,692.7102661132812,299.54522705078125,454.8905029296875,726.3588256835938,224.67111206054688,265.3955383300781,797.83056640625,114.89388275146484,190.0929412841797,757.837646484375,377.7096862792969,180.32691955566406,1007.6137084960938,574.3363037109375,805.7969970703125,953.6222534179688,584.86083984375,571.30859375,962.8253173828125,595.8619995117188,434.95489501953125,915.4788208007812,621.64208984375,222.7589569091797,848.7562866210938,560.1026000976562,160.56509399414062,889.6589965820312,820.9613647460938,194.923095703125,0.0,0.0,0.0,0.0,0.0,0.0,0.0,0.0,0.0,0.0,0.0,0.0,1.0,0.0,0.0,0.0,0.0,0.0,0.0,0.0,0.0,0.0,0.0,0.0,0.0,1.0,0.0,0.0,0.0,0.0,0.0,0.0,0.0,0.0,0.0,0.0,0.0,0.0,1.0,0.0,0.0,0.0,0.0,0.0,0.0,0.0,0.0,0.0,0.0,0.0,0.0,1.0,0.0,0.0,0.0,0.0,0.0,0.0,0.0,0.0,0.0,0.0,0.0,0.0,1.0,0.0,0.0,0.0,0.0,0.0,0.0,0.0,0.0,0.0,0.0,0.0,0.0,1.0,0.0,0.0,0.0,0.0,0.0,0.0,0.0,0.0,0.0,0.0,0.0,0.0,1.0,0,0,0,0,0,0,0,0,0,0,0,0,0,0,0,0,0,0,0,0,0,0,0,0,0,0,0,0,0,0,0,0,0,0,0,0
1777280249.0388896,931,1,0.0,0.0,0.0,0.0,0.0,0.0,0.0,0.0,0.0,0.0,0.0,0.0,0.0,0.0,0.0,0.0,0.0,0.0,0.0,0.0,0.0,0.0,0.0,0.0,0.0,0.0,0.0,697.305419921875,556.8018188476562,1104.6578369140625,946.6956787109375,591.4405517578125,1113.9935302734375,750.3600463867188,381.10577392578125,1144.219970703125,911.7211303710938,383.27587890625,1147.24462890625,648.3062133789062,428.9009094238281,852.1002807617188,692.0166625976562,408.5787048339844,596.3912353515625,692.7102661132812,299.54522705078125,454.8905029296875,726.3588256835938,224.67111206054688,265.3955383300781,797.83056640625,114.89388275146484,190.0929412841797,757.837646484375,377.7096862792969,180.32691955566406,1007.6137084960938,574.3363037109375,805.7969970703125,953.6222534179688,584.86083984375,571.30859375,962.8253173828125,595.8619995117188,434.95489501953125,915.4788208007812,621.64208984375,222.7589569091797,848.7562866210938,560.1026000976562,160.56509399414062,889.6589965820312,820.9613647460938,194.923095703125,0.0,0.0,0.0,0.0,0.0,0.0,0.0,0.0,0.0,0.0,0.0,0.0,1.0,0.0,0.0,0.0,0.0,0.0,0.0,0.0,0.0,0.0,0.0,0.0,0.0,1.0,0.0,0.0,0.0,0.0,0.0,0.0,0.0,0.0,0.0,0.0,0.0,0.0,1.0,0.0,0.0,0.0,0.0,0.0,0.0,0.0,0.0,0.0,0.0,0.0,0.0,1.0,0.0,0.0,0.0,0.0,0.0,0.0,0.0,0.0,0.0,0.0,0.0,0.0,1.0,0.0,0.0,0.0,0.0,0.0,0.0,0.0,0.0,0.0,0.0,0.0,0.0,1.0,0.0,0.0,0.0,0.0,0.0,0.0,0.0,0.0,0.0,0.0,0.0,0.0,1.0,0,0,0,0,0,0,0,0,0,0,0,0,0,0,0,0,0,0,0,0,0,0,0,0,0,0,0,0,0,0,0,0,0,0,0,0
1777280249.0550427,932,0,0.0,0.0,0.0,0.0,0.0,0.0,0.0,0.0,0.0,0.0,0.0,0.0,0.0,0.0,0.0,0.0,0.0,0.0,0.0,0.0,0.0,0.0,0.0,0.0,0.0,0.0,0.0,698.94189453125,558.416015625,1104.4366455078125,948.2705688476562,593.0069580078125,1113.5262451171875,751.6708374023438,382.4664611816406,1143.320556640625,913.0564575195312,384.67120361328125,1146.460693359375,648.6691284179688,432.0820007324219,851.3634033203125,690.8412475585938,413.53643798828125,595.4440307617188,691.4798583984375,300.932861328125,456.85589599609375,724.8729858398438,221.2984619140625,269.2255554199219,797.6676025390625,108.78254699707031,195.97398376464844,757.8054809570312,370.4744567871094,180.12619018554688,1007.450927734375,575.4815063476562,804.8319091796875,953.64208984375,584.990478515625,570.5252685546875,962.8939208984375,595.07275390625,434.1666259765625,915.23828125,617.2533569335938,222.10409545898438,849.2669677734375,553.0913696289062,161.65029907226562,888.4532470703125,815.126220703125,190.75640869140625,0.0,0.0,0.0,0.0,0.0,0.0,0.0,0.0,0.0,0.0,0.0,0.0,1.0,0.0,0.0,0.0,0.0,0.0,0.0,0.0,0.0,0.0,0.0,0.0,0.0,1.0,0.0,0.0,0.0,0.0,0.0,0.0,0.0,0.0,0.0,0.0,0.0,0.0,1.0,0.0,0.0,0.0,0.0,0.0,0.0,0.0,0.0,0.0,0.0,0.0,0.0,1.0,0.0,0.0,0.0,0.0,0.0,0.0,0.0,0.0,0.0,0.0,0.0,0.0,1.0,0.0,0.0,0.0,0.0,0.0,0.0,0.0,0.0,0.0,0.0,0.0,0.0,1.0,0.0,0.0,0.0,0.0,0.0,0.0,0.0,0.0,0.0,0.0,0.0,0.0,1.0,0,0,0,0,0,0,0,0,0,0,0,0,0,0,0,0,0,0,0,0,0,0,0,0,0,0,0,0,0,0,0,0,0,0,0,0
1777280249.0570138,933,0,0.0,0.0,0.0,0.0,0.0,0.0,0.0,0.0,0.0,0.0,0.0,0.0,0.0,0.0,0.0,0.0,0.0,0.0,0.0,0.0,0.0,0.0,0.0,0.0,0.0,0.0,0.0,700.6290893554688,560.0161743164062,1104.26611328125,949.8949584960938,594.540771484375,1113.1561279296875,752.9828491210938,383.8018798828125,1142.4755859375,914.388916015625,386.0382080078125,1145.7698974609375,649.0814208984375,435.6807556152344,850.5752563476562,689.419189453125,419.5564270019531,594.438232421875,689.9451293945312,303.45501708984375,458.9796142578125,723.0885009765625,218.9151153564453,273.51171875,797.309326171875,103.41249084472656,203.15362548828125,757.6574096679688,363.4951171875,179.80259704589844,1007.4755249023438,576.5359497070312,804.0228881835938,953.8621826171875,585.1146850585938,569.8975219726562,963.2249145507812,594.2620239257812,433.5444641113281,915.2281494140625,612.717529296875,221.6207733154297,849.799560546875,546.0513916015625,162.5861358642578,887.8483276367188,808.944091796875,187.28128051757812,0.0,0.0,0.0,0.0,0.0,0.0,0.0,0.0,0.0,0.0,0.0,0.0,1.0,0.0,0.0,0.0,0.0,0.0,0.0,0.0,0.0,0.0,0.0,0.0,0.0,1.0,0.0,0.0,0.0,0.0,0.0,0.0,0.0,0.0,0.0,0.0,0.0,0.0,1.0,0.0,0.0,0.0,0.0,0.0,0.0,0.0,0.0,0.0,0.0,0.0,0.0,1.0,0.0,0.0,0.0,0.0,0.0,0.0,0.0,0.0,0.0,0.0,0.0,0.0,1.0,0.0,0.0,0.0,0.0,0.0,0.0,0.0,0.0,0.0,0.0,0.0,0.0,1.0,0.0,0.0,0.0,0.0,0.0,0.0,0.0,0.0,0.0,0.0,0.0,0.0,1.0,0,0,0,0,0,0,0,0,0,0,0,0,0,0,0,0,0,0,0,0,0,0,0,0,0,0,0,0,0,0,0,0,0,0,0,0
1777280249.0702474,934,0,0.0,0.0,0.0,0.0,0.0,0.0,0.0,0.0,0.0,0.0,0.0,0.0,0.0,0.0,0.0,0.0,0.0,0.0,0.0,0.0,0.0,0.0,0.0,0.0,0.0,0.0,0.0,702.34814453125,561.5703735351562,1104.1507568359375,951.5524291992188,596.0194702148438,1112.8853759765625,754.293212890625,385.08819580078125,1141.694091796875,915.7147216796875,387.3581848144531,1145.177734375,649.5529174804688,439.6732177734375,849.7547607421875,687.775634765625,426.606201171875,593.4161987304688,688.1134033203125,307.1531066894531,461.27337646484375,721.012939453125,217.62010192871094,278.27166748046875,796.6600952148438,99.05502319335938,211.8757781982422,757.3489379882812,356.8515319824219,179.29957580566406,1007.7011108398438,577.46044921875,803.3570556640625,954.2612915039062,585.1533203125,569.4024047851562,963.7676391601562,593.3134155273438,433.0584716796875,915.3946533203125,607.9566040039062,221.27821350097656,850.3255615234375,538.9589233398438,163.3359375,887.6990966796875,802.4375610351562,184.50328063964844,0.0,0.0,0.0,0.0,0.0,0.0,0.0,0.0,0.0,0.0,0.0,0.0,1.0,0.0,0.0,0.0,0.0,0.0,0.0,0.0,0.0,0.0,0.0,0.0,0.0,1.0,0.0,0.0,0.0,0.0,0.0,0.0,0.0,0.0,0.0,0.0,0.0,0.0,1.0,0.0,0.0,0.0,0.0,0.0,0.0,0.0,0.0,0.0,0.0,0.0,0.0,1.0,0.0,0.0,0.0,0.0,0.0,0.0,0.0,0.0,0.0,0.0,0.0,0.0,1.0,0.0,0.0,0.0,0.0,0.0,0.0,0.0,0.0,0.0,0.0,0.0,0.0,1.0,0.0,0.0,0.0,0.0,0.0,0.0,0.0,0.0,0.0,0.0,0.0,0.0,1.0,0,0,0,0,0,0,0,0,0,0,0,0,0,0,0,0,0,0,0,0,0,0,0,0,0,0,0,0,0,0,0,0,0,0,0,0
1777280249.0872216,935,0,0.0,0.0,0.0,0.0,0.0,0.0,0.0,0.0,0.0,0.0,0.0,0.0,0.0,0.0,0.0,0.0,0.0,0.0,0.0,0.0,0.0,0.0,0.0,0.0,0.0,0.0,0.0,704.0790405273438,563.048828125,1104.0963134765625,953.2251586914062,597.4216918945312,1112.7144775390625,755.5991821289062,386.3034973144531,1140.98583984375,917.0303955078125,388.61346435546875,1144.6884765625,650.0900268554688,444.0284118652344,848.928955078125,685.9491577148438,434.6264953613281,592.430908203125,686.0067138671875,312.03509521484375,463.75140380859375,718.6692504882812,217.48252868652344,283.51422119140625,795.6152954101562,96.0041732788086,222.34039306640625,756.8375244140625,350.62152099609375,178.57164001464844,1008.1359252929688,578.215087890625,802.8148803710938,954.811767578125,585.0211181640625,569.01318359375,964.4613037109375,592.1098022460938,432.67596435546875,915.6796875,602.9111328125,221.0470428466797,850.8218383789062,531.8065795898438,163.88836669921875,887.85693359375,795.6566772460938,182.372314453125,0.0,0.0,0.0,0.0,0.0,0.0,0.0,0.0,0.0,0.0,0.0,0.0,1.0,0.0,0.0,0.0,0.0,0.0,0.0,0.0,0.0,0.0,0.0,0.0,0.0,1.0,0.0,0.0,0.0,0.0,0.0,0.0,0.0,0.0,0.0,0.0,0.0,0.0,1.0,0.0,0.0,0.0,0.0,0.0,0.0,0.0,0.0,0.0,0.0,0.0,0.0,1.0,0.0,0.0,0.0,0.0,0.0,0.0,0.0,0.0,0.0,0.0,0.0,0.0,1.0,0.0,0.0,0.0,0.0,0.0,0.0,0.0,0.0,0.0,0.0,0.0,0.0,1.0,0.0,0.0,0.0,0.0,0.0,0.0,0.0,0.0,0.0,0.0,0.0,0.0,1.0,0,0,0,0,0,0,0,0,0,0,0,0,0,0,0,0,0,0,0,0,0,0,0,0,0,0,0,0,0,0,0,0,0,0,0,0
1777280249.0897121,937,0,0.0,0.0,0.0,0.0,0.0,0.0,0.0,0.0,0.0,0.0,0.0,0.0,0.0,0.0,0.0,0.0,0.0,0.0,0.0,0.0,0.0,0.0,0.0,0.0,0.0,0.0,0.0,707.4957275390625,565.6761474609375,1104.1937255859375,956.5442504882812,599.9207763671875,1112.6683349609375,758.1852416992188,388.44677734375,1139.826171875,919.6175537109375,390.8663330078125,1144.0308837890625,651.3616333007812,453.6759948730469,847.4083251953125,681.957275390625,453.2218933105469,590.8226318359375,681.1326293945312,325.2005920410156,469.331787109375,713.3491821289062,220.7713165283203,295.42333984375,791.9970092773438,94.93841552734375,248.80943298339844,755.086181640625,339.6797180175781,176.39630126953125,1009.6339721679688,579.0638427734375,802.0037231445312,956.2408447265625,583.9197998046875,568.4439086914062,966.0588989257812,588.5294189453125,432.09844970703125,916.38671875,591.84814453125,220.81932067871094,851.66455078125,517.3603515625,164.46417236328125,888.5933227539062,781.5383911132812,179.68307495117188,0.0,0.0,0.0,0.0,0.0,0.0,0.0,0.0,0.0,0.0,0.0,0.0,1.0,0.0,0.0,0.0,0.0,0.0,0.0,0.0,0.0,0.0,0.0,0.0,0.0,1.0,0.0,0.0,0.0,0.0,0.0,0.0,0.0,0.0,0.0,0.0,0.0,0.0,1.0,0.0,0.0,0.0,0.0,0.0,0.0,0.0,0.0,0.0,0.0,0.0,0.0,1.0,0.0,0.0,0.0,0.0,0.0,0.0,0.0,0.0,0.0,0.0,0.0,0.0,1.0,0.0,0.0,0.0,0.0,0.0,0.0,0.0,0.0,0.0,0.0,0.0,0.0,1.0,0.0,0.0,0.0,0.0,0.0,0.0,0.0,0.0,0.0,0.0,0.0,0.0,1.0,0,0,0,0,0,0,0,0,0,0,0,0,0,0,0,0,0,0,0,0,0,0,0,0,0,0,0,0,0,0,0,0,0,0,0,0
1777280249.1030152,937,1,0.0,0.0,0.0,0.0,0.0,0.0,0.0,0.0,0.0,0.0,0.0,0.0,0.0,0.0,0.0,0.0,0.0,0.0,0.0,0.0,0.0,0.0,0.0,0.0,0.0,0.0,0.0,707.4957275390625,565.6761474609375,1104.1937255859375,956.5442504882812,599.9207763671875,1112.6683349609375,758.1852416992188,388.44677734375,1139.826171875,919.6175537109375,390.8663330078125,1144.0308837890625,651.3616333007812,453.6759948730469,847.4083251953125,681.957275390625,453.2218933105469,590.8226318359375,681.1326293945312,325.2005920410156,469.331787109375,713.3491821289062,220.7713165283203,295.42333984375,791.9970092773438,94.93841552734375,248.80943298339844,755.086181640625,339.6797180175781,176.39630126953125,1009.6339721679688,579.0638427734375,802.0037231445312,956.2408447265625,583.9197998046875,568.4439086914062,966.0588989257812,588.5294189453125,432.09844970703125,916.38671875,591.84814453125,220.81932067871094,851.66455078125,517.3603515625,164.46417236328125,888.5933227539062,781.5383911132812,179.68307495117188,0.0,0.0,0.0,0.0,0.0,0.0,0.0,0.0,0.0,0.0,0.0,0.0,1.0,0.0,0.0,0.0,0.0,0.0,0.0,0.0,0.0,0.0,0.0,0.0,0.0,1.0,0.0,0.0,0.0,0.0,0.0,0.0,0.0,0.0,0.0,0.0,0.0,0.0,1.0,0.0,0.0,0.0,0.0,0.0,0.0,0.0,0.0,0.0,0.0,0.0,0.0,1.0,0.0,0.0,0.0,0.0,0.0,0.0,0.0,0.0,0.0,0.0,0.0,0.0,1.0,0.0,0.0,0.0,0.0,0.0,0.0,0.0,0.0,0.0,0.0,0.0,0.0,1.0,0.0,0.0,0.0,0.0,0.0,0.0,0.0,0.0,0.0,0.0,0.0,0.0,1.0,0,0,0,0,0,0,0,0,0,0,0,0,0,0,0,0,0,0,0,0,0,0,0,0,0,0,0,0,0,0,0,0,0,0,0,0
1777280249.1050444,939,0,0.0,0.0,0.0,0.0,0.0,0.0,0.0,0.0,0.0,0.0,0.0,0.0,0.0,0.0,0.0,0.0,0.0,0.0,0.0,0.0,0.0,0.0,0.0,0.0,0.0,0.0,0.0,710.7298583984375,567.7391967773438,1104.6138916015625,959.71630859375,601.9099731445312,1113.00390625,760.7140502929688,390.11578369140625,1139.0712890625,922.12255859375,392.68841552734375,1143.8118896484375,652.8410034179688,464.2926025390625,846.3690185546875,677.9263305664062,474.4493713378906,590.1563110351562,675.78271484375,342.3104248046875,475.8767395019531,707.6016235351562,228.59661865234375,309.0297546386719,786.22265625,101.8707046508789,281.7601318359375,752.3128051757812,331.2130126953125,173.6073760986328,1011.900634765625,578.8255004882812,801.3943481445312,957.905029296875,581.28515625,568.0089111328125,967.624755859375,582.952392578125,431.6214599609375,917.0055541992188,579.5257568359375,220.7895965576172,852.2779541015625,502.8516540527344,164.5787811279297,889.358642578125,767.1004638671875,178.38963317871094,0.0,0.0,0.0,0.0,0.0,0.0,0.0,0.0,0.0,0.0,0.0,0.0,1.0,0.0,0.0,0.0,0.0,0.0,0.0,0.0,0.0,0.0,0.0,0.0,0.0,1.0,0.0,0.0,0.0,0.0,0.0,0.0,0.0,0.0,0.0,0.0,0.0,0.0,1.0,0.0,0.0,0.0,0.0,0.0,0.0,0.0,0.0,0.0,0.0,0.0,0.0,1.0,0.0,0.0,0.0,0.0,0.0,0.0,0.0,0.0,0.0,0.0,0.0,0.0,1.0,0.0,0.0,0.0,0.0,0.0,0.0,0.0,0.0,0.0,0.0,0.0,0.0,1.0,0.0,0.0,0.0,0.0,0.0,0.0,0.0,0.0,0.0,0.0,0.0,0.0,1.0,0,0,0,0,0,0,0,0,0,0,0,0,0,0,0,0,0,0,0,0,0,0,0,0,0,0,0,0,0,0,0,0,0,0,0,0
1777280249.1187437,939,1,0.0,0.0,0.0,0.0,0.0,0.0,0.0,0.0,0.0,0.0,0.0,0.0,0.0,0.0,0.0,0.0,0.0,0.0,0.0,0.0,0.0,0.0,0.0,0.0,0.0,0.0,0.0,710.7298583984375,567.7391967773438,1104.6138916015625,959.71630859375,601.9099731445312,1113.00390625,760.7140502929688,390.11578369140625,1139.0712890625,922.12255859375,392.68841552734375,1143.8118896484375,652.8410034179688,464.2926025390625,846.3690185546875,677.9263305664062,474.4493713378906,590.1563110351562,675.78271484375,342.3104248046875,475.8767395019531,707.6016235351562,228.59661865234375,309.0297546386719,786.22265625,101.8707046508789,281.7601318359375,752.3128051757812,331.2130126953125,173.6073760986328,1011.900634765625,578.8255004882812,801.3943481445312,957.905029296875,581.28515625,568.0089111328125,967.624755859375,582.952392578125,431.6214599609375,917.0055541992188,579.5257568359375,220.7895965576172,852.2779541015625,502.8516540527344,164.5787811279297,889.358642578125,767.1004638671875,178.38963317871094,0.0,0.0,0.0,0.0,0.0,0.0,0.0,0.0,0.0,0.0,0.0,0.0,1.0,0.0,0.0,0.0,0.0,0.0,0.0,0.0,0.0,0.0,0.0,0.0,0.0,1.0,0.0,0.0,0.0,0.0,0.0,0.0,0.0,0.0,0.0,0.0,0.0,0.0,1.0,0.0,0.0,0.0,0.0,0.0,0.0,0.0,0.0,0.0,0.0,0.0,0.0,1.0,0.0,0.0,0.0,0.0,0.0,0.0,0.0,0.0,0.0,0.0,0.0,0.0,1.0,0.0,0.0,0.0,0.0,0.0,0.0,0.0,0.0,0.0,0.0,0.0,0.0,1.0,0.0,0.0,0.0,0.0,0.0,0.0,0.0,0.0,0.0,0.0,0.0,0.0,1.0,0,0,0,0,0,0,0,0,0,0,0,0,0,0,0,0,0,0,0,0,0,0,0,0,0,0,0,0,0,0,0,0,0,0,0,0
1777280249.134509,941,0,0.0,0.0,0.0,0.0,0.0,0.0,0.0,0.0,0.0,0.0,0.0,0.0,0.0,0.0,0.0,0.0,0.0,0.0,0.0,0.0,0.0,0.0,0.0,0.0,0.0,0.0,0.0,713.671630859375,569.1629028320312,1105.4193115234375,962.6383056640625,603.3059692382812,1113.705078125,763.1531982421875,391.25067138671875,1138.7894287109375,924.5155639648438,394.0068359375,1144.0302734375,654.3909912109375,475.53302001953125,846.218994140625,674.341552734375,497.2445068359375,590.9492797851562,670.5479125976562,362.306396484375,483.4948425292969,702.0078125,240.31854248046875,323.7899169921875,779.0195922851562,116.89584350585938,317.95733642578125,748.6253662109375,326.068115234375,171.2724151611328,1014.7462768554688,577.362060546875,800.8482666015625,959.6055908203125,576.8878784179688,567.6218872070312,968.9742431640625,575.3128662109375,431.1767272949219,917.400634765625,566.2241821289062,220.89732360839844,852.7176513671875,488.41064453125,164.57847595214844,889.921142578125,752.6732177734375,177.7915802001953,0.0,0.0,0.0,0.0,0.0,0.0,0.0,0.0,0.0,0.0,0.0,0.0,1.0,0.0,0.0,0.0,0.0,0.0,0.0,0.0,0.0,0.0,0.0,0.0,0.0,1.0,0.0,0.0,0.0,0.0,0.0,0.0,0.0,0.0,0.0,0.0,0.0,0.0,1.0,0.0,0.0,0.0,0.0,0.0,0.0,0.0,0.0,0.0,0.0,0.0,0.0,1.0,0.0,0.0,0.0,0.0,0.0,0.0,0.0,0.0,0.0,0.0,0.0,0.0,1.0,0.0,0.0,0.0,0.0,0.0,0.0,0.0,0.0,0.0,0.0,0.0,0.0,1.0,0.0,0.0,0.0,0.0,0.0,0.0,0.0,0.0,0.0,0.0,0.0,0.0,1.0,0,0,0,0,0,0,0,0,0,0,0,0,0,0,0,0,0,0,0,0,0,0,0,0,0,0,0,0,0,0,0,0,0,0,0,0
1777280249.136906,942,0,0.0,0.0,0.0,0.0,0.0,0.0,0.0,0.0,0.0,0.0,0.0,0.0,0.0,0.0,0.0,0.0,0.0,0.0,0.0,0.0,0.0,0.0,0.0,0.0,0.0,0.0,0.0,715.0145874023438,569.6351928710938,1105.985595703125,963.9873657226562,603.7689208984375,1114.1883544921875,764.3276977539062,391.6140441894531,1138.843017578125,925.66015625,394.4653625488281,1144.298828125,655.137451171875,481.2804870605469,846.5972290039062,672.8365478515625,508.891357421875,592.0161743164062,668.158447265625,373.0036315917969,487.69403076171875,699.43896484375,247.38522338867188,331.3257141113281,775.343017578125,126.88188171386719,335.70062255859375,746.484619140625,325.2170715332031,170.77352905273438,1016.297119140625,576.1728515625,800.5848388671875,960.4246826171875,574.0490112304688,567.4482421875,969.5604858398438,570.8312377929688,430.97900390625,917.5256958007812,559.3267211914062,221.0048370361328,852.9049072265625,481.2279968261719,164.6236114501953,890.1399536132812,745.4988403320312,177.61373901367188,0.0,0.0,0.0,0.0,0.0,0.0,0.0,0.0,0.0,0.0,0.0,0.0,1.0,0.0,0.0,0.0,0.0,0.0,0.0,0.0,0.0,0.0,0.0,0.0,0.0,1.0,0.0,0.0,0.0,0.0,0.0,0.0,0.0,0.0,0.0,0.0,0.0,0.0,1.0,0.0,0.0,0.0,0.0,0.0,0.0,0.0,0.0,0.0,0.0,0.0,0.0,1.0,0.0,0.0,0.0,0.0,0.0,0.0,0.0,0.0,0.0,0.0,0.0,0.0,1.0,0.0,0.0,0.0,0.0,0.0,0.0,0.0,0.0,0.0,0.0,0.0,0.0,1.0,0.0,0.0,0.0,0.0,0.0,0.0,0.0,0.0,0.0,0.0,0.0,0.0,1.0,0,0,0,0,0,0,0,0,0,0,0,0,0,0,0,0,0,0,0,0,0,0,0,0,0,0,0,0,0,0,0,0,0,0,0,0
1777280249.1521592,943,0,0.0,0.0,0.0,0.0,0.0,0.0,0.0,0.0,0.0,0.0,0.0,0.0,0.0,0.0,0.0,0.0,0.0,0.0,0.0,0.0,0.0,0.0,0.0,0.0,0.0,0.0,0.0,716.270751953125,569.9573364257812,1106.669189453125,965.2596435546875,604.0748291015625,1114.7576904296875,765.4656982421875,391.84527587890625,1139.0322265625,926.7646484375,394.7889099121094,1144.6688232421875,655.8369140625,487.05401611328125,847.3272705078125,671.563720703125,520.53515625,593.5670166015625,666.0044555664062,383.96588134765625,492.1123046875,697.0934448242188,255.12359619140625,338.7725830078125,771.9075927734375,137.94100952148438,352.22515869140625,744.15625,325.88092041015625,171.01063537597656,1017.8767700195312,574.70166015625,800.3341674804688,961.2063598632812,570.828125,567.2985229492188,970.0952758789062,566.0047607421875,430.81451416015625,917.62158203125,552.3252563476562,221.15518188476562,853.0867919921875,474.0618896484375,164.7273712158203,890.3395385742188,738.3434448242188,177.4779815673828,0.0,0.0,0.0,0.0,0.0,0.0,0.0,0.0,0.0,0.0,0.0,0.0,1.0,0.0,0.0,0.0,0.0,0.0,0.0,0.0,0.0,0.0,0.0,0.0,0.0,1.0,0.0,0.0,0.0,0.0,0.0,0.0,0.0,0.0,0.0,0.0,0.0,0.0,1.0,0.0,0.0,0.0,0.0,0.0,0.0,0.0,0.0,0.0,0.0,0.0,0.0,1.0,0.0,0.0,0.0,0.0,0.0,0.0,0.0,0.0,0.0,0.0,0.0,0.0,1.0,0.0,0.0,0.0,0.0,0.0,0.0,0.0,0.0,0.0,0.0,0.0,0.0,1.0,0.0,0.0,0.0,0.0,0.0,0.0,0.0,0.0,0.0,0.0,0.0,0.0,1.0,0,0,0,0,0,0,0,0,0,0,0,0,0,0,0,0,0,0,0,0,0,0,0,0,0,0,0,0,0,0,0,0,0,0,0,0
1777280249.1694725,945,0,0.0,0.0,0.0,0.0,0.0,0.0,0.0,0.0,0.0,0.0,0.0,0.0,0.0,0.0,0.0,0.0,0.0,0.0,0.0,0.0,0.0,0.0,0.0,0.0,0.0,0.0,0.0,718.5396728515625,570.1998291015625,1108.400634765625,967.5880126953125,604.2313232421875,1116.1435546875,767.6132202148438,391.93634033203125,1139.8212890625,928.8380126953125,395.04180908203125,1145.6925048828125,657.037841796875,498.4797668457031,849.9163818359375,669.7581787109375,543.3668823242188,598.1268920898438,662.5740356445312,406.1566162109375,501.3612060546875,693.201904296875,272.2957763671875,352.7312316894531,766.4967041015625,161.10552978515625,378.83544921875,738.9071044921875,332.99261474609375,174.33880615234375,1020.9501342773438,571.0380859375,799.917236328125,962.6238403320312,563.4213256835938,567.1126098632812,971.0350341796875,555.6138305664062,430.6413269042969,917.7815551757812,538.1395263671875,221.60760498046875,853.4631958007812,459.7203369140625,165.13706970214844,890.7394409179688,724.0237426757812,177.290771484375,0.0,0.0,0.0,0.0,0.0,0.0,0.0,0.0,0.0,0.0,0.0,0.0,1.0,0.0,0.0,0.0,0.0,0.0,0.0,0.0,0.0,0.0,0.0,0.0,0.0,1.0,0.0,0.0,0.0,0.0,0.0,0.0,0.0,0.0,0.0,0.0,0.0,0.0,1.0,0.0,0.0,0.0,0.0,0.0,0.0,0.0,0.0,0.0,0.0,0.0,0.0,1.0,0.0,0.0,0.0,0.0,0.0,0.0,0.0,0.0,0.0,0.0,0.0,0.0,1.0,0.0,0.0,0.0,0.0,0.0,0.0,0.0,0.0,0.0,0.0,0.0,0.0,1.0,0.0,0.0,0.0,0.0,0.0,0.0,0.0,0.0,0.0,0.0,0.0,0.0,1.0,0,0,0,0,0,0,0,0,0,0,0,0,0,0,0,0,0,0,0,0,0,0,0,0,0,0,0,0,0,0,0,0,0,0,0,0
1777280249.182785,945,1,0.0,0.0,0.0,0.0,0.0,0.0,0.0,0.0,0.0,0.0,0.0,0.0,0.0,0.0,0.0,0.0,0.0,0.0,0.0,0.0,0.0,0.0,0.0,0.0,0.0,0.0,0.0,718.5396728515625,570.1998291015625,1108.400634765625,967.5880126953125,604.2313232421875,1116.1435546875,767.6132202148438,391.93634033203125,1139.8212890625,928.8380126953125,395.04180908203125,1145.6925048828125,657.037841796875,498.4797668457031,849.9163818359375,669.7581787109375,543.3668823242188,598.1268920898438,662.5740356445312,406.1566162109375,501.3612060546875,693.201904296875,272.2957763671875,352.7312316894531,766.4967041015625,161.10552978515625,378.83544921875,738.9071044921875,332.99261474609375,174.33880615234375,1020.9501342773438,571.0380859375,799.917236328125,962.6238403320312,563.4213256835938,567.1126098632812,971.0350341796875,555.6138305664062,430.6413269042969,917.7815551757812,538.1395263671875,221.60760498046875,853.4631958007812,459.7203369140625,165.13706970214844,890.7394409179688,724.0237426757812,177.290771484375,0.0,0.0,0.0,0.0,0.0,0.0,0.0,0.0,0.0,0.0,0.0,0.0,1.0,0.0,0.0,0.0,0.0,0.0,0.0,0.0,0.0,0.0,0.0,0.0,0.0,1.0,0.0,0.0,0.0,0.0,0.0,0.0,0.0,0.0,0.0,0.0,0.0,0.0,1.0,0.0,0.0,0.0,0.0,0.0,0.0,0.0,0.0,0.0,0.0,0.0,0.0,1.0,0.0,0.0,0.0,0.0,0.0,0.0,0.0,0.0,0.0,0.0,0.0,0.0,1.0,0.0,0.0,0.0,0.0,0.0,0.0,0.0,0.0,0.0,0.0,0.0,0.0,1.0,0.0,0.0,0.0,0.0,0.0,0.0,0.0,0.0,0.0,0.0,0.0,0.0,1.0,0,0,0,0,0,0,0,0,0,0,0,0,0,0,0,0,0,0,0,0,0,0,0,0,0,0,0,0,0,0,0,0,0,0,0,0
1777280249.1861007,947,0,0.0,0.0,0.0,0.0,0.0,0.0,0.0,0.0,0.0,0.0,0.0,0.0,0.0,0.0,0.0,0.0,0.0,0.0,0.0,0.0,0.0,0.0,0.0,0.0,0.0,0.0,0.0,720.5370483398438,570.00439453125,1110.607421875,969.67578125,603.8329467773438,1117.822509765625,769.5612182617188,391.5886535644531,1141.1363525390625,930.7083740234375,394.80731201171875,1147.0477294921875,657.9464111328125,509.3507995605469,853.974365234375,668.896728515625,564.9698486328125,604.4618530273438,660.435546875,428.0088195800781,510.56884765625,690.4442138671875,291.3719177246094,364.2908020019531,763.5816650390625,182.7225341796875,393.7362060546875,732.7808227539062,349.3572082519531,181.5609893798828,1023.6591796875,566.669921875,799.696044921875,963.81298828125,555.0195922851562,567.133544921875,971.8214111328125,544.6104125976562,430.742431640625,917.9486083984375,523.8190307617188,222.28060913085938,853.8703002929688,445.2553405761719,165.78482055664062,891.1890869140625,709.5703735351562,177.20347595214844,0.0,0.0,0.0,0.0,0.0,0.0,0.0,0.0,0.0,0.0,0.0,0.0,1.0,0.0,0.0,0.0,0.0,0.0,0.0,0.0,0.0,0.0,0.0,0.0,0.0,1.0,0.0,0.0,0.0,0.0,0.0,0.0,0.0,0.0,0.0,0.0,0.0,0.0,1.0,0.0,0.0,0.0,0.0,0.0,0.0,0.0,0.0,0.0,0.0,0.0,0.0,1.0,0.0,0.0,0.0,0.0,0.0,0.0,0.0,0.0,0.0,0.0,0.0,0.0,1.0,0.0,0.0,0.0,0.0,0.0,0.0,0.0,0.0,0.0,0.0,0.0,0.0,1.0,0.0,0.0,0.0,0.0,0.0,0.0,0.0,0.0,0.0,0.0,0.0,0.0,1.0,0,0,0,0,0,0,0,0,0,0,0,0,0,0,0,0,0,0,0,0,0,0,0,0,0,0,0,0,0,0,0,0,0,0,0,0
1777280249.1994543,947,1,0.0,0.0,0.0,0.0,0.0,0.0,0.0,0.0,0.0,0.0,0.0,0.0,0.0,0.0,0.0,0.0,0.0,0.0,0.0,0.0,0.0,0.0,0.0,0.0,0.0,0.0,0.0,720.5370483398438,570.00439453125,1110.607421875,969.67578125,603.8329467773438,1117.822509765625,769.5612182617188,391.5886535644531,1141.1363525390625,930.7083740234375,394.80731201171875,1147.0477294921875,657.9464111328125,509.3507995605469,853.974365234375,668.896728515625,564.9698486328125,604.4618530273438,660.435546875,428.0088195800781,510.56884765625,690.4442138671875,291.3719177246094,364.2908020019531,763.5816650390625,182.7225341796875,393.7362060546875,732.7808227539062,349.3572082519531,181.5609893798828,1023.6591796875,566.669921875,799.696044921875,963.81298828125,555.0195922851562,567.133544921875,971.8214111328125,544.6104125976562,430.742431640625,917.9486083984375,523.8190307617188,222.28060913085938,853.8703002929688,445.2553405761719,165.78482055664062,891.1890869140625,709.5703735351562,177.20347595214844,0.0,0.0,0.0,0.0,0.0,0.0,0.0,0.0,0.0,0.0,0.0,0.0,1.0,0.0,0.0,0.0,0.0,0.0,0.0,0.0,0.0,0.0,0.0,0.0,0.0,1.0,0.0,0.0,0.0,0.0,0.0,0.0,0.0,0.0,0.0,0.0,0.0,0.0,1.0,0.0,0.0,0.0,0.0,0.0,0.0,0.0,0.0,0.0,0.0,0.0,0.0,1.0,0.0,0.0,0.0,0.0,0.0,0.0,0.0,0.0,0.0,0.0,0.0,0.0,1.0,0.0,0.0,0.0,0.0,0.0,0.0,0.0,0.0,0.0,0.0,0.0,0.0,1.0,0.0,0.0,0.0,0.0,0.0,0.0,0.0,0.0,0.0,0.0,0.0,0.0,1.0,0,0,0,0,0,0,0,0,0,0,0,0,0,0,0,0,0,0,0,0,0,0,0,0,0,0,0,0,0,0,0,0,0,0,0,0
1777280249.2149014,948,0,0.0,0.0,0.0,0.0,0.0,0.0,0.0,0.0,0.0,0.0,0.0,0.0,0.0,0.0,0.0,0.0,0.0,0.0,0.0,0.0,0.0,0.0,0.0,0.0,0.0,0.0,0.0,721.4574584960938,569.7799682617188,1111.8707275390625,970.6510620117188,603.4525756835938,1118.7486572265625,770.451904296875,391.2746887207031,1141.971435546875,931.5609741210938,394.5277099609375,1147.8277587890625,658.3043212890625,514.41064453125,856.4783325195312,668.7714233398438,575.1244506835938,608.1705932617188,659.8345947265625,438.6258850097656,514.8856811523438,689.4636840820312,301.5567321777344,368.7642517089844,762.9600830078125,192.5636749267578,396.4700012207031,729.3764038085938,361.14013671875,186.19288635253906,1024.8095703125,564.3196411132812,799.679931640625,964.3177490234375,550.5338134765625,567.2307739257812,972.1580810546875,538.956787109375,430.90362548828125,918.03564453125,516.615966796875,222.6945343017578,854.081787109375,437.94287109375,166.16876220703125,891.4329223632812,702.2576904296875,177.19729614257812,0.0,0.0,0.0,0.0,0.0,0.0,0.0,0.0,0.0,0.0,0.0,0.0,1.0,0.0,0.0,0.0,0.0,0.0,0.0,0.0,0.0,0.0,0.0,0.0,0.0,1.0,0.0,0.0,0.0,0.0,0.0,0.0,0.0,0.0,0.0,0.0,0.0,0.0,1.0,0.0,0.0,0.0,0.0,0.0,0.0,0.0,0.0,0.0,0.0,0.0,0.0,1.0,0.0,0.0,0.0,0.0,0.0,0.0,0.0,0.0,0.0,0.0,0.0,0.0,1.0,0.0,0.0,0.0,0.0,0.0,0.0,0.0,0.0,0.0,0.0,0.0,0.0,1.0,0.0,0.0,0.0,0.0,0.0,0.0,0.0,0.0,0.0,0.0,0.0,0.0,1.0,0,0,0,0,0,0,0,0,0,0,0,0,0,0,0,0,0,0,0,0,0,0,0,0,0,0,0,0,0,0,0,0,0,0,0,0
1777280249.217576,950,0,0.0,0.0,0.0,0.0,0.0,0.0,0.0,0.0,0.0,0.0,0.0,0.0,0.0,0.0,0.0,0.0,0.0,0.0,0.0,0.0,0.0,0.0,0.0,0.0,0.0,0.0,0.0,723.1829223632812,569.143798828125,1114.642822265625,972.5015258789062,602.39404296875,1120.7005615234375,772.05517578125,390.41851806640625,1143.9305419921875,933.0927734375,393.69439697265625,1149.54052734375,658.8917846679688,523.42822265625,862.1573486328125,668.9928588867188,593.865966796875,616.310302734375,659.4139404296875,459.0489196777344,522.3572998046875,688.140625,323.2089538574219,374.4443359375,762.735107421875,211.35958862304688,393.65185546875,721.9500122070312,390.9472351074219,195.82456970214844,1026.6444091796875,559.44482421875,799.8355102539062,965.1611938476562,541.1100463867188,567.5844116210938,972.7192993164062,527.385986328125,431.4198913574219,918.1939086914062,502.0990295410156,223.638427734375,854.5104370117188,423.1280517578125,166.98971557617188,891.9351196289062,687.4306030273438,177.24696350097656,0.0,0.0,0.0,0.0,0.0,0.0,0.0,0.0,0.0,0.0,0.0,0.0,1.0,0.0,0.0,0.0,0.0,0.0,0.0,0.0,0.0,0.0,0.0,0.0,0.0,1.0,0.0,0.0,0.0,0.0,0.0,0.0,0.0,0.0,0.0,0.0,0.0,0.0,1.0,0.0,0.0,0.0,0.0,0.0,0.0,0.0,0.0,0.0,0.0,0.0,0.0,1.0,0.0,0.0,0.0,0.0,0.0,0.0,0.0,0.0,0.0,0.0,0.0,0.0,1.0,0.0,0.0,0.0,0.0,0.0,0.0,0.0,0.0,0.0,0.0,0.0,0.0,1.0,0.0,0.0,0.0,0.0,0.0,0.0,0.0,0.0,0.0,0.0,0.0,0.0,1.0,0,0,0,0,0,0,0,0,0,0,0,0,0,0,0,0,0,0,0,0,0,0,0,0,0,0,0,0,0,0,0,0,0,0,0,0
1777280249.2316957,951,0,0.0,0.0,0.0,0.0,0.0,0.0,0.0,0.0,0.0,0.0,0.0,0.0,0.0,0.0,0.0,0.0,0.0,0.0,0.0,0.0,0.0,0.0,0.0,0.0,0.0,0.0,0.0,723.9984130859375,568.7535400390625,1116.1097412109375,973.3853149414062,601.7434692382812,1121.6878662109375,772.7650756835938,389.8973693847656,1145.020751953125,933.7700805664062,393.1630554199219,1150.44970703125,659.1512451171875,527.2557373046875,865.1900634765625,669.2806396484375,602.37060546875,620.572509765625,659.5037231445312,468.8241271972656,525.2887573242188,687.7092895507812,334.6951599121094,375.47332763671875,762.858154296875,221.03744506835938,388.8502502441406,717.977783203125,408.3223876953125,200.13047790527344,1027.3314208984375,556.9616088867188,799.9910888671875,965.5126342773438,536.2041625976562,567.8259887695312,972.9486083984375,521.4663696289062,431.75225830078125,918.2551879882812,494.77484130859375,224.14691162109375,854.7265014648438,415.62847900390625,167.4053955078125,892.182861328125,679.9196166992188,177.29232788085938,0.0,0.0,0.0,0.0,0.0,0.0,0.0,0.0,0.0,0.0,0.0,0.0,1.0,0.0,0.0,0.0,0.0,0.0,0.0,0.0,0.0,0.0,0.0,0.0,0.0,1.0,0.0,0.0,0.0,0.0,0.0,0.0,0.0,0.0,0.0,0.0,0.0,0.0,1.0,0.0,0.0,0.0,0.0,0.0,0.0,0.0,0.0,0.0,0.0,0.0,0.0,1.0,0.0,0.0,0.0,0.0,0.0,0.0,0.0,0.0,0.0,0.0,0.0,0.0,1.0,0.0,0.0,0.0,0.0,0.0,0.0,0.0,0.0,0.0,0.0,0.0,0.0,1.0,0.0,0.0,0.0,0.0,0.0,0.0,0.0,0.0,0.0,0.0,0.0,0.0,1.0,0,0,0,0,0,0,0,0,0,0,0,0,0,0,0,0,0,0,0,0,0,0,0,0,0,0,0,0,0,0,0,0,0,0,0,0
1777280249.2480361,951,1,0.0,0.0,0.0,0.0,0.0,0.0,0.0,0.0,0.0,0.0,0.0,0.0,0.0,0.0,0.0,0.0,0.0,0.0,0.0,0.0,0.0,0.0,0.0,0.0,0.0,0.0,0.0,723.9984130859375,568.7535400390625,1116.1097412109375,973.3853149414062,601.7434692382812,1121.6878662109375,772.7650756835938,389.8973693847656,1145.020751953125,933.7700805664062,393.1630554199219,1150.44970703125,659.1512451171875,527.2557373046875,865.1900634765625,669.2806396484375,602.37060546875,620.572509765625,659.5037231445312,468.8241271972656,525.2887573242188,687.7092895507812,334.6951599121094,375.47332763671875,762.858154296875,221.03744506835938,388.8502502441406,717.977783203125,408.3223876953125,200.13047790527344,1027.3314208984375,556.9616088867188,799.9910888671875,965.5126342773438,536.2041625976562,567.8259887695312,972.9486083984375,521.4663696289062,431.75225830078125,918.2551879882812,494.77484130859375,224.14691162109375,854.7265014648438,415.62847900390625,167.4053955078125,892.182861328125,679.9196166992188,177.29232788085938,0.0,0.0,0.0,0.0,0.0,0.0,0.0,0.0,0.0,0.0,0.0,0.0,1.0,0.0,0.0,0.0,0.0,0.0,0.0,0.0,0.0,0.0,0.0,0.0,0.0,1.0,0.0,0.0,0.0,0.0,0.0,0.0,0.0,0.0,0.0,0.0,0.0,0.0,1.0,0.0,0.0,0.0,0.0,0.0,0.0,0.0,0.0,0.0,0.0,0.0,0.0,1.0,0.0,0.0,0.0,0.0,0.0,0.0,0.0,0.0,0.0,0.0,0.0,0.0,1.0,0.0,0.0,0.0,0.0,0.0,0.0,0.0,0.0,0.0,0.0,0.0,0.0,1.0,0.0,0.0,0.0,0.0,0.0,0.0,0.0,0.0,0.0,0.0,0.0,0.0,1.0,0,0,0,0,0,0,0,0,0,0,0,0,0,0,0,0,0,0,0,0,0,0,0,0,0,0,0,0,0,0,0,0,0,0,0,0
1777280249.2505412,953,0,0.0,0.0,0.0,0.0,0.0,0.0,0.0,0.0,0.0,0.0,0.0,0.0,0.0,0.0,0.0,0.0,0.0,0.0,0.0,0.0,0.0,0.0,0.0,0.0,0.0,0.0,0.0,725.54150390625,567.8695678710938,1119.0767822265625,975.0714721679688,600.267578125,1123.57421875,773.9981079101562,388.7210388183594,1147.3243408203125,934.9446411132812,391.9286804199219,1152.3109130859375,659.666259765625,533.28564453125,871.251708984375,670.0736083984375,617.4931640625,629.0375366210938,660.0285034179688,487.49664306640625,529.0831909179688,687.0623779296875,359.0536804199219,373.7247009277344,763.0797119140625,242.57223510742188,374.18414306640625,709.6717529296875,446.3718566894531,206.50326538085938,1028.2972412109375,551.9461669921875,800.3894653320312,966.118408203125,526.0665283203125,568.3875122070312,973.3294677734375,509.353271484375,432.49420166015625,918.3310546875,479.9906921386719,225.1815948486328,855.1653442382812,400.4849853515625,168.2109832763672,892.6549682617188,664.7418823242188,177.39117431640625,0.0,0.0,0.0,0.0,0.0,0.0,0.0,0.0,0.0,0.0,0.0,0.0,1.0,0.0,0.0,0.0,0.0,0.0,0.0,0.0,0.0,0.0,0.0,0.0,0.0,1.0,0.0,0.0,0.0,0.0,0.0,0.0,0.0,0.0,0.0,0.0,0.0,0.0,1.0,0.0,0.0,0.0,0.0,0.0,0.0,0.0,0.0,0.0,0.0,0.0,0.0,1.0,0.0,0.0,0.0,0.0,0.0,0.0,0.0,0.0,0.0,0.0,0.0,0.0,1.0,0.0,0.0,0.0,0.0,0.0,0.0,0.0,0.0,0.0,0.0,0.0,0.0,1.0,0.0,0.0,0.0,0.0,0.0,0.0,0.0,0.0,0.0,0.0,0.0,0.0,1.0,0,0,0,0,0,0,0,0,0,0,0,0,0,0,0,0,0,0,0,0,0,0,0,0,0,0,0,0,0,0,0,0,0,0,0,0
1777280249.262906,954,0,0.0,0.0,0.0,0.0,0.0,0.0,0.0,0.0,0.0,0.0,0.0,0.0,0.0,0.0,0.0,0.0,0.0,0.0,0.0,0.0,0.0,0.0,0.0,0.0,0.0,0.0,0.0,726.2642822265625,567.388427734375,1120.519287109375,975.8666381835938,599.468017578125,1124.4266357421875,774.5205688476562,388.08648681640625,1148.4954833984375,935.441162109375,391.248779296875,1153.237060546875,659.9379272460938,535.4199829101562,874.1271362304688,670.5325317382812,624.064453125,633.0672607421875,660.365234375,496.4054870605469,529.8218994140625,686.7542114257812,371.95477294921875,370.9834899902344,763.0699462890625,254.8284454345703,364.7860412597656,705.4122924804688,466.5437927246094,208.37911987304688,1028.607421875,549.4107055664062,800.599853515625,966.3911743164062,520.8582153320312,568.6854858398438,973.4944458007812,503.16729736328125,432.87506103515625,918.3486328125,472.540283203125,225.68930053710938,855.3890991210938,392.8656921386719,168.5911102294922,892.8778076171875,657.0989379882812,177.4314422607422,0.0,0.0,0.0,0.0,0.0,0.0,0.0,0.0,0.0,0.0,0.0,0.0,1.0,0.0,0.0,0.0,0.0,0.0,0.0,0.0,0.0,0.0,0.0,0.0,0.0,1.0,0.0,0.0,0.0,0.0,0.0,0.0,0.0,0.0,0.0,0.0,0.0,0.0,1.0,0.0,0.0,0.0,0.0,0.0,0.0,0.0,0.0,0.0,0.0,0.0,0.0,1.0,0.0,0.0,0.0,0.0,0.0,0.0,0.0,0.0,0.0,0.0,0.0,0.0,1.0,0.0,0.0,0.0,0.0,0.0,0.0,0.0,0.0,0.0,0.0,0.0,0.0,1.0,0.0,0.0,0.0,0.0,0.0,0.0,0.0,0.0,0.0,0.0,0.0,0.0,1.0,0,0,0,0,0,0,0,0,0,0,0,0,0,0,0,0,0,0,0,0,0,0,0,0,0,0,0,0,0,0,0,0,0,0,0,0
1777280249.2655172,955,0,0.0,0.0,0.0,0.0,0.0,0.0,0.0,0.0,0.0,0.0,0.0,0.0,0.0,0.0,0.0,0.0,0.0,0.0,0.0,0.0,0.0,0.0,0.0,0.0,0.0,0.0,0.0,726.9481811523438,566.88818359375,1121.895263671875,976.6221313476562,598.6432495117188,1125.18896484375,774.9798583984375,387.4346008300781,1149.6512451171875,935.87646484375,390.5420837402344,1154.143310546875,660.2223510742188,536.947265625,876.8062744140625,671.0078735351562,629.9512329101562,636.8558959960938,660.6954345703125,505.0392761230469,529.7452392578125,686.4044799804688,385.3562927246094,367.0801086425781,762.9495239257812,268.19891357421875,354.2029113769531,701.138427734375,487.26483154296875,209.40884399414062,1028.824951171875,546.846923828125,800.7965698242188,966.654541015625,515.5736694335938,568.9814453125,973.65185546875,496.9073791503906,433.2461242675781,918.3585815429688,465.0628662109375,226.18186950683594,855.6146240234375,385.2325744628906,168.9509735107422,893.0933837890625,649.4374389648438,177.45838928222656,0.0,0.0,0.0,0.0,0.0,0.0,0.0,0.0,0.0,0.0,0.0,0.0,1.0,0.0,0.0,0.0,0.0,0.0,0.0,0.0,0.0,0.0,0.0,0.0,0.0,1.0,0.0,0.0,0.0,0.0,0.0,0.0,0.0,0.0,0.0,0.0,0.0,0.0,1.0,0.0,0.0,0.0,0.0,0.0,0.0,0.0,0.0,0.0,0.0,0.0,0.0,1.0,0.0,0.0,0.0,0.0,0.0,0.0,0.0,0.0,0.0,0.0,0.0,0.0,1.0,0.0,0.0,0.0,0.0,0.0,0.0,0.0,0.0,0.0,0.0,0.0,0.0,1.0,0.0,0.0,0.0,0.0,0.0,0.0,0.0,0.0,0.0,0.0,0.0,0.0,1.0,0,0,0,0,0,0,0,0,0,0,0,0,0,0,0,0,0,0,0,0,0,0,0,0,0,0,0,0,0,0,0,0,0,0,0,0
1777280249.2788365,955,1,0.0,0.0,0.0,0.0,0.0,0.0,0.0,0.0,0.0,0.0,0.0,0.0,0.0,0.0,0.0,0.0,0.0,0.0,0.0,0.0,0.0,0.0,0.0,0.0,0.0,0.0,0.0,726.9481811523438,566.88818359375,1121.895263671875,976.6221313476562,598.6432495117188,1125.18896484375,774.9798583984375,387.4346008300781,1149.6512451171875,935.87646484375,390.5420837402344,1154.143310546875,660.2223510742188,536.947265625,876.8062744140625,671.0078735351562,629.9512329101562,636.8558959960938,660.6954345703125,505.0392761230469,529.7452392578125,686.4044799804688,385.3562927246094,367.0801086425781,762.9495239257812,268.19891357421875,354.2029113769531,701.138427734375,487.26483154296875,209.40884399414062,1028.824951171875,546.846923828125,800.7965698242188,966.654541015625,515.5736694335938,568.9814453125,973.65185546875,496.9073791503906,433.2461242675781,918.3585815429688,465.0628662109375,226.18186950683594,855.6146240234375,385.2325744628906,168.9509735107422,893.0933837890625,649.4374389648438,177.45838928222656,0.0,0.0,0.0,0.0,0.0,0.0,0.0,0.0,0.0,0.0,0.0,0.0,1.0,0.0,0.0,0.0,0.0,0.0,0.0,0.0,0.0,0.0,0.0,0.0,0.0,1.0,0.0,0.0,0.0,0.0,0.0,0.0,0.0,0.0,0.0,0.0,0.0,0.0,1.0,0.0,0.0,0.0,0.0,0.0,0.0,0.0,0.0,0.0,0.0,0.0,0.0,1.0,0.0,0.0,0.0,0.0,0.0,0.0,0.0,0.0,0.0,0.0,0.0,0.0,1.0,0.0,0.0,0.0,0.0,0.0,0.0,0.0,0.0,0.0,0.0,0.0,0.0,1.0,0.0,0.0,0.0,0.0,0.0,0.0,0.0,0.0,0.0,0.0,0.0,0.0,1.0,0,0,0,0,0,0,0,0,0,0,0,0,0,0,0,0,0,0,0,0,0,0,0,0,0,0,0,0,0,0,0,0,0,0,0,0
1777280249.2811146,956,0,0.0,0.0,0.0,0.0,0.0,0.0,0.0,0.0,0.0,0.0,0.0,0.0,0.0,0.0,0.0,0.0,0.0,0.0,0.0,0.0,0.0,0.0,0.0,0.0,0.0,0.0,0.0,727.5869750976562,566.373779296875,1123.1763916015625,977.33056640625,597.8042602539062,1125.8416748046875,775.3754272460938,386.775390625,1150.7708740234375,936.2498779296875,389.8193359375,1155.01708984375,660.515869140625,537.8731689453125,879.231201171875,671.4853515625,635.1400146484375,640.3346557617188,660.987548828125,513.4058837890625,528.8524169921875,685.9853515625,399.2720031738281,362.11468505859375,762.7200927734375,282.6986389160156,342.5357971191406,696.896728515625,508.4496154785156,209.69741821289062,1028.966064453125,544.2451171875,800.9656982421875,966.9140625,510.22711181640625,569.2666625976562,973.8075561523438,490.5879821777344,433.5983581542969,918.36669921875,457.5700988769531,226.6557159423828,855.8387451171875,377.5979919433594,169.2871856689453,893.3041381835938,641.7699584960938,177.46890258789062,0.0,0.0,0.0,0.0,0.0,0.0,0.0,0.0,0.0,0.0,0.0,0.0,1.0,0.0,0.0,0.0,0.0,0.0,0.0,0.0,0.0,0.0,0.0,0.0,0.0,1.0,0.0,0.0,0.0,0.0,0.0,0.0,0.0,0.0,0.0,0.0,0.0,0.0,1.0,0.0,0.0,0.0,0.0,0.0,0.0,0.0,0.0,0.0,0.0,0.0,0.0,1.0,0.0,0.0,0.0,0.0,0.0,0.0,0.0,0.0,0.0,0.0,0.0,0.0,1.0,0.0,0.0,0.0,0.0,0.0,0.0,0.0,0.0,0.0,0.0,0.0,0.0,1.0,0.0,0.0,0.0,0.0,0.0,0.0,0.0,0.0,0.0,0.0,0.0,0.0,1.0,0,0,0,0,0,0,0,0,0,0,0,0,0,0,0,0,0,0,0,0,0,0,0,0,0,0,0,0,0,0,0,0,0,0,0,0
1777280249.2965214,958,0,0.0,0.0,0.0,0.0,0.0,0.0,0.0,0.0,0.0,0.0,0.0,0.0,0.0,0.0,0.0,0.0,0.0,0.0,0.0,0.0,0.0,0.0,0.0,0.0,0.0,0.0,0.0,728.7027587890625,565.3231201171875,1125.3525390625,978.5776977539062,596.122802734375,1126.75634765625,775.9721069335938,385.4740295410156,1152.8250732421875,936.8070678710938,388.3668212890625,1156.6204833984375,661.092529296875,538.0272827148438,883.146484375,672.4058837890625,643.3897705078125,646.1412963867188,661.3770141601562,529.37255859375,524.7327270507812,684.8792724609375,428.6890563964844,349.5207214355469,762.0177001953125,315.00958251953125,316.4396057128906,688.7067260742188,552.0302734375,208.637451171875,1029.0732421875,538.8923950195312,801.1774291992188,967.4310302734375,499.4111633300781,569.7802124023438,974.12841796875,477.8429260253906,434.22503662109375,918.3987426757812,442.5872497558594,227.542724609375,856.2664794921875,362.3635559082031,169.87803649902344,893.7236938476562,626.4586181640625,177.44065856933594,0.0,0.0,0.0,0.0,0.0,0.0,0.0,0.0,0.0,0.0,0.0,0.0,1.0,0.0,0.0,0.0,0.0,0.0,0.0,0.0,0.0,0.0,0.0,0.0,0.0,1.0,0.0,0.0,0.0,0.0,0.0,0.0,0.0,0.0,0.0,0.0,0.0,0.0,1.0,0.0,0.0,0.0,0.0,0.0,0.0,0.0,0.0,0.0,0.0,0.0,0.0,1.0,0.0,0.0,0.0,0.0,0.0,0.0,0.0,0.0,0.0,0.0,0.0,0.0,1.0,0.0,0.0,0.0,0.0,0.0,0.0,0.0,0.0,0.0,0.0,0.0,0.0,1.0,0.0,0.0,0.0,0.0,0.0,0.0,0.0,0.0,0.0,0.0,0.0,0.0,1.0,0,0,0,0,0,0,0,0,0,0,0,0,0,0,0,0,0,0,0,0,0,0,0,0,0,0,0,0,0,0,0,0,0,0,0,0
1777280249.3119617,958,1,0.0,0.0,0.0,0.0,0.0,0.0,0.0,0.0,0.0,0.0,0.0,0.0,0.0,0.0,0.0,0.0,0.0,0.0,0.0,0.0,0.0,0.0,0.0,0.0,0.0,0.0,0.0,728.7027587890625,565.3231201171875,1125.3525390625,978.5776977539062,596.122802734375,1126.75634765625,775.9721069335938,385.4740295410156,1152.8250732421875,936.8070678710938,388.3668212890625,1156.6204833984375,661.092529296875,538.0272827148438,883.146484375,672.4058837890625,643.3897705078125,646.1412963867188,661.3770141601562,529.37255859375,524.7327270507812,684.8792724609375,428.6890563964844,349.5207214355469,762.0177001953125,315.00958251953125,316.4396057128906,688.7067260742188,552.0302734375,208.637451171875,1029.0732421875,538.8923950195312,801.1774291992188,967.4310302734375,499.4111633300781,569.7802124023438,974.12841796875,477.8429260253906,434.22503662109375,918.3987426757812,442.5872497558594,227.542724609375,856.2664794921875,362.3635559082031,169.87803649902344,893.7236938476562,626.4586181640625,177.44065856933594,0.0,0.0,0.0,0.0,0.0,0.0,0.0,0.0,0.0,0.0,0.0,0.0,1.0,0.0,0.0,0.0,0.0,0.0,0.0,0.0,0.0,0.0,0.0,0.0,0.0,1.0,0.0,0.0,0.0,0.0,0.0,0.0,0.0,0.0,0.0,0.0,0.0,0.0,1.0,0.0,0.0,0.0,0.0,0.0,0.0,0.0,0.0,0.0,0.0,0.0,0.0,1.0,0.0,0.0,0.0,0.0,0.0,0.0,0.0,0.0,0.0,0.0,0.0,0.0,1.0,0.0,0.0,0.0,0.0,0.0,0.0,0.0,0.0,0.0,0.0,0.0,0.0,1.0,0.0,0.0,0.0,0.0,0.0,0.0,0.0,0.0,0.0,0.0,0.0,0.0,1.0,0,0,0,0,0,0,0,0,0,0,0,0,0,0,0,0,0,0,0,0,0,0,0,0,0,0,0,0,0,0,0,0,0,0,0,0
1777280249.3264616,959,0,0.0,0.0,0.0,0.0,0.0,0.0,0.0,0.0,0.0,0.0,0.0,0.0,0.0,0.0,0.0,0.0,0.0,0.0,0.0,0.0,0.0,0.0,0.0,0.0,0.0,0.0,0.0,729.1674194335938,564.79833984375,1126.205322265625,979.1036376953125,595.298095703125,1126.9974365234375,776.170654296875,384.850830078125,1153.7249755859375,936.9882202148438,387.656494140625,1157.328125,661.3471069335938,537.3472290039062,884.5823364257812,672.8367309570312,646.4461669921875,648.3871459960938,661.4558715820312,536.9930419921875,521.6159057617188,684.1884765625,444.19622802734375,342.2015075683594,761.613525390625,332.7533264160156,302.3642272949219,684.860595703125,574.3546752929688,207.61277770996094,1029.060791015625,536.130859375,801.2046508789062,967.6862182617188,493.9759216308594,570.0005493164062,974.2947998046875,471.45703125,434.4957275390625,918.4291381835938,435.1194152832031,227.95701599121094,856.4638671875,354.7772521972656,170.13096618652344,893.93896484375,618.830322265625,177.40792846679688,0.0,0.0,0.0,0.0,0.0,0.0,0.0,0.0,0.0,0.0,0.0,0.0,1.0,0.0,0.0,0.0,0.0,0.0,0.0,0.0,0.0,0.0,0.0,0.0,0.0,1.0,0.0,0.0,0.0,0.0,0.0,0.0,0.0,0.0,0.0,0.0,0.0,0.0,1.0,0.0,0.0,0.0,0.0,0.0,0.0,0.0,0.0,0.0,0.0,0.0,0.0,1.0,0.0,0.0,0.0,0.0,0.0,0.0,0.0,0.0,0.0,0.0,0.0,0.0,1.0,0.0,0.0,0.0,0.0,0.0,0.0,0.0,0.0,0.0,0.0,0.0,0.0,1.0,0.0,0.0,0.0,0.0,0.0,0.0,0.0,0.0,0.0,0.0,0.0,0.0,1.0,0,0,0,0,0,0,0,0,0,0,0,0,0,0,0,0,0,0,0,0,0,0,0,0,0,0,0,0,0,0,0,0,0,0,0,0
1777280249.3290803,961,0,0.0,0.0,0.0,0.0,0.0,0.0,0.0,0.0,0.0,0.0,0.0,0.0,0.0,0.0,0.0,0.0,0.0,0.0,0.0,0.0,0.0,0.0,0.0,0.0,0.0,0.0,0.0,729.8856201171875,563.78369140625,1127.366943359375,979.9371948242188,593.7207641601562,1127.026123046875,776.3602294921875,383.704345703125,1155.19873046875,937.1475219726562,386.3133239746094,1158.5069580078125,661.700439453125,534.791015625,886.3632202148438,673.6316528320312,650.4568481445312,651.4445190429688,661.3905029296875,551.5670776367188,513.6703491210938,682.5944213867188,476.7265930175781,326.3897705078125,760.8853759765625,371.15191650390625,273.363525390625,677.9334716796875,619.8095703125,205.40048217773438,1028.9354248046875,530.4419555664062,801.0810546875,968.1666259765625,483.1391906738281,570.3598022460938,974.6234130859375,458.7554931640625,434.95819091796875,918.5175170898438,420.2712707519531,228.73690795898438,856.8231201171875,339.68194580078125,170.56304931640625,894.3931274414062,603.6515502929688,177.33050537109375,0.0,0.0,0.0,0.0,0.0,0.0,0.0,0.0,0.0,0.0,0.0,0.0,1.0,0.0,0.0,0.0,0.0,0.0,0.0,0.0,0.0,0.0,0.0,0.0,0.0,1.0,0.0,0.0,0.0,0.0,0.0,0.0,0.0,0.0,0.0,0.0,0.0,0.0,1.0,0.0,0.0,0.0,0.0,0.0,0.0,0.0,0.0,0.0,0.0,0.0,0.0,1.0,0.0,0.0,0.0,0.0,0.0,0.0,0.0,0.0,0.0,0.0,0.0,0.0,1.0,0.0,0.0,0.0,0.0,0.0,0.0,0.0,0.0,0.0,0.0,0.0,0.0,1.0,0.0,0.0,0.0,0.0,0.0,0.0,0.0,0.0,0.0,0.0,0.0,0.0,1.0,0,0,0,0,0,0,0,0,0,0,0,0,0,0,0,0,0,0,0,0,0,0,0,0,0,0,0,0,0,0,0,0,0,0,0,0
1777280249.3424456,962,0,0.0,0.0,0.0,0.0,0.0,0.0,0.0,0.0,0.0,0.0,0.0,0.0,0.0,0.0,0.0,0.0,0.0,0.0,0.0,0.0,0.0,0.0,0.0,0.0,0.0,0.0,0.0,730.13232421875,563.3092041015625,1127.6602783203125,980.2396240234375,592.9830322265625,1126.8173828125,776.3478393554688,383.1980895996094,1155.75,937.1224365234375,385.6978454589844,1158.961181640625,661.7631225585938,533.063232421875,886.71923828125,674.0013427734375,651.447265625,652.2406005859375,661.2683715820312,558.5435180664062,509.03912353515625,681.7402954101562,493.6584167480469,318.2662353515625,760.6072998046875,391.6259765625,258.9786376953125,674.96826171875,642.7750854492188,204.5444793701172,1028.827392578125,527.530029296875,800.9281616210938,968.37744140625,477.7716979980469,570.498779296875,974.7734375,452.4732666015625,435.1564025878906,918.5692138671875,412.8995056152344,229.1089324951172,856.98828125,332.17218017578125,170.75160217285156,894.6334228515625,596.1046752929688,177.2955780029297,0.0,0.0,0.0,0.0,0.0,0.0,0.0,0.0,0.0,0.0,0.0,0.0,1.0,0.0,0.0,0.0,0.0,0.0,0.0,0.0,0.0,0.0,0.0,0.0,0.0,1.0,0.0,0.0,0.0,0.0,0.0,0.0,0.0,0.0,0.0,0.0,0.0,0.0,1.0,0.0,0.0,0.0,0.0,0.0,0.0,0.0,0.0,0.0,0.0,0.0,0.0,1.0,0.0,0.0,0.0,0.0,0.0,0.0,0.0,0.0,0.0,0.0,0.0,0.0,1.0,0.0,0.0,0.0,0.0,0.0,0.0,0.0,0.0,0.0,0.0,0.0,0.0,1.0,0.0,0.0,0.0,0.0,0.0,0.0,0.0,0.0,0.0,0.0,0.0,0.0,1.0,0,0,0,0,0,0,0,0,0,0,0,0,0,0,0,0,0,0,0,0,0,0,0,0,0,0,0,0,0,0,0,0,0,0,0,0
1777280249.345978,963,0,0.0,0.0,0.0,0.0,0.0,0.0,0.0,0.0,0.0,0.0,0.0,0.0,0.0,0.0,0.0,0.0,0.0,0.0,0.0,0.0,0.0,0.0,0.0,0.0,0.0,0.0,0.0,730.3010864257812,562.8678588867188,1127.7596435546875,980.464111328125,592.2890625,1126.46826171875,776.2619018554688,382.74725341796875,1156.166015625,937.0253295898438,385.1310119628906,1159.3155517578125,661.7290649414062,531.136474609375,886.7384643554688,674.3607788085938,651.7992553710938,652.5542602539062,661.1101684570312,565.323974609375,504.11273193359375,680.8901977539062,510.9320983886719,310.24261474609375,760.3888549804688,412.7704772949219,245.01373291015625,672.418701171875,665.7506103515625,204.0720672607422,1028.688232421875,524.5907592773438,800.7158203125,968.5582885742188,472.45867919921875,570.6118774414062,974.9041748046875,446.2543029785156,435.33807373046875,918.6200561523438,405.56390380859375,229.47467041015625,857.1473388671875,324.68408203125,170.92922973632812,894.8809204101562,588.58544921875,177.26695251464844,0.0,0.0,0.0,0.0,0.0,0.0,0.0,0.0,0.0,0.0,0.0,0.0,1.0,0.0,0.0,0.0,0.0,0.0,0.0,0.0,0.0,0.0,0.0,0.0,0.0,1.0,0.0,0.0,0.0,0.0,0.0,0.0,0.0,0.0,0.0,0.0,0.0,0.0,1.0,0.0,0.0,0.0,0.0,0.0,0.0,0.0,0.0,0.0,0.0,0.0,0.0,1.0,0.0,0.0,0.0,0.0,0.0,0.0,0.0,0.0,0.0,0.0,0.0,0.0,1.0,0.0,0.0,0.0,0.0,0.0,0.0,0.0,0.0,0.0,0.0,0.0,0.0,1.0,0.0,0.0,0.0,0.0,0.0,0.0,0.0,0.0,0.0,0.0,0.0,0.0,1.0,0,0,0,0,0,0,0,0,0,0,0,0,0,0,0,0,0,0,0,0,0,0,0,0,0,0,0,0,0,0,0,0,0,0,0,0
1777280249.3586066,963,1,0.0,0.0,0.0,0.0,0.0,0.0,0.0,0.0,0.0,0.0,0.0,0.0,0.0,0.0,0.0,0.0,0.0,0.0,0.0,0.0,0.0,0.0,0.0,0.0,0.0,0.0,0.0,730.3010864257812,562.8678588867188,1127.7596435546875,980.464111328125,592.2890625,1126.46826171875,776.2619018554688,382.74725341796875,1156.166015625,937.0253295898438,385.1310119628906,1159.3155517578125,661.7290649414062,531.136474609375,886.7384643554688,674.3607788085938,651.7992553710938,652.5542602539062,661.1101684570312,565.323974609375,504.11273193359375,680.8901977539062,510.9320983886719,310.24261474609375,760.3888549804688,412.7704772949219,245.01373291015625,672.418701171875,665.7506103515625,204.0720672607422,1028.688232421875,524.5907592773438,800.7158203125,968.5582885742188,472.45867919921875,570.6118774414062,974.9041748046875,446.2543029785156,435.33807373046875,918.6200561523438,405.56390380859375,229.47467041015625,857.1473388671875,324.68408203125,170.92922973632812,894.8809204101562,588.58544921875,177.26695251464844,0.0,0.0,0.0,0.0,0.0,0.0,0.0,0.0,0.0,0.0,0.0,0.0,1.0,0.0,0.0,0.0,0.0,0.0,0.0,0.0,0.0,0.0,0.0,0.0,0.0,1.0,0.0,0.0,0.0,0.0,0.0,0.0,0.0,0.0,0.0,0.0,0.0,0.0,1.0,0.0,0.0,0.0,0.0,0.0,0.0,0.0,0.0,0.0,0.0,0.0,0.0,1.0,0.0,0.0,0.0,0.0,0.0,0.0,0.0,0.0,0.0,0.0,0.0,0.0,1.0,0.0,0.0,0.0,0.0,0.0,0.0,0.0,0.0,0.0,0.0,0.0,0.0,1.0,0.0,0.0,0.0,0.0,0.0,0.0,0.0,0.0,0.0,0.0,0.0,0.0,1.0,0,0,0,0,0,0,0,0,0,0,0,0,0,0,0,0,0,0,0,0,0,0,0,0,0,0,0,0,0,0,0,0,0,0,0,0
1777280249.375096,965,0,0.0,0.0,0.0,0.0,0.0,0.0,0.0,0.0,0.0,0.0,0.0,0.0,0.0,0.0,0.0,0.0,0.0,0.0,0.0,0.0,0.0,0.0,0.0,0.0,0.0,0.0,0.0,730.4003295898438,562.1206665039062,1127.3935546875,980.6783447265625,591.0623779296875,1125.388916015625,775.8643188476562,382.04217529296875,1156.5703125,936.6104125976562,384.1762390136719,1159.7017822265625,661.3331909179688,526.962890625,885.8519287109375,675.0879516601562,650.7567138671875,651.8028564453125,660.7796630859375,578.2976684570312,493.8152160644531,679.3446655273438,546.0316772460938,295.1685485839844,760.0552978515625,456.3160400390625,219.1650390625,668.8224487304688,711.14599609375,204.850341796875,1028.3043212890625,518.7027587890625,800.1234741210938,968.8012084960938,462.0473327636719,570.7677001953125,975.0802001953125,434.0398864746094,435.6693420410156,918.7012329101562,390.9926452636719,230.208251953125,857.457275390625,309.75579833984375,171.2693634033203,895.3818969726562,573.6195678710938,177.2248992919922,0.0,0.0,0.0,0.0,0.0,0.0,0.0,0.0,0.0,0.0,0.0,0.0,1.0,0.0,0.0,0.0,0.0,0.0,0.0,0.0,0.0,0.0,0.0,0.0,0.0,1.0,0.0,0.0,0.0,0.0,0.0,0.0,0.0,0.0,0.0,0.0,0.0,0.0,1.0,0.0,0.0,0.0,0.0,0.0,0.0,0.0,0.0,0.0,0.0,0.0,0.0,1.0,0.0,0.0,0.0,0.0,0.0,0.0,0.0,0.0,0.0,0.0,0.0,0.0,1.0,0.0,0.0,0.0,0.0,0.0,0.0,0.0,0.0,0.0,0.0,0.0,0.0,1.0,0.0,0.0,0.0,0.0,0.0,0.0,0.0,0.0,0.0,0.0,0.0,0.0,1.0,0,0,0,0,0,0,0,0,0,0,0,0,0,0,0,0,0,0,0,0,0,0,0,0,0,0,0,0,0,0,0,0,0,0,0,0
1777280249.3771217,966,0,0.0,0.0,0.0,0.0,0.0,0.0,0.0,0.0,0.0,0.0,0.0,0.0,0.0,0.0,0.0,0.0,0.0,0.0,0.0,0.0,0.0,0.0,0.0,0.0,0.0,0.0,0.0,730.329345703125,561.8334350585938,1126.94580078125,980.6681518554688,590.5457763671875,1124.6832275390625,775.5510864257812,381.8023376464844,1156.5526123046875,936.2908935546875,383.8046569824219,1159.7247314453125,660.96630859375,524.8355102539062,884.9943237304688,675.4791259765625,649.4677734375,650.7896728515625,660.65966796875,584.4705810546875,488.6534729003906,678.7196655273438,563.5535888671875,288.4025573730469,759.8961791992188,478.26226806640625,207.5769500732422,667.8886108398438,733.2191162109375,206.30911254882812,1028.05029296875,515.7960815429688,799.7508544921875,968.8522338867188,456.9695129394531,570.815185546875,975.1148681640625,428.05426025390625,435.82794189453125,918.7246704101562,383.7491455078125,230.58792114257812,857.6109619140625,302.3049621582031,171.4364776611328,895.624755859375,566.1644897460938,177.20443725585938,0.0,0.0,0.0,0.0,0.0,0.0,0.0,0.0,0.0,0.0,0.0,0.0,1.0,0.0,0.0,0.0,0.0,0.0,0.0,0.0,0.0,0.0,0.0,0.0,0.0,1.0,0.0,0.0,0.0,0.0,0.0,0.0,0.0,0.0,0.0,0.0,0.0,0.0,1.0,0.0,0.0,0.0,0.0,0.0,0.0,0.0,0.0,0.0,0.0,0.0,0.0,1.0,0.0,0.0,0.0,0.0,0.0,0.0,0.0,0.0,0.0,0.0,0.0,0.0,1.0,0.0,0.0,0.0,0.0,0.0,0.0,0.0,0.0,0.0,0.0,0.0,0.0,1.0,0.0,0.0,0.0,0.0,0.0,0.0,0.0,0.0,0.0,0.0,0.0,0.0,1.0,0,0,0,0,0,0,0,0,0,0,0,0,0,0,0,0,0,0,0,0,0,0,0,0,0,0,0,0,0,0,0,0,0,0,0,0
1777280249.3908246,967,0,0.0,0.0,0.0,0.0,0.0,0.0,0.0,0.0,0.0,0.0,0.0,0.0,0.0,0.0,0.0,0.0,0.0,0.0,0.0,0.0,0.0,0.0,0.0,0.0,0.0,0.0,0.0,730.1771240234375,561.6162109375,1126.3380126953125,980.57958984375,590.1051635742188,1123.88525390625,775.1611328125,381.64666748046875,1156.3876953125,935.896240234375,383.514404296875,1159.6302490234375,660.4934692382812,522.7477416992188,883.8943481445312,675.9053344726562,647.749755859375,649.3953247070312,660.604736328125,590.4028930664062,483.60638427734375,678.2357177734375,580.8152465820312,282.2908630371094,759.7272338867188,499.9798583984375,197.0079803466797,667.5814819335938,754.6156005859375,208.53610229492188,1027.748046875,512.9445190429688,799.3331298828125,968.8515625,451.9875183105469,570.8462524414062,975.1098022460938,422.1523742675781,435.98797607421875,918.73388671875,376.5274353027344,230.98480224609375,857.7635498046875,294.85479736328125,171.6018524169922,895.8560791015625,558.7199096679688,177.17922973632812,0.0,0.0,0.0,0.0,0.0,0.0,0.0,0.0,0.0,0.0,0.0,0.0,1.0,0.0,0.0,0.0,0.0,0.0,0.0,0.0,0.0,0.0,0.0,0.0,0.0,1.0,0.0,0.0,0.0,0.0,0.0,0.0,0.0,0.0,0.0,0.0,0.0,0.0,1.0,0.0,0.0,0.0,0.0,0.0,0.0,0.0,0.0,0.0,0.0,0.0,0.0,1.0,0.0,0.0,0.0,0.0,0.0,0.0,0.0,0.0,0.0,0.0,0.0,0.0,1.0,0.0,0.0,0.0,0.0,0.0,0.0,0.0,0.0,0.0,0.0,0.0,0.0,1.0,0.0,0.0,0.0,0.0,0.0,0.0,0.0,0.0,0.0,0.0,0.0,0.0,1.0,0,0,0,0,0,0,0,0,0,0,0,0,0,0,0,0,0,0,0,0,0,0,0,0,0,0,0,0,0,0,0,0,0,0,0,0
1777280249.405602,967,1,0.0,0.0,0.0,0.0,0.0,0.0,0.0,0.0,0.0,0.0,0.0,0.0,0.0,0.0,0.0,0.0,0.0,0.0,0.0,0.0,0.0,0.0,0.0,0.0,0.0,0.0,0.0,730.1771240234375,561.6162109375,1126.3380126953125,980.57958984375,590.1051635742188,1123.88525390625,775.1611328125,381.64666748046875,1156.3876953125,935.896240234375,383.514404296875,1159.6302490234375,660.4934692382812,522.7477416992188,883.8943481445312,675.9053344726562,647.749755859375,649.3953247070312,660.604736328125,590.4028930664062,483.60638427734375,678.2357177734375,580.8152465820312,282.2908630371094,759.7272338867188,499.9798583984375,197.0079803466797,667.5814819335938,754.6156005859375,208.53610229492188,1027.748046875,512.9445190429688,799.3331298828125,968.8515625,451.9875183105469,570.8462524414062,975.1098022460938,422.1523742675781,435.98797607421875,918.73388671875,376.5274353027344,230.98480224609375,857.7635498046875,294.85479736328125,171.6018524169922,895.8560791015625,558.7199096679688,177.17922973632812,0.0,0.0,0.0,0.0,0.0,0.0,0.0,0.0,0.0,0.0,0.0,0.0,1.0,0.0,0.0,0.0,0.0,0.0,0.0,0.0,0.0,0.0,0.0,0.0,0.0,1.0,0.0,0.0,0.0,0.0,0.0,0.0,0.0,0.0,0.0,0.0,0.0,0.0,1.0,0.0,0.0,0.0,0.0,0.0,0.0,0.0,0.0,0.0,0.0,0.0,0.0,1.0,0.0,0.0,0.0,0.0,0.0,0.0,0.0,0.0,0.0,0.0,0.0,0.0,1.0,0.0,0.0,0.0,0.0,0.0,0.0,0.0,0.0,0.0,0.0,0.0,0.0,1.0,0.0,0.0,0.0,0.0,0.0,0.0,0.0,0.0,0.0,0.0,0.0,0.0,1.0,0,0,0,0,0,0,0,0,0,0,0,0,0,0,0,0,0,0,0,0,0,0,0,0,0,0,0,0,0,0,0,0,0,0,0,0
1777280249.4081218,968,0,0.0,0.0,0.0,0.0,0.0,0.0,0.0,0.0,0.0,0.0,0.0,0.0,0.0,0.0,0.0,0.0,0.0,0.0,0.0,0.0,0.0,0.0,0.0,0.0,0.0,0.0,0.0,729.9429321289062,561.478271484375,1125.5845947265625,980.4119873046875,589.7499389648438,1123.0089111328125,774.6947631835938,381.58160400390625,1156.0770263671875,935.4265747070312,383.3133544921875,1159.4169921875,659.92724609375,520.7416381835938,882.5781860351562,676.378662109375,645.6720581054688,647.6580810546875,660.6392211914062,596.05615234375,478.74761962890625,677.9208984375,597.6133422851562,276.8924865722656,759.5587768554688,521.1923217773438,187.51719665527344,667.9103393554688,775.1279296875,211.4916229248047,1027.392333984375,510.1710510253906,798.8748779296875,968.7975463867188,447.10723876953125,570.8644409179688,975.0640258789062,416.33428955078125,436.15411376953125,918.7283325195312,369.3226318359375,231.40576171875,857.9131469726562,287.3990173339844,171.7643280029297,896.0731201171875,551.2783203125,177.14732360839844,0.0,0.0,0.0,0.0,0.0,0.0,0.0,0.0,0.0,0.0,0.0,0.0,1.0,0.0,0.0,0.0,0.0,0.0,0.0,0.0,0.0,0.0,0.0,0.0,0.0,1.0,0.0,0.0,0.0,0.0,0.0,0.0,0.0,0.0,0.0,0.0,0.0,0.0,1.0,0.0,0.0,0.0,0.0,0.0,0.0,0.0,0.0,0.0,0.0,0.0,0.0,1.0,0.0,0.0,0.0,0.0,0.0,0.0,0.0,0.0,0.0,0.0,0.0,0.0,1.0,0.0,0.0,0.0,0.0,0.0,0.0,0.0,0.0,0.0,0.0,0.0,0.0,1.0,0.0,0.0,0.0,0.0,0.0,0.0,0.0,0.0,0.0,0.0,0.0,0.0,1.0,0,0,0,0,0,0,0,0,0,0,0,0,0,0,0,0,0,0,0,0,0,0,0,0,0,0,0,0,0,0,0,0,0,0,0,0
1777280249.4107323,969,0,0.0,0.0,0.0,0.0,0.0,0.0,0.0,0.0,0.0,0.0,0.0,0.0,0.0,0.0,0.0,0.0,0.0,0.0,0.0,0.0,0.0,0.0,0.0,0.0,0.0,0.0,0.0,729.62548828125,561.4285278320312,1124.701904296875,980.1641845703125,589.4898681640625,1122.0684814453125,774.1524658203125,381.6131286621094,1155.62451171875,934.8823852539062,383.2091979980469,1159.085205078125,659.2853393554688,518.8548583984375,881.0722045898438,676.9096069335938,643.3078002929688,645.6189575195312,660.7852172851562,601.3802490234375,474.13214111328125,677.8004150390625,613.7338256835938,272.2252197265625,759.42138671875,541.6199951171875,179.14405822753906,668.85888671875,794.54833984375,215.06788635253906,1026.978271484375,507.4986877441406,798.3806762695312,968.6897583007812,442.333740234375,570.8736572265625,974.97802734375,410.5993347167969,436.3312683105469,918.708251953125,362.1304931640625,231.85792541503906,858.0564575195312,279.9320373535156,171.92300415039062,896.2750854492188,543.8317260742188,177.10873413085938,0.0,0.0,0.0,0.0,0.0,0.0,0.0,0.0,0.0,0.0,0.0,0.0,1.0,0.0,0.0,0.0,0.0,0.0,0.0,0.0,0.0,0.0,0.0,0.0,0.0,1.0,0.0,0.0,0.0,0.0,0.0,0.0,0.0,0.0,0.0,0.0,0.0,0.0,1.0,0.0,0.0,0.0,0.0,0.0,0.0,0.0,0.0,0.0,0.0,0.0,0.0,1.0,0.0,0.0,0.0,0.0,0.0,0.0,0.0,0.0,0.0,0.0,0.0,0.0,1.0,0.0,0.0,0.0,0.0,0.0,0.0,0.0,0.0,0.0,0.0,0.0,0.0,1.0,0.0,0.0,0.0,0.0,0.0,0.0,0.0,0.0,0.0,0.0,0.0,0.0,1.0,0,0,0,0,0,0,0,0,0,0,0,0,0,0,0,0,0,0,0,0,0,0,0,0,0,0,0,0,0,0,0,0,0,0,0,0
1777280249.425966,971,0,0.0,0.0,0.0,0.0,0.0,0.0,0.0,0.0,0.0,0.0,0.0,0.0,0.0,0.0,0.0,0.0,0.0,0.0,0.0,0.0,0.0,0.0,0.0,0.0,0.0,0.0,0.0,728.7351684570312,561.6276245117188,1122.6158447265625,979.4203491210938,589.295166015625,1120.050048828125,772.8441772460938,381.9880676269531,1154.3165283203125,933.5741577148438,383.31964111328125,1158.073974609375,657.8645629882812,515.5752563476562,877.5964965820312,678.17529296875,638.0219116210938,640.8070678710938,661.4852905273438,610.79736328125,465.74603271484375,678.2338256835938,643.0775756835938,264.95245361328125,759.4478759765625,579.0216674804688,165.82119750976562,672.4462890625,829.3294677734375,223.367919921875,1025.960205078125,502.5462951660156,797.3016967773438,968.3153076171875,433.1274108886719,570.881591796875,974.6920776367188,399.3763732910156,436.7391052246094,918.6279907226562,347.7718505859375,232.88429260253906,858.3064575195312,264.94989013671875,172.23619079589844,896.6422729492188,528.897705078125,177.01976013183594,0.0,0.0,0.0,0.0,0.0,0.0,0.0,0.0,0.0,0.0,0.0,0.0,1.0,0.0,0.0,0.0,0.0,0.0,0.0,0.0,0.0,0.0,0.0,0.0,0.0,1.0,0.0,0.0,0.0,0.0,0.0,0.0,0.0,0.0,0.0,0.0,0.0,0.0,1.0,0.0,0.0,0.0,0.0,0.0,0.0,0.0,0.0,0.0,0.0,0.0,0.0,1.0,0.0,0.0,0.0,0.0,0.0,0.0,0.0,0.0,0.0,0.0,0.0,0.0,1.0,0.0,0.0,0.0,0.0,0.0,0.0,0.0,0.0,0.0,0.0,0.0,0.0,1.0,0.0,0.0,0.0,0.0,0.0,0.0,0.0,0.0,0.0,0.0,0.0,0.0,1.0,0,0,0,0,0,0,0,0,0,0,0,0,0,0,0,0,0,0,0,0,0,0,0,0,0,0,0,0,0,0,0,0,0,0,0,0
1777280249.4390812,971,1,0.0,0.0,0.0,0.0,0.0,0.0,0.0,0.0,0.0,0.0,0.0,0.0,0.0,0.0,0.0,0.0,0.0,0.0,0.0,0.0,0.0,0.0,0.0,0.0,0.0,0.0,0.0,728.7351684570312,561.6276245117188,1122.6158447265625,979.4203491210938,589.295166015625,1120.050048828125,772.8441772460938,381.9880676269531,1154.3165283203125,933.5741577148438,383.31964111328125,1158.073974609375,657.8645629882812,515.5752563476562,877.5964965820312,678.17529296875,638.0219116210938,640.8070678710938,661.4852905273438,610.79736328125,465.74603271484375,678.2338256835938,643.0775756835938,264.95245361328125,759.4478759765625,579.0216674804688,165.82119750976562,672.4462890625,829.3294677734375,223.367919921875,1025.960205078125,502.5462951660156,797.3016967773438,968.3153076171875,433.1274108886719,570.881591796875,974.6920776367188,399.3763732910156,436.7391052246094,918.6279907226562,347.7718505859375,232.88429260253906,858.3064575195312,264.94989013671875,172.23619079589844,896.6422729492188,528.897705078125,177.01976013183594,0.0,0.0,0.0,0.0,0.0,0.0,0.0,0.0,0.0,0.0,0.0,0.0,1.0,0.0,0.0,0.0,0.0,0.0,0.0,0.0,0.0,0.0,0.0,0.0,0.0,1.0,0.0,0.0,0.0,0.0,0.0,0.0,0.0,0.0,0.0,0.0,0.0,0.0,1.0,0.0,0.0,0.0,0.0,0.0,0.0,0.0,0.0,0.0,0.0,0.0,0.0,1.0,0.0,0.0,0.0,0.0,0.0,0.0,0.0,0.0,0.0,0.0,0.0,0.0,1.0,0.0,0.0,0.0,0.0,0.0,0.0,0.0,0.0,0.0,0.0,0.0,0.0,1.0,0.0,0.0,0.0,0.0,0.0,0.0,0.0,0.0,0.0,0.0,0.0,0.0,1.0,0,0,0,0,0,0,0,0,0,0,0,0,0,0,0,0,0,0,0,0,0,0,0,0,0,0,0,0,0,0,0,0,0,0,0,0
1777280249.4542055,972,0,0.0,0.0,0.0,0.0,0.0,0.0,0.0,0.0,0.0,0.0,0.0,0.0,0.0,0.0,0.0,0.0,0.0,0.0,0.0,0.0,0.0,0.0,0.0,0.0,0.0,0.0,0.0,728.15869140625,561.8919067382812,1121.4468994140625,978.9196166992188,589.3802490234375,1118.998291015625,772.080810546875,382.3410949707031,1153.4774169921875,932.8128051757812,383.5465393066406,1157.40283203125,657.13623046875,514.2456665039062,875.6787719726562,678.918701171875,635.2506103515625,638.1217041015625,662.0670776367188,614.76123046875,461.98199462890625,678.8297729492188,655.8893432617188,262.1922912597656,759.739013671875,595.4662475585938,160.8521728515625,674.9771118164062,844.3406372070312,227.640625,1025.3514404296875,500.30902099609375,796.7241821289062,968.050537109375,428.7079162597656,570.888427734375,974.49658203125,393.8897399902344,436.98040771484375,918.5699462890625,340.6023254394531,233.47259521484375,858.4033813476562,257.433349609375,172.4049835205078,896.8162841796875,521.4036865234375,176.974365234375,0.0,0.0,0.0,0.0,0.0,0.0,0.0,0.0,0.0,0.0,0.0,0.0,1.0,0.0,0.0,0.0,0.0,0.0,0.0,0.0,0.0,0.0,0.0,0.0,0.0,1.0,0.0,0.0,0.0,0.0,0.0,0.0,0.0,0.0,0.0,0.0,0.0,0.0,1.0,0.0,0.0,0.0,0.0,0.0,0.0,0.0,0.0,0.0,0.0,0.0,0.0,1.0,0.0,0.0,0.0,0.0,0.0,0.0,0.0,0.0,0.0,0.0,0.0,0.0,1.0,0.0,0.0,0.0,0.0,0.0,0.0,0.0,0.0,0.0,0.0,0.0,0.0,1.0,0.0,0.0,0.0,0.0,0.0,0.0,0.0,0.0,0.0,0.0,0.0,0.0,1.0,0,0,0,0,0,0,0,0,0,0,0,0,0,0,0,0,0,0,0,0,0,0,0,0,0,0,0,0,0,0,0,0,0,0,0,0
1777280249.4561157,974,0,0.0,0.0,0.0,0.0,0.0,0.0,0.0,0.0,0.0,0.0,0.0,0.0,0.0,0.0,0.0,0.0,0.0,0.0,0.0,0.0,0.0,0.0,0.0,0.0,0.0,0.0,0.0,726.7341918945312,562.7826538085938,1118.943115234375,977.6472778320312,589.9586181640625,1116.8709716796875,770.343505859375,383.39678955078125,1151.4840087890625,931.0840454101562,384.3661193847656,1155.7637939453125,655.7692260742188,512.3487548828125,871.6096801757812,680.6260375976562,629.806396484375,632.4070434570312,663.7308959960938,620.9191284179688,455.2026672363281,680.8706665039062,676.921142578125,257.85467529296875,761.1641235351562,622.6051635742188,154.02769470214844,681.2782592773438,868.8985595703125,235.20266723632812,1023.9332885742188,496.41461181640625,795.5062255859375,967.3701171875,420.2929992675781,570.9240112304688,974.0116577148438,383.1863098144531,437.5650939941406,918.4261474609375,326.2863464355469,234.83460998535156,858.5277709960938,242.36561584472656,172.8519744873047,897.169189453125,506.36651611328125,176.88238525390625,0.0,0.0,0.0,0.0,0.0,0.0,0.0,0.0,0.0,0.0,0.0,0.0,1.0,0.0,0.0,0.0,0.0,0.0,0.0,0.0,0.0,0.0,0.0,0.0,0.0,1.0,0.0,0.0,0.0,0.0,0.0,0.0,0.0,0.0,0.0,0.0,0.0,0.0,1.0,0.0,0.0,0.0,0.0,0.0,0.0,0.0,0.0,0.0,0.0,0.0,0.0,1.0,0.0,0.0,0.0,0.0,0.0,0.0,0.0,0.0,0.0,0.0,0.0,0.0,1.0,0.0,0.0,0.0,0.0,0.0,0.0,0.0,0.0,0.0,0.0,0.0,0.0,1.0,0.0,0.0,0.0,0.0,0.0,0.0,0.0,0.0,0.0,0.0,0.0,0.0,1.0,0,0,0,0,0,0,0,0,0,0,0,0,0,0,0,0,0,0,0,0,0,0,0,0,0,0,0,0,0,0,0,0,0,0,0,0
1777280249.4701676,974,1,0.0,0.0,0.0,0.0,0.0,0.0,0.0,0.0,0.0,0.0,0.0,0.0,0.0,0.0,0.0,0.0,0.0,0.0,0.0,0.0,0.0,0.0,0.0,0.0,0.0,0.0,0.0,726.7341918945312,562.7826538085938,1118.943115234375,977.6472778320312,589.9586181640625,1116.8709716796875,770.343505859375,383.39678955078125,1151.4840087890625,931.0840454101562,384.3661193847656,1155.7637939453125,655.7692260742188,512.3487548828125,871.6096801757812,680.6260375976562,629.806396484375,632.4070434570312,663.7308959960938,620.9191284179688,455.2026672363281,680.8706665039062,676.921142578125,257.85467529296875,761.1641235351562,622.6051635742188,154.02769470214844,681.2782592773438,868.8985595703125,235.20266723632812,1023.9332885742188,496.41461181640625,795.5062255859375,967.3701171875,420.2929992675781,570.9240112304688,974.0116577148438,383.1863098144531,437.5650939941406,918.4261474609375,326.2863464355469,234.83460998535156,858.5277709960938,242.36561584472656,172.8519744873047,897.169189453125,506.36651611328125,176.88238525390625,0.0,0.0,0.0,0.0,0.0,0.0,0.0,0.0,0.0,0.0,0.0,0.0,1.0,0.0,0.0,0.0,0.0,0.0,0.0,0.0,0.0,0.0,0.0,0.0,0.0,1.0,0.0,0.0,0.0,0.0,0.0,0.0,0.0,0.0,0.0,0.0,0.0,0.0,1.0,0.0,0.0,0.0,0.0,0.0,0.0,0.0,0.0,0.0,0.0,0.0,0.0,1.0,0.0,0.0,0.0,0.0,0.0,0.0,0.0,0.0,0.0,0.0,0.0,0.0,1.0,0.0,0.0,0.0,0.0,0.0,0.0,0.0,0.0,0.0,0.0,0.0,0.0,1.0,0.0,0.0,0.0,0.0,0.0,0.0,0.0,0.0,0.0,0.0,0.0,0.0,1.0,0,0,0,0,0,0,0,0,0,0,0,0,0,0,0,0,0,0,0,0,0,0,0,0,0,0,0,0,0,0,0,0,0,0,0,0
1777280249.486044,975,0,0.0,0.0,0.0,0.0,0.0,0.0,0.0,0.0,0.0,0.0,0.0,0.0,0.0,0.0,0.0,0.0,0.0,0.0,0.0,0.0,0.0,0.0,0.0,0.0,0.0,0.0,0.0,725.883544921875,563.4187622070312,1117.6422119140625,976.8709106445312,590.4650268554688,1115.818603515625,769.3732299804688,384.1039733886719,1150.357177734375,930.1207885742188,384.9632568359375,1154.814697265625,655.1736450195312,511.8280334472656,869.50634765625,681.5804443359375,627.2608032226562,629.4608154296875,664.8128662109375,623.0432739257812,452.1129455566406,682.3385620117188,684.8926391601562,256.0206298828125,762.3545532226562,632.8599853515625,151.9595489501953,684.9916381835938,878.2415161132812,238.02142333984375,1023.1278076171875,494.7972717285156,794.8687744140625,966.9560546875,416.3354187011719,570.9566040039062,973.7265625,377.9884033203125,437.9193420410156,918.3460083007812,319.14630126953125,235.6232452392578,858.5618286132812,234.82763671875,173.18722534179688,897.3549194335938,498.8312072753906,176.82972717285156,0.0,0.0,0.0,0.0,0.0,0.0,0.0,0.0,0.0,0.0,0.0,0.0,1.0,0.0,0.0,0.0,0.0,0.0,0.0,0.0,0.0,0.0,0.0,0.0,0.0,1.0,0.0,0.0,0.0,0.0,0.0,0.0,0.0,0.0,0.0,0.0,0.0,0.0,1.0,0.0,0.0,0.0,0.0,0.0,0.0,0.0,0.0,0.0,0.0,0.0,0.0,1.0,0.0,0.0,0.0,0.0,0.0,0.0,0.0,0.0,0.0,0.0,0.0,0.0,1.0,0.0,0.0,0.0,0.0,0.0,0.0,0.0,0.0,0.0,0.0,0.0,0.0,1.0,0.0,0.0,0.0,0.0,0.0,0.0,0.0,0.0,0.0,0.0,0.0,0.0,1.0,0,0,0,0,0,0,0,0,0,0,0,0,0,0,0,0,0,0,0,0,0,0,0,0,0,0,0,0,0,0,0,0,0,0,0,0
1777280249.4884539,977,0,0.0,0.0,0.0,0.0,0.0,0.0,0.0,0.0,0.0,0.0,0.0,0.0,0.0,0.0,0.0,0.0,0.0,0.0,0.0,0.0,0.0,0.0,0.0,0.0,0.0,0.0,0.0,723.9036865234375,565.08447265625,1115.0260009765625,975.0297241210938,591.9282836914062,1113.79248046875,767.2403564453125,385.878173828125,1147.92626953125,928.0086059570312,386.5287780761719,1152.71826171875,654.2316284179688,511.71685791015625,865.277587890625,683.6431274414062,622.7862548828125,623.5889282226562,667.4381103515625,625.3624267578125,446.34063720703125,686.1577758789062,695.4705810546875,252.44654846191406,765.5894165039062,645.9381103515625,149.75216674804688,693.4571533203125,890.8026123046875,240.75384521484375,1021.3457641601562,492.3222961425781,793.541015625,965.9874267578125,409.0682678222656,571.0504150390625,973.085205078125,367.98712158203125,438.77874755859375,918.1956787109375,304.9347839355469,237.45977783203125,858.6314697265625,219.7867431640625,174.26669311523438,897.7529296875,483.7453918457031,176.68792724609375,0.0,0.0,0.0,0.0,0.0,0.0,0.0,0.0,0.0,0.0,0.0,0.0,1.0,0.0,0.0,0.0,0.0,0.0,0.0,0.0,0.0,0.0,0.0,0.0,0.0,1.0,0.0,0.0,0.0,0.0,0.0,0.0,0.0,0.0,0.0,0.0,0.0,0.0,1.0,0.0,0.0,0.0,0.0,0.0,0.0,0.0,0.0,0.0,0.0,0.0,0.0,1.0,0.0,0.0,0.0,0.0,0.0,0.0,0.0,0.0,0.0,0.0,0.0,0.0,1.0,0.0,0.0,0.0,0.0,0.0,0.0,0.0,0.0,0.0,0.0,0.0,0.0,1.0,0.0,0.0,0.0,0.0,0.0,0.0,0.0,0.0,0.0,0.0,0.0,0.0,1.0,0,0,0,0,0,0,0,0,0,0,0,0,0,0,0,0,0,0,0,0,0,0,0,0,0,0,0,0,0,0,0,0,0,0,0,0
1777280249.5026474,977,1,0.0,0.0,0.0,0.0,0.0,0.0,0.0,0.0,0.0,0.0,0.0,0.0,0.0,0.0,0.0,0.0,0.0,0.0,0.0,0.0,0.0,0.0,0.0,0.0,0.0,0.0,0.0,723.9036865234375,565.08447265625,1115.0260009765625,975.0297241210938,591.9282836914062,1113.79248046875,767.2403564453125,385.878173828125,1147.92626953125,928.0086059570312,386.5287780761719,1152.71826171875,654.2316284179688,511.71685791015625,865.277587890625,683.6431274414062,622.7862548828125,623.5889282226562,667.4381103515625,625.3624267578125,446.34063720703125,686.1577758789062,695.4705810546875,252.44654846191406,765.5894165039062,645.9381103515625,149.75216674804688,693.4571533203125,890.8026123046875,240.75384521484375,1021.3457641601562,492.3222961425781,793.541015625,965.9874267578125,409.0682678222656,571.0504150390625,973.085205078125,367.98712158203125,438.77874755859375,918.1956787109375,304.9347839355469,237.45977783203125,858.6314697265625,219.7867431640625,174.26669311523438,897.7529296875,483.7453918457031,176.68792724609375,0.0,0.0,0.0,0.0,0.0,0.0,0.0,0.0,0.0,0.0,0.0,0.0,1.0,0.0,0.0,0.0,0.0,0.0,0.0,0.0,0.0,0.0,0.0,0.0,0.0,1.0,0.0,0.0,0.0,0.0,0.0,0.0,0.0,0.0,0.0,0.0,0.0,0.0,1.0,0.0,0.0,0.0,0.0,0.0,0.0,0.0,0.0,0.0,0.0,0.0,0.0,1.0,0.0,0.0,0.0,0.0,0.0,0.0,0.0,0.0,0.0,0.0,0.0,0.0,1.0,0.0,0.0,0.0,0.0,0.0,0.0,0.0,0.0,0.0,0.0,0.0,0.0,1.0,0.0,0.0,0.0,0.0,0.0,0.0,0.0,0.0,0.0,0.0,0.0,0.0,1.0,0,0,0,0,0,0,0,0,0,0,0,0,0,0,0,0,0,0,0,0,0,0,0,0,0,0,0,0,0,0,0,0,0,0,0,0
1777280249.5179355,978,0,0.0,0.0,0.0,0.0,0.0,0.0,0.0,0.0,0.0,0.0,0.0,0.0,0.0,0.0,0.0,0.0,0.0,0.0,0.0,0.0,0.0,0.0,0.0,0.0,0.0,0.0,0.0,722.7764892578125,566.11279296875,1113.7445068359375,973.9642333984375,592.8828735351562,1112.8406982421875,766.0828857421875,386.940673828125,1146.6602783203125,926.8654174804688,387.48895263671875,1151.599853515625,653.8968505859375,512.1338500976562,863.19775390625,684.7225952148438,620.9363403320312,620.7393798828125,668.9500732421875,625.6170654296875,443.60174560546875,688.4622802734375,698.12890625,250.54525756835938,767.4932861328125,648.6510620117188,149.27293395996094,698.1522216796875,894.0598754882812,240.40283203125,1020.3827514648438,491.5058898925781,792.8519897460938,965.4390258789062,405.8432312011719,571.10693359375,972.7379760742188,363.2383117675781,439.2950744628906,918.1435546875,297.8857116699219,238.5305938720703,858.7041015625,212.30213928222656,175.08856201171875,897.9649658203125,476.1958312988281,176.5921630859375,0.0,0.0,0.0,0.0,0.0,0.0,0.0,0.0,0.0,0.0,0.0,0.0,1.0,0.0,0.0,0.0,0.0,0.0,0.0,0.0,0.0,0.0,0.0,0.0,0.0,1.0,0.0,0.0,0.0,0.0,0.0,0.0,0.0,0.0,0.0,0.0,0.0,0.0,1.0,0.0,0.0,0.0,0.0,0.0,0.0,0.0,0.0,0.0,0.0,0.0,0.0,1.0,0.0,0.0,0.0,0.0,0.0,0.0,0.0,0.0,0.0,0.0,0.0,0.0,1.0,0.0,0.0,0.0,0.0,0.0,0.0,0.0,0.0,0.0,0.0,0.0,0.0,1.0,0.0,0.0,0.0,0.0,0.0,0.0,0.0,0.0,0.0,0.0,0.0,0.0,1.0,0,0,0,0,0,0,0,0,0,0,0,0,0,0,0,0,0,0,0,0,0,0,0,0,0,0,0,0,0,0,0,0,0,0,0,0
1777280249.5211315,980,0,0.0,0.0,0.0,0.0,0.0,0.0,0.0,0.0,0.0,0.0,0.0,0.0,0.0,0.0,0.0,0.0,0.0,0.0,0.0,0.0,0.0,0.0,0.0,0.0,0.0,0.0,0.0,720.2611694335938,568.5374755859375,1111.3201904296875,971.5503540039062,595.2060546875,1111.116455078125,763.6016845703125,389.3895568847656,1144.1318359375,924.4208984375,389.7245178222656,1149.3048095703125,653.4801635742188,513.864501953125,859.2255249023438,686.8790893554688,618.131103515625,615.3969116210938,672.2486572265625,624.614501953125,438.3764953613281,693.6093139648438,698.73876953125,246.3603057861328,771.376708984375,646.9400634765625,148.88253784179688,708.1187133789062,895.08154296875,236.08607482910156,1018.357177734375,490.8231506347656,791.4312744140625,964.2454223632812,400.4873962402344,571.2177124023438,972.027099609375,354.43817138671875,440.5325927734375,918.1524658203125,283.9923400878906,241.0569305419922,859.0241088867188,197.4412384033203,177.45516967773438,898.4065551757812,461.0608825683594,176.35731506347656,0.0,0.0,0.0,0.0,0.0,0.0,0.0,0.0,0.0,0.0,0.0,0.0,1.0,0.0,0.0,0.0,0.0,0.0,0.0,0.0,0.0,0.0,0.0,0.0,0.0,1.0,0.0,0.0,0.0,0.0,0.0,0.0,0.0,0.0,0.0,0.0,0.0,0.0,1.0,0.0,0.0,0.0,0.0,0.0,0.0,0.0,0.0,0.0,0.0,0.0,0.0,1.0,0.0,0.0,0.0,0.0,0.0,0.0,0.0,0.0,0.0,0.0,0.0,0.0,1.0,0.0,0.0,0.0,0.0,0.0,0.0,0.0,0.0,0.0,0.0,0.0,0.0,1.0,0.0,0.0,0.0,0.0,0.0,0.0,0.0,0.0,0.0,0.0,0.0,0.0,1.0,0,0,0,0,0,0,0,0,0,0,0,0,0,0,0,0,0,0,0,0,0,0,0,0,0,0,0,0,0,0,0,0,0,0,0,0
1777280249.5340867,980,1,0.0,0.0,0.0,0.0,0.0,0.0,0.0,0.0,0.0,0.0,0.0,0.0,0.0,0.0,0.0,0.0,0.0,0.0,0.0,0.0,0.0,0.0,0.0,0.0,0.0,0.0,0.0,720.2611694335938,568.5374755859375,1111.3201904296875,971.5503540039062,595.2060546875,1111.116455078125,763.6016845703125,389.3895568847656,1144.1318359375,924.4208984375,389.7245178222656,1149.3048095703125,653.4801635742188,513.864501953125,859.2255249023438,686.8790893554688,618.131103515625,615.3969116210938,672.2486572265625,624.614501953125,438.3764953613281,693.6093139648438,698.73876953125,246.3603057861328,771.376708984375,646.9400634765625,148.88253784179688,708.1187133789062,895.08154296875,236.08607482910156,1018.357177734375,490.8231506347656,791.4312744140625,964.2454223632812,400.4873962402344,571.2177124023438,972.027099609375,354.43817138671875,440.5325927734375,918.1524658203125,283.9923400878906,241.0569305419922,859.0241088867188,197.4412384033203,177.45516967773438,898.4065551757812,461.0608825683594,176.35731506347656,0.0,0.0,0.0,0.0,0.0,0.0,0.0,0.0,0.0,0.0,0.0,0.0,1.0,0.0,0.0,0.0,0.0,0.0,0.0,0.0,0.0,0.0,0.0,0.0,0.0,1.0,0.0,0.0,0.0,0.0,0.0,0.0,0.0,0.0,0.0,0.0,0.0,0.0,1.0,0.0,0.0,0.0,0.0,0.0,0.0,0.0,0.0,0.0,0.0,0.0,0.0,1.0,0.0,0.0,0.0,0.0,0.0,0.0,0.0,0.0,0.0,0.0,0.0,0.0,1.0,0.0,0.0,0.0,0.0,0.0,0.0,0.0,0.0,0.0,0.0,0.0,0.0,1.0,0.0,0.0,0.0,0.0,0.0,0.0,0.0,0.0,0.0,0.0,0.0,0.0,1.0,0,0,0,0,0,0,0,0,0,0,0,0,0,0,0,0,0,0,0,0,0,0,0,0,0,0,0,0,0,0,0,0,0,0,0,0
1777280249.5368814,982,0,0.0,0.0,0.0,0.0,0.0,0.0,0.0,0.0,0.0,0.0,0.0,0.0,0.0,0.0,0.0,0.0,0.0,0.0,0.0,0.0,0.0,0.0,0.0,0.0,0.0,0.0,0.0,717.43017578125,571.3881225585938,1109.1954345703125,968.7840576171875,597.994140625,1109.7076416015625,760.9246215820312,392.2074890136719,1141.7559814453125,921.7907104492188,392.2974548339844,1147.0523681640625,653.3056640625,516.6201171875,855.6749267578125,688.85791015625,616.5521850585938,610.7630615234375,675.6517944335938,622.1519165039062,433.6059875488281,698.9357299804688,694.3604125976562,241.85202026367188,774.7251586914062,637.7250366210938,148.88064575195312,717.9765014648438,890.1974487304688,227.65611267089844,1016.2711181640625,491.5538635253906,789.978759765625,962.9990844726562,397.0473937988281,571.2900390625,971.3700561523438,346.9179992675781,442.0992736816406,918.4281616210938,270.57537841796875,244.25015258789062,859.6593627929688,182.7646942138672,180.9208526611328,898.8466186523438,445.822509765625,176.11514282226562,0.0,0.0,0.0,0.0,0.0,0.0,0.0,0.0,0.0,0.0,0.0,0.0,1.0,0.0,0.0,0.0,0.0,0.0,0.0,0.0,0.0,0.0,0.0,0.0,0.0,1.0,0.0,0.0,0.0,0.0,0.0,0.0,0.0,0.0,0.0,0.0,0.0,0.0,1.0,0.0,0.0,0.0,0.0,0.0,0.0,0.0,0.0,0.0,0.0,0.0,0.0,1.0,0.0,0.0,0.0,0.0,0.0,0.0,0.0,0.0,0.0,0.0,0.0,0.0,1.0,0.0,0.0,0.0,0.0,0.0,0.0,0.0,0.0,0.0,0.0,0.0,0.0,1.0,0.0,0.0,0.0,0.0,0.0,0.0,0.0,0.0,0.0,0.0,0.0,0.0,1.0,0,0,0,0,0,0,0,0,0,0,0,0,0,0,0,0,0,0,0,0,0,0,0,0,0,0,0,0,0,0,0,0,0,0,0,0
1777280249.5508091,983,0,0.0,0.0,0.0,0.0,0.0,0.0,0.0,0.0,0.0,0.0,0.0,0.0,0.0,0.0,0.0,0.0,0.0,0.0,0.0,0.0,0.0,0.0,0.0,0.0,0.0,0.0,0.0,715.9130249023438,572.9374389648438,1108.2874755859375,967.2837524414062,599.5156860351562,1109.1500244140625,759.5238647460938,393.7222900390625,1140.679931640625,920.4161987304688,393.67022705078125,1145.98828125,653.2562255859375,518.2877807617188,854.1265869140625,689.7047119140625,616.1961059570312,608.792236328125,677.2559814453125,620.5997924804688,431.48272705078125,701.4202270507812,690.8753662109375,239.63787841796875,776.0283203125,631.3303833007812,149.04507446289062,722.45703125,886.1906127929688,222.4490203857422,1015.2351684570312,492.50079345703125,789.2572021484375,962.3973999023438,396.2344055175781,571.3007202148438,971.0986328125,343.7952575683594,443.0350036621094,918.712890625,264.1573181152344,246.1728973388672,860.0975952148438,175.52471923828125,183.1162872314453,899.0540771484375,438.14947509765625,176.0182647705078,0.0,0.0,0.0,0.0,0.0,0.0,0.0,0.0,0.0,0.0,0.0,0.0,1.0,0.0,0.0,0.0,0.0,0.0,0.0,0.0,0.0,0.0,0.0,0.0,0.0,1.0,0.0,0.0,0.0,0.0,0.0,0.0,0.0,0.0,0.0,0.0,0.0,0.0,1.0,0.0,0.0,0.0,0.0,0.0,0.0,0.0,0.0,0.0,0.0,0.0,0.0,1.0,0.0,0.0,0.0,0.0,0.0,0.0,0.0,0.0,0.0,0.0,0.0,0.0,1.0,0.0,0.0,0.0,0.0,0.0,0.0,0.0,0.0,0.0,0.0,0.0,0.0,1.0,0.0,0.0,0.0,0.0,0.0,0.0,0.0,0.0,0.0,0.0,0.0,0.0,1.0,0,0,0,0,0,0,0,0,0,0,0,0,0,0,0,0,0,0,0,0,0,0,0,0,0,0,0,0,0,0,0,0,0,0,0,0
