Timestamp,Vicon_Frame_Num,Vicon_Recv_Timestamp,IMU_Recv_Timestamp,Planter_Recv_Timestamp,Vicon_Gap_Flag,Vicon_Gap_Size,IMU_Stale_ms,Planter_Stale_ms,IMU_Matched_Flag,Planter_Matched_Flag,Vicon_Root_X,Vicon_Root_Y,Vicon_Root_Z,Vicon_L_Femur_X,Vicon_L_Femur_Y,Vicon_L_Femur_Z,Vicon_L_Tibia_X,Vicon_L_Tibia_Y,Vicon_L_Tibia_Z,Vicon_L_Foot_X,Vicon_L_Foot_Y,Vicon_L_Foot_Z,Vicon_L_Toe_X,Vicon_L_Toe_Y,Vicon_L_Toe_Z,Vicon_R_Femur_X,Vicon_R_Femur_Y,Vicon_R_Femur_Z,Vicon_R_Tibia_X,Vicon_R_Tibia_Y,Vicon_R_Tibia_Z,Vicon_R_Foot_X,Vicon_R_Foot_Y,Vicon_R_Foot_Z,Vicon_R_Toe_X,Vicon_R_Toe_Y,Vicon_R_Toe_Z,Vicon_LASI_X,Vicon_LASI_Y,Vicon_LASI_Z,Vicon_RASI_X,Vicon_RASI_Y,Vicon_RASI_Z,Vicon_LPSI_X,Vicon_LPSI_Y,Vicon_LPSI_Z,Vicon_RPSI_X,Vicon_RPSI_Y,Vicon_RPSI_Z,Vicon_LTHI_X,Vicon_LTHI_Y,Vicon_LTHI_Z,Vicon_LKNE_X,Vicon_LKNE_Y,Vicon_LKNE_Z,Vicon_LTIB_X,Vicon_LTIB_Y,Vicon_LTIB_Z,Vicon_LANK_X,Vicon_LANK_Y,Vicon_LANK_Z,Vicon_LHEE_X,Vicon_LHEE_Y,Vicon_LHEE_Z,Vicon_LTOE_X,Vicon_LTOE_Y,Vicon_LTOE_Z,Vicon_RTHI_X,Vicon_RTHI_Y,Vicon_RTHI_Z,Vicon_RKNE_X,Vicon_RKNE_Y,Vicon_RKNE_Z,Vicon_RTIB_X,Vicon_RTIB_Y,Vicon_RTIB_Z,Vicon_RANK_X,Vicon_RANK_Y,Vicon_RANK_Z,Vicon_RHEE_X,Vicon_RHEE_Y,Vicon_RHEE_Z,Vicon_RTOE_X,Vicon_RTOE_Y,Vicon_RTOE_Z,IMU_Trunk_Acc_X,IMU_Trunk_Acc_Y,IMU_Trunk_Acc_Z,IMU_Trunk_Gyro_X,IMU_Trunk_Gyro_Y,IMU_Trunk_Gyro_Z,IMU_Trunk_Roll,IMU_Trunk_Pitch,IMU_Trunk_Yaw,IMU_Trunk_Quat_x,IMU_Trunk_Quat_y,IMU_Trunk_Quat_z,IMU_Trunk_Quat_w,IMU_L_Femur_Acc_X,IMU_L_Femur_Acc_Y,IMU_L_Femur_Acc_Z,IMU_L_Femur_Gyro_X,IMU_L_Femur_Gyro_Y,IMU_L_Femur_Gyro_Z,IMU_L_Femur_Roll,IMU_L_Femur_Pitch,IMU_L_Femur_Yaw,IMU_L_Femur_Quat_x,IMU_L_Femur_Quat_y,IMU_L_Femur_Quat_z,IMU_L_Femur_Quat_w,IMU_L_Tibia_Acc_X,IMU_L_Tibia_Acc_Y,IMU_L_Tibia_Acc_Z,IMU_L_Tibia_Gyro_X,IMU_L_Tibia_Gyro_Y,IMU_L_Tibia_Gyro_Z,IMU_L_Tibia_Roll,IMU_L_Tibia_Pitch,IMU_L_Tibia_Yaw,IMU_L_Tibia_Quat_x,IMU_L_Tibia_Quat_y,IMU_L_Tibia_Quat_z,IMU_L_Tibia_Quat_w,IMU_L_Foot_Acc_X,IMU_L_Foot_Acc_Y,IMU_L_Foot_Acc_Z,IMU_L_Foot_Gyro_X,IMU_L_Foot_Gyro_Y,IMU_L_Foot_Gyro_Z,IMU_L_Foot_Roll,IMU_L_Foot_Pitch,IMU_L_Foot_Yaw,IMU_L_Foot_Quat_x,IMU_L_Foot_Quat_y,IMU_L_Foot_Quat_z,IMU_L_Foot_Quat_w,IMU_R_Femur_Acc_X,IMU_R_Femur_Acc_Y,IMU_R_Femur_Acc_Z,IMU_R_Femur_Gyro_X,IMU_R_Femur_Gyro_Y,IMU_R_Femur_Gyro_Z,IMU_R_Femur_Roll,IMU_R_Femur_Pitch,IMU_R_Femur_Yaw,IMU_R_Femur_Quat_x,IMU_R_Femur_Quat_y,IMU_R_Femur_Quat_z,IMU_R_Femur_Quat_w,IMU_R_Tibia_Acc_X,IMU_R_Tibia_Acc_Y,IMU_R_Tibia_Acc_Z,IMU_R_Tibia_Gyro_X,IMU_R_Tibia_Gyro_Y,IMU_R_Tibia_Gyro_Z,IMU_R_Tibia_Roll,IMU_R_Tibia_Pitch,IMU_R_Tibia_Yaw,IMU_R_Tibia_Quat_x,IMU_R_Tibia_Quat_y,IMU_R_Tibia_Quat_z,IMU_R_Tibia_Quat_w,IMU_R_Foot_Acc_X,IMU_R_Foot_Acc_Y,IMU_R_Foot_Acc_Z,IMU_R_Foot_Gyro_X,IMU_R_Foot_Gyro_Y,IMU_R_Foot_Gyro_Z,IMU_R_Foot_Roll,IMU_R_Foot_Pitch,IMU_R_Foot_Yaw,IMU_R_Foot_Quat_x,IMU_R_Foot_Quat_y,IMU_R_Foot_Quat_z,IMU_R_Foot_Quat_w,Planter_Left_0,Planter_Left_1,Planter_Left_2,Planter_Left_3,Planter_Left_4,Planter_Left_5,Planter_Left_6,Planter_Left_7,Planter_Left_8,Planter_Left_9,Planter_Left_10,Planter_Left_11,Planter_Left_12,Planter_Left_13,Planter_Left_14,Planter_Left_15,Planter_Left_16,Planter_Left_17,Planter_Right_0,Planter_Right_1,Planter_Right_2,Planter_Right_3,Planter_Right_4,Planter_Right_5,Planter_Right_6,Planter_Right_7,Planter_Right_8,Planter_Right_9,Planter_Right_10,Planter_Right_11,Planter_Right_12,Planter_Right_13,Planter_Right_14,Planter_Right_15,Planter_Right_16,Planter_Right_17
1777290496.0922778,994,1777290490.7587,1777290490.8725798,,0,0,-113.87991905212402,,1,0,0.0,0.0,0.0,0.0,0.0,0.0,0.0,0.0,0.0,0.0,0.0,0.0,0.0,0.0,0.0,0.0,0.0,0.0,0.0,0.0,0.0,0.0,0.0,0.0,0.0,0.0,0.0,0.0,0.0,0.0,0.0,0.0,0.0,0.0,0.0,0.0,0.0,0.0,0.0,0.0,0.0,0.0,0.0,0.0,0.0,0.0,0.0,0.0,0.0,0.0,0.0,0.0,0.0,0.0,0.0,0.0,0.0,0.0,0.0,0.0,0.0,0.0,0.0,0.0,0.0,0.0,0.0,0.0,0.0,0.0,0.0,0.0,0.0,0.0,0.0,0.0,0.0,0.0,0.0,0.0,0.0,0.0,0.0,0.0,0.0,0.0,0.0,1.0,0.0,0.0,0.0,0.0,0.0,0.0,0.0,0.0,0.0,0.0,0.0,0.0,1.0,-1.2489,15.858,3.2252,197.2046,84.7168,52.002,135.9064,-0.3571,-17.8748,0.9158,0.1428,-0.0612,0.3704,0.0,0.0,0.0,0.0,0.0,0.0,0.0,0.0,0.0,0.0,0.0,0.0,1.0,0.0,0.0,0.0,0.0,0.0,0.0,0.0,0.0,0.0,0.0,0.0,0.0,1.0,0.0,0.0,0.0,0.0,0.0,0.0,0.0,0.0,0.0,0.0,0.0,0.0,1.0,0.0,0.0,0.0,0.0,0.0,0.0,0.0,0.0,0.0,0.0,0.0,0.0,1.0,0,0,0,0,0,0,0,0,0,0,0,0,0,0,0,0,0,0,0,0,0,0,0,0,0,0,0,0,0,0,0,0,0,0,0,0
1777290496.0922778,995,1777290490.7682095,1777290490.8725798,,0,0,-104.3703556060791,,1,0,0.0,0.0,0.0,0.0,0.0,0.0,0.0,0.0,0.0,0.0,0.0,0.0,0.0,0.0,0.0,0.0,0.0,0.0,0.0,0.0,0.0,0.0,0.0,0.0,0.0,0.0,0.0,696.4479370117188,589.807373046875,1108.7799072265625,947.6200561523438,614.0540161132812,1112.4669189453125,741.3528442382812,410.1564636230469,1138.3934326171875,902.369384765625,406.81817626953125,1141.5751953125,646.2554931640625,534.6625366210938,852.3945922851562,686.8200073242188,617.0765380859375,604.1594848632812,675.4439086914062,597.7703247070312,427.5788879394531,706.7955932617188,628.4342651367188,230.58514404296875,777.34912109375,544.4609985351562,155.5392303466797,738.3228149414062,809.72412109375,186.35182189941406,1007.2471313476562,532.5083618164062,786.6668090820312,964.54248046875,451.74688720703125,573.5513305664062,977.40185546875,363.6836242675781,469.4227600097656,933.196533203125,231.65525817871094,300.68206787109375,868.7774047851562,128.8500213623047,269.5581970214844,905.387939453125,358.7104797363281,171.27249145507812,0.0,0.0,0.0,0.0,0.0,0.0,0.0,0.0,0.0,0.0,0.0,0.0,1.0,0.0,0.0,0.0,0.0,0.0,0.0,0.0,0.0,0.0,0.0,0.0,0.0,1.0,-1.2489,15.858,3.2252,197.2046,84.7168,52.002,135.9064,-0.3571,-17.8748,0.9158,0.1428,-0.0612,0.3704,0.0,0.0,0.0,0.0,0.0,0.0,0.0,0.0,0.0,0.0,0.0,0.0,1.0,0.0,0.0,0.0,0.0,0.0,0.0,0.0,0.0,0.0,0.0,0.0,0.0,1.0,0.0,0.0,0.0,0.0,0.0,0.0,0.0,0.0,0.0,0.0,0.0,0.0,1.0,0.0,0.0,0.0,0.0,0.0,0.0,0.0,0.0,0.0,0.0,0.0,0.0,1.0,0,0,0,0,0,0,0,0,0,0,0,0,0,0,0,0,0,0,0,0,0,0,0,0,0,0,0,0,0,0,0,0,0,0,0,0
1777290496.0922778,996,1777290490.7712095,1777290490.8725798,,0,0,-101.37033462524414,,1,0,0.0,0.0,0.0,0.0,0.0,0.0,0.0,0.0,0.0,0.0,0.0,0.0,0.0,0.0,0.0,0.0,0.0,0.0,0.0,0.0,0.0,0.0,0.0,0.0,0.0,0.0,0.0,695.05224609375,590.5381469726562,1109.6058349609375,946.2340698242188,614.2926635742188,1113.487548828125,739.8431396484375,410.8817443847656,1139.0638427734375,900.8411254882812,407.1517333984375,1142.01953125,644.9407348632812,534.6177978515625,853.1522216796875,685.91943359375,615.710693359375,604.4368896484375,674.5880126953125,594.4693603515625,428.1365051269531,706.4990844726562,622.10693359375,230.80474853515625,777.3843383789062,537.2391967773438,155.73072814941406,738.47705078125,802.4319458007812,186.09536743164062,1007.1099243164062,537.031005859375,787.4209594726562,965.7050170898438,461.12286376953125,574.583984375,978.7724609375,370.61334228515625,473.1973876953125,934.8154296875,234.3016357421875,308.1493225097656,869.7213134765625,132.4253387451172,283.9721374511719,907.15869140625,355.30023193359375,170.11805725097656,0.0,0.0,0.0,0.0,0.0,0.0,0.0,0.0,0.0,0.0,0.0,0.0,1.0,0.0,0.0,0.0,0.0,0.0,0.0,0.0,0.0,0.0,0.0,0.0,0.0,1.0,-1.2489,15.858,3.2252,197.2046,84.7168,52.002,135.9064,-0.3571,-17.8748,0.9158,0.1428,-0.0612,0.3704,0.0,0.0,0.0,0.0,0.0,0.0,0.0,0.0,0.0,0.0,0.0,0.0,1.0,0.0,0.0,0.0,0.0,0.0,0.0,0.0,0.0,0.0,0.0,0.0,0.0,1.0,0.0,0.0,0.0,0.0,0.0,0.0,0.0,0.0,0.0,0.0,0.0,0.0,1.0,0.0,0.0,0.0,0.0,0.0,0.0,0.0,0.0,0.0,0.0,0.0,0.0,1.0,0,0,0,0,0,0,0,0,0,0,0,0,0,0,0,0,0,0,0,0,0,0,0,0,0,0,0,0,0,0,0,0,0,0,0,0
1777290496.0922778,997,1777290490.7862158,1777290490.8725798,,0,0,-86.3640308380127,,1,0,0.0,0.0,0.0,0.0,0.0,0.0,0.0,0.0,0.0,0.0,0.0,0.0,0.0,0.0,0.0,0.0,0.0,0.0,0.0,0.0,0.0,0.0,0.0,0.0,0.0,0.0,0.0,693.7306518554688,591.1271362304688,1110.4718017578125,944.9307250976562,614.3453979492188,1114.5745849609375,738.3521728515625,411.4652099609375,1139.8184814453125,899.3286743164062,407.3364562988281,1142.567138671875,643.5742797851562,534.2755737304688,853.8878784179688,685.0347900390625,613.9002685546875,604.6459350585938,673.9285888671875,590.713623046875,428.6126403808594,706.3253173828125,615.6117553710938,231.01812744140625,777.4835815429688,530.007080078125,155.89361572265625,738.6806640625,795.1494750976562,185.89242553710938,1007.0399169921875,541.4444580078125,788.361328125,966.9304809570312,470.7839660644531,575.8663940429688,980.1410522460938,378.0697326660156,477.17864990234375,936.2734375,237.71359252929688,315.84637451171875,870.4876098632812,137.3346710205078,298.763427734375,909.2139282226562,352.67901611328125,169.18960571289062,0.0,0.0,0.0,0.0,0.0,0.0,0.0,0.0,0.0,0.0,0.0,0.0,1.0,0.0,0.0,0.0,0.0,0.0,0.0,0.0,0.0,0.0,0.0,0.0,0.0,1.0,-1.2489,15.858,3.2252,197.2046,84.7168,52.002,135.9064,-0.3571,-17.8748,0.9158,0.1428,-0.0612,0.3704,0.0,0.0,0.0,0.0,0.0,0.0,0.0,0.0,0.0,0.0,0.0,0.0,1.0,0.0,0.0,0.0,0.0,0.0,0.0,0.0,0.0,0.0,0.0,0.0,0.0,1.0,0.0,0.0,0.0,0.0,0.0,0.0,0.0,0.0,0.0,0.0,0.0,0.0,1.0,0.0,0.0,0.0,0.0,0.0,0.0,0.0,0.0,0.0,0.0,0.0,0.0,1.0,0,0,0,0,0,0,0,0,0,0,0,0,0,0,0,0,0,0,0,0,0,0,0,0,0,0,0,0,0,0,0,0,0,0,0,0
1777290496.0922778,998,1777290490.7911005,1777290490.8725798,,0,0,-81.47931098937988,,1,0,0.0,0.0,0.0,0.0,0.0,0.0,0.0,0.0,0.0,0.0,0.0,0.0,0.0,0.0,0.0,0.0,0.0,0.0,0.0,0.0,0.0,0.0,0.0,0.0,0.0,0.0,0.0,692.486572265625,591.5755615234375,1111.3587646484375,943.7116088867188,614.2221069335938,1115.716552734375,736.8860473632812,411.9061584472656,1140.6439208984375,897.8388061523438,407.3763122558594,1143.2086181640625,642.1845092773438,533.6388549804688,854.5784301757812,684.1806030273438,611.6456909179688,604.7774047851562,673.4691772460938,586.5028076171875,428.9969787597656,706.2708129882812,608.9650268554688,231.21322631835938,777.6320190429688,522.7673950195312,156.0493927001953,738.9201049804688,787.885986328125,185.70216369628906,1007.0256958007812,545.6942138671875,789.4869995117188,968.1798706054688,480.5951232910156,577.4114379882812,981.4535522460938,385.92523193359375,481.3387756347656,937.5140991210938,241.81910705566406,323.6489562988281,870.947021484375,143.3859405517578,313.4277038574219,911.5427856445312,350.928955078125,168.6988067626953,0.0,0.0,0.0,0.0,0.0,0.0,0.0,0.0,0.0,0.0,0.0,0.0,1.0,0.0,0.0,0.0,0.0,0.0,0.0,0.0,0.0,0.0,0.0,0.0,0.0,1.0,-1.2489,15.858,3.2252,197.2046,84.7168,52.002,135.9064,-0.3571,-17.8748,0.9158,0.1428,-0.0612,0.3704,0.0,0.0,0.0,0.0,0.0,0.0,0.0,0.0,0.0,0.0,0.0,0.0,1.0,0.0,0.0,0.0,0.0,0.0,0.0,0.0,0.0,0.0,0.0,0.0,0.0,1.0,0.0,0.0,0.0,0.0,0.0,0.0,0.0,0.0,0.0,0.0,0.0,0.0,1.0,0.0,0.0,0.0,0.0,0.0,0.0,0.0,0.0,0.0,0.0,0.0,0.0,1.0,0,0,0,0,0,0,0,0,0,0,0,0,0,0,0,0,0,0,0,0,0,0,0,0,0,0,0,0,0,0,0,0,0,0,0,0
1777290496.0927868,999,1777290490.8039534,1777290490.8725798,,0,0,-68.62640380859375,,1,0,0.0,0.0,0.0,0.0,0.0,0.0,0.0,0.0,0.0,0.0,0.0,0.0,0.0,0.0,0.0,0.0,0.0,0.0,0.0,0.0,0.0,0.0,0.0,0.0,0.0,0.0,0.0,691.3212280273438,591.8854370117188,1112.2501220703125,942.5757446289062,613.9364013671875,1116.9034423828125,735.4517211914062,412.2056579589844,1141.5277099609375,896.3792114257812,407.2774658203125,1143.934814453125,640.7996215820312,532.7166137695312,855.2105102539062,683.3665771484375,608.9639892578125,604.8331909179688,673.1888427734375,581.8645629882812,429.2942810058594,706.317626953125,602.186279296875,231.38706970214844,777.8124389648438,515.5196533203125,156.21658325195312,739.1767578125,780.64111328125,185.50523376464844,1007.0553588867188,549.73828125,790.79638671875,969.4148559570312,490.42626953125,579.2229614257812,982.6576538085938,394.0526123046875,485.6412353515625,938.4917602539062,246.5478973388672,331.4128112792969,870.9744873046875,150.3370819091797,327.4248962402344,914.13671875,350.1656188964844,168.8539276123047,0.0,0.0,0.0,0.0,0.0,0.0,0.0,0.0,0.0,0.0,0.0,0.0,1.0,0.0,0.0,0.0,0.0,0.0,0.0,0.0,0.0,0.0,0.0,0.0,0.0,1.0,-1.2489,15.858,3.2252,197.2046,84.7168,52.002,135.9064,-0.3571,-17.8748,0.9158,0.1428,-0.0612,0.3704,0.0,0.0,0.0,0.0,0.0,0.0,0.0,0.0,0.0,0.0,0.0,0.0,1.0,0.0,0.0,0.0,0.0,0.0,0.0,0.0,0.0,0.0,0.0,0.0,0.0,1.0,0.0,0.0,0.0,0.0,0.0,0.0,0.0,0.0,0.0,0.0,0.0,0.0,1.0,0.0,0.0,0.0,0.0,0.0,0.0,0.0,0.0,0.0,0.0,0.0,0.0,1.0,0,0,0,0,0,0,0,0,0,0,0,0,0,0,0,0,0,0,0,0,0,0,0,0,0,0,0,0,0,0,0,0,0,0,0,0
1777290496.0927868,1000,1777290490.8066432,1777290490.8725798,,0,0,-65.93656539916992,,1,0,0.0,0.0,0.0,0.0,0.0,0.0,0.0,0.0,0.0,0.0,0.0,0.0,0.0,0.0,0.0,0.0,0.0,0.0,0.0,0.0,0.0,0.0,0.0,0.0,0.0,0.0,0.0,690.2343139648438,592.0596923828125,1113.133056640625,941.5198364257812,613.50439453125,1118.1273193359375,734.0570068359375,412.3662109375,1142.458740234375,894.9578857421875,407.0478820800781,1144.7371826171875,639.4464111328125,531.5240478515625,855.7808837890625,682.5986938476562,605.8859252929688,604.8245849609375,673.049560546875,576.8504028320312,429.52099609375,706.4392700195312,595.296875,231.5439910888672,778.00830078125,508.2597351074219,156.4095458984375,739.4320678710938,773.4075927734375,185.2982177734375,1007.1179809570312,553.5484008789062,792.2874145507812,970.6000366210938,500.1570129394531,581.2939453125,983.706787109375,402.33221435546875,490.0382385253906,939.1753540039062,251.8367156982422,338.978271484375,870.4702758789062,157.92433166503906,340.2294006347656,916.9929809570312,350.53399658203125,169.82614135742188,0.0,0.0,0.0,0.0,0.0,0.0,0.0,0.0,0.0,0.0,0.0,0.0,1.0,0.0,0.0,0.0,0.0,0.0,0.0,0.0,0.0,0.0,0.0,0.0,0.0,1.0,-1.2489,15.858,3.2252,197.2046,84.7168,52.002,135.9064,-0.3571,-17.8748,0.9158,0.1428,-0.0612,0.3704,0.0,0.0,0.0,0.0,0.0,0.0,0.0,0.0,0.0,0.0,0.0,0.0,1.0,0.0,0.0,0.0,0.0,0.0,0.0,0.0,0.0,0.0,0.0,0.0,0.0,1.0,0.0,0.0,0.0,0.0,0.0,0.0,0.0,0.0,0.0,0.0,0.0,0.0,1.0,0.0,0.0,0.0,0.0,0.0,0.0,0.0,0.0,0.0,0.0,0.0,0.0,1.0,0,0,0,0,0,0,0,0,0,0,0,0,0,0,0,0,0,0,0,0,0,0,0,0,0,0,0,0,0,0,0,0,0,0,0,0
1777290496.0927868,1001,1777290490.8200257,1777290490.8725798,,0,0,-52.55413055419922,,1,0,0.0,0.0,0.0,0.0,0.0,0.0,0.0,0.0,0.0,0.0,0.0,0.0,0.0,0.0,0.0,0.0,0.0,0.0,0.0,0.0,0.0,0.0,0.0,0.0,0.0,0.0,0.0,689.2235107421875,592.1015014648438,1113.9986572265625,940.5388793945312,612.9439697265625,1119.3818359375,732.7102661132812,412.39154052734375,1143.426513671875,893.5834350585938,406.69671630859375,1145.6070556640625,638.1485595703125,530.082275390625,856.2951049804688,681.8801879882812,602.4525146484375,604.7692260742188,673.0056762695312,571.5277709960938,429.700927734375,706.60595703125,588.3175659179688,231.6934051513672,778.2067260742188,500.9814758300781,156.6385040283203,739.6707153320312,766.1739501953125,185.08787536621094,1007.2041015625,557.1104125976562,793.9583129882812,971.7046508789062,509.6800537109375,583.6060791015625,984.5632934570312,410.65789794921875,494.469482421875,939.550537109375,257.6330871582031,346.1766662597656,869.3803100585938,165.8984375,351.38458251953125,920.1129150390625,352.1910705566406,171.7135467529297,0.0,0.0,0.0,0.0,0.0,0.0,0.0,0.0,0.0,0.0,0.0,0.0,1.0,0.0,0.0,0.0,0.0,0.0,0.0,0.0,0.0,0.0,0.0,0.0,0.0,1.0,-1.2489,15.858,3.2252,197.2046,84.7168,52.002,135.9064,-0.3571,-17.8748,0.9158,0.1428,-0.0612,0.3704,0.0,0.0,0.0,0.0,0.0,0.0,0.0,0.0,0.0,0.0,0.0,0.0,1.0,0.0,0.0,0.0,0.0,0.0,0.0,0.0,0.0,0.0,0.0,0.0,0.0,1.0,0.0,0.0,0.0,0.0,0.0,0.0,0.0,0.0,0.0,0.0,0.0,0.0,1.0,0.0,0.0,0.0,0.0,0.0,0.0,0.0,0.0,0.0,0.0,0.0,0.0,1.0,0,0,0,0,0,0,0,0,0,0,0,0,0,0,0,0,0,0,0,0,0,0,0,0,0,0,0,0,0,0,0,0,0,0,0,0
1777290496.0927868,1002,1777290490.8388927,1777290490.8725798,,0,0,-33.68711471557617,,1,0,0.0,0.0,0.0,0.0,0.0,0.0,0.0,0.0,0.0,0.0,0.0,0.0,0.0,0.0,0.0,0.0,0.0,0.0,0.0,0.0,0.0,0.0,0.0,0.0,0.0,0.0,0.0,688.284912109375,592.014404296875,1114.841796875,939.62646484375,612.2735595703125,1120.6622314453125,731.4200439453125,412.2864685058594,1144.4219970703125,892.264404296875,406.2341003417969,1146.5364990234375,636.9258422851562,528.4177856445312,856.7653198242188,681.2125244140625,598.7103271484375,604.6884765625,673.012451171875,565.9700317382812,429.86090087890625,706.7894897460938,581.2672729492188,231.84751892089844,778.398681640625,493.6780700683594,156.91014099121094,739.882080078125,758.927490234375,184.8859405517578,1007.3065185546875,560.4232177734375,795.8070068359375,972.70361328125,518.90380859375,586.1302490234375,985.2006225585938,418.940673828125,498.86279296875,939.6212158203125,263.89727783203125,352.8384094238281,867.7097778320312,174.0625457763672,360.5519104003906,923.4933471679688,355.2779846191406,174.51144409179688,0.0,0.0,0.0,0.0,0.0,0.0,0.0,0.0,0.0,0.0,0.0,0.0,1.0,0.0,0.0,0.0,0.0,0.0,0.0,0.0,0.0,0.0,0.0,0.0,0.0,1.0,-1.2489,15.858,3.2252,197.2046,84.7168,52.002,135.9064,-0.3571,-17.8748,0.9158,0.1428,-0.0612,0.3704,0.0,0.0,0.0,0.0,0.0,0.0,0.0,0.0,0.0,0.0,0.0,0.0,1.0,0.0,0.0,0.0,0.0,0.0,0.0,0.0,0.0,0.0,0.0,0.0,0.0,1.0,0.0,0.0,0.0,0.0,0.0,0.0,0.0,0.0,0.0,0.0,0.0,0.0,1.0,0.0,0.0,0.0,0.0,0.0,0.0,0.0,0.0,0.0,0.0,0.0,0.0,1.0,0,0,0,0,0,0,0,0,0,0,0,0,0,0,0,0,0,0,0,0,0,0,0,0,0,0,0,0,0,0,0,0,0,0,0,0
1777290496.0927868,1003,1777290490.8496277,1777290490.8725798,,0,0,-22.95207977294922,,1,0,0.0,0.0,0.0,0.0,0.0,0.0,0.0,0.0,0.0,0.0,0.0,0.0,0.0,0.0,0.0,0.0,0.0,0.0,0.0,0.0,0.0,0.0,0.0,0.0,0.0,0.0,0.0,687.4135131835938,591.802001953125,1115.6602783203125,938.775634765625,611.5113525390625,1121.9649658203125,730.1946411132812,412.0567932128906,1145.4366455078125,891.0089111328125,405.6705322265625,1147.5179443359375,635.7935180664062,526.560302734375,857.2076416015625,680.5967407226562,594.70703125,604.6039428710938,673.0331420898438,560.2459716796875,430.0270690917969,706.9667358398438,574.1613159179688,232.01893615722656,778.5789794921875,486.3437805175781,157.2277069091797,740.0608520507812,751.65673828125,184.70504760742188,1007.419921875,563.49658203125,797.8309326171875,973.57763671875,527.7540283203125,588.8276977539062,985.6051635742188,427.1109924316406,503.13641357421875,939.4087524414062,270.60284423828125,358.8016357421875,865.5274047851562,182.2997589111328,367.541015625,927.1156616210938,359.8901672363281,178.1000518798828,0.0,0.0,0.0,0.0,0.0,0.0,0.0,0.0,0.0,0.0,0.0,0.0,1.0,0.0,0.0,0.0,0.0,0.0,0.0,0.0,0.0,0.0,0.0,0.0,0.0,1.0,-1.2489,15.858,3.2252,197.2046,84.7168,52.002,135.9064,-0.3571,-17.8748,0.9158,0.1428,-0.0612,0.3704,0.0,0.0,0.0,0.0,0.0,0.0,0.0,0.0,0.0,0.0,0.0,0.0,1.0,0.0,0.0,0.0,0.0,0.0,0.0,0.0,0.0,0.0,0.0,0.0,0.0,1.0,0.0,0.0,0.0,0.0,0.0,0.0,0.0,0.0,0.0,0.0,0.0,0.0,1.0,0.0,0.0,0.0,0.0,0.0,0.0,0.0,0.0,0.0,0.0,0.0,0.0,1.0,0,0,0,0,0,0,0,0,0,0,0,0,0,0,0,0,0,0,0,0,0,0,0,0,0,0,0,0,0,0,0,0,0,0,0,0
1777290496.0927868,1004,1777290490.8538835,1777290490.8725798,,0,0,-18.696308135986328,,1,0,0.0,0.0,0.0,0.0,0.0,0.0,0.0,0.0,0.0,0.0,0.0,0.0,0.0,0.0,0.0,0.0,0.0,0.0,0.0,0.0,0.0,0.0,0.0,0.0,0.0,0.0,0.0,686.6033935546875,591.4685668945312,1116.454345703125,937.9791870117188,610.6742553710938,1123.286865234375,729.0416259765625,411.7090759277344,1146.4625244140625,889.8244018554688,405.0167236328125,1148.5433349609375,634.7623291015625,524.5411376953125,857.6390991210938,680.0338745117188,590.4869384765625,604.53515625,673.0430908203125,554.4121704101562,430.22198486328125,707.1222534179688,567.0107421875,232.21878051757812,778.7459106445312,478.975341796875,157.59034729003906,740.206298828125,744.3525390625,184.55581665039062,1007.5400390625,566.3480224609375,800.025634765625,974.3131713867188,536.1742553710938,591.6527709960938,985.7761840820312,435.119140625,507.2032775878906,938.9501342773438,277.7353515625,363.9203796386719,862.9566650390625,190.57969665527344,372.3107604980469,930.9381713867188,366.05804443359375,182.25897216796875,0.0,0.0,0.0,0.0,0.0,0.0,0.0,0.0,0.0,0.0,0.0,0.0,1.0,0.0,0.0,0.0,0.0,0.0,0.0,0.0,0.0,0.0,0.0,0.0,0.0,1.0,-1.2489,15.858,3.2252,197.2046,84.7168,52.002,135.9064,-0.3571,-17.8748,0.9158,0.1428,-0.0612,0.3704,0.0,0.0,0.0,0.0,0.0,0.0,0.0,0.0,0.0,0.0,0.0,0.0,1.0,0.0,0.0,0.0,0.0,0.0,0.0,0.0,0.0,0.0,0.0,0.0,0.0,1.0,0.0,0.0,0.0,0.0,0.0,0.0,0.0,0.0,0.0,0.0,0.0,0.0,1.0,0.0,0.0,0.0,0.0,0.0,0.0,0.0,0.0,0.0,0.0,0.0,0.0,1.0,0,0,0,0,0,0,0,0,0,0,0,0,0,0,0,0,0,0,0,0,0,0,0,0,0,0,0,0,0,0,0,0,0,0,0,0
1777290496.0927868,1005,1777290490.8568847,1777290490.8725798,,0,0,-15.69509506225586,,1,0,0.0,0.0,0.0,0.0,0.0,0.0,0.0,0.0,0.0,0.0,0.0,0.0,0.0,0.0,0.0,0.0,0.0,0.0,0.0,0.0,0.0,0.0,0.0,0.0,0.0,0.0,0.0,685.8482055664062,591.0186767578125,1117.2252197265625,937.2306518554688,609.7777099609375,1124.6243896484375,727.9678955078125,411.25067138671875,1147.4923095703125,888.7174682617188,404.283203125,1149.60498046875,633.8389282226562,522.39013671875,858.0748291015625,679.5253295898438,586.0885009765625,604.4973754882812,673.0306396484375,548.508544921875,430.46240234375,707.2489624023438,559.8224487304688,232.45492553710938,778.9000854492188,471.5724182128906,157.99224853515625,740.3218383789062,737.0087890625,184.4453125,1007.6630249023438,568.9991455078125,802.3839721679688,974.9019775390625,544.1257934570312,594.554931640625,985.725830078125,442.9342041015625,510.9757995605469,938.294189453125,285.2896728515625,368.07208251953125,860.1578369140625,198.9417266845703,374.94207763671875,934.8950805664062,373.7451477050781,186.70452880859375,0.0,0.0,0.0,0.0,0.0,0.0,0.0,0.0,0.0,0.0,0.0,0.0,1.0,0.0,0.0,0.0,0.0,0.0,0.0,0.0,0.0,0.0,0.0,0.0,0.0,1.0,-1.2489,15.858,3.2252,197.2046,84.7168,52.002,135.9064,-0.3571,-17.8748,0.9158,0.1428,-0.0612,0.3704,0.0,0.0,0.0,0.0,0.0,0.0,0.0,0.0,0.0,0.0,0.0,0.0,1.0,0.0,0.0,0.0,0.0,0.0,0.0,0.0,0.0,0.0,0.0,0.0,0.0,1.0,0.0,0.0,0.0,0.0,0.0,0.0,0.0,0.0,0.0,0.0,0.0,0.0,1.0,0.0,0.0,0.0,0.0,0.0,0.0,0.0,0.0,0.0,0.0,0.0,0.0,1.0,0,0,0,0,0,0,0,0,0,0,0,0,0,0,0,0,0,0,0,0,0,0,0,0,0,0,0,0,0,0,0,0,0,0,0,0
1777290496.0927868,1006,1777290490.883124,1777290490.882124,,0,0,1.0001659393310547,,1,0,0.0,0.0,0.0,0.0,0.0,0.0,0.0,0.0,0.0,0.0,0.0,0.0,0.0,0.0,0.0,0.0,0.0,0.0,0.0,0.0,0.0,0.0,0.0,0.0,0.0,0.0,0.0,685.1417236328125,590.4577026367188,1117.9742431640625,936.5242309570312,608.8348999023438,1125.9730224609375,726.9786987304688,410.68951416015625,1148.5186767578125,887.6932983398438,403.480224609375,1150.6944580078125,633.026123046875,520.1336059570312,858.526123046875,679.0731811523438,581.54248046875,604.5008544921875,672.9957885742188,542.5587768554688,430.7580261230469,707.3477783203125,552.5996704101562,232.73098754882812,779.0443725585938,464.1379089355469,158.42201232910156,740.4140625,729.622314453125,184.37649536132812,1007.7847290039062,571.4722290039062,804.8946533203125,975.3405151367188,551.586669921875,597.4820556640625,985.4772338867188,450.5421447753906,514.3712768554688,937.4971313476562,293.2664489746094,371.16314697265625,857.304931640625,207.4654998779297,375.5953369140625,938.90234375,382.8621520996094,191.13711547851562,-1.5025,8.4458,-0.8661,16.2354,-4.8218,-11.5967,88.2422,3.2904,-16.8475,0.6854,0.1223,-0.0853,0.7128,0.1388,16.6667,-4.254,-216.3696,-75.4395,-43.0298,104.2273,4.1254,4.7186,0.789,-0.0104,0.0536,0.612,-0.4929,11.4939,-12.5802,13.855,55.8472,-6.5308,158.9996,-7.1521,-18.5944,0.9703,0.1473,-0.0899,0.1696,-18.2123,7.7424,70.2461,-171.7529,145.4468,104.7363,73.8281,-1.5106,-83.4631,0.4552,0.3919,-0.5381,0.5914,19.2794,17.0782,-6.8332,124.2676,38.6353,-0.7324,73.0591,-10.0909,-6.4545,0.596,-0.0372,-0.0973,0.7962,-2.7515,15.9729,-7.1969,56.7627,-70.8008,42.5415,87.9785,-2.0325,-10.3326,0.6927,0.0498,-0.077,0.7153,-0.1531,0.1292,10.9341,-12.085,6.5308,-3.0518,0.6592,-5.5316,-86.0504,0.0371,-0.0314,-0.6817,0.73,0,0,0,0,0,0,0,0,0,0,0,0,0,0,0,0,0,0,0,0,0,0,0,0,0,0,0,0,0,0,0,0,0,0,0,0
1777290496.0927868,1007,1777290490.8854437,1777290490.882124,,0,0,3.3197402954101562,,1,0,0.0,0.0,0.0,0.0,0.0,0.0,0.0,0.0,0.0,0.0,0.0,0.0,0.0,0.0,0.0,0.0,0.0,0.0,0.0,0.0,0.0,0.0,0.0,0.0,0.0,0.0,0.0,684.4783935546875,589.7919921875,1118.701904296875,935.8556518554688,607.8570556640625,1127.3265380859375,726.0780029296875,410.0341796875,1149.5340576171875,886.7557983398438,402.6175842285156,1151.8028564453125,632.3238525390625,517.7925415039062,858.9989624023438,678.6798095703125,576.871826171875,604.55029296875,672.947265625,536.5728759765625,431.1110534667969,707.4260864257812,545.3433837890625,233.0460205078125,779.1832885742188,456.67816162109375,158.86318969726562,740.4912109375,722.192138671875,184.34841918945312,1007.9005126953125,573.7874755859375,807.5411987304688,975.6296997070312,558.5497436523438,600.3826293945312,985.0626831054688,457.9426574707031,517.3164672851562,936.6174926757812,301.6687316894531,373.13232421875,854.5631103515625,216.24258422851562,374.466064453125,942.8674926757812,393.28863525390625,195.2845001220703,-1.5025,8.4458,-0.8661,16.2354,-4.8218,-11.5967,88.2422,3.2904,-16.8475,0.6854,0.1223,-0.0853,0.7128,0.1388,16.6667,-4.254,-216.3696,-75.4395,-43.0298,104.2273,4.1254,4.7186,0.789,-0.0104,0.0536,0.612,-0.4929,11.4939,-12.5802,13.855,55.8472,-6.5308,158.9996,-7.1521,-18.5944,0.9703,0.1473,-0.0899,0.1696,-18.2123,7.7424,70.2461,-171.7529,145.4468,104.7363,73.8281,-1.5106,-83.4631,0.4552,0.3919,-0.5381,0.5914,19.2794,17.0782,-6.8332,124.2676,38.6353,-0.7324,73.0591,-10.0909,-6.4545,0.596,-0.0372,-0.0973,0.7962,-2.7515,15.9729,-7.1969,56.7627,-70.8008,42.5415,87.9785,-2.0325,-10.3326,0.6927,0.0498,-0.077,0.7153,-0.1531,0.1292,10.9341,-12.085,6.5308,-3.0518,0.6592,-5.5316,-86.0504,0.0371,-0.0314,-0.6817,0.73,0,0,0,0,0,0,0,0,0,0,0,0,0,0,0,0,0,0,0,0,0,0,0,0,0,0,0,0,0,0,0,0,0,0,0,0
1777290496.0927868,1008,1777290490.8874524,1777290490.882124,,0,0,5.32841682434082,,1,0,0.0,0.0,0.0,0.0,0.0,0.0,0.0,0.0,0.0,0.0,0.0,0.0,0.0,0.0,0.0,0.0,0.0,0.0,0.0,0.0,0.0,0.0,0.0,0.0,0.0,0.0,0.0,683.8535766601562,589.028564453125,1119.4071044921875,935.2218017578125,606.8532104492188,1128.6763916015625,725.26806640625,409.2936096191406,1150.531005859375,885.9074096679688,401.70458984375,1152.9205322265625,631.729736328125,515.38134765625,859.4935302734375,678.347900390625,572.0927124023438,604.644775390625,672.89892578125,530.5518798828125,431.5166015625,707.4960327148438,538.0542602539062,233.3949432373047,779.3226928710938,449.2023010253906,159.2963409423828,740.5619506835938,714.7194213867188,184.35687255859375,1008.005615234375,575.9605712890625,810.3013916015625,975.7742309570312,565.02001953125,603.207763671875,984.5205078125,465.14593505859375,519.751708984375,935.7117919921875,310.4996032714844,373.95196533203125,852.0698852539062,225.3571014404297,371.7505187988281,946.7005004882812,404.8945007324219,198.93190002441406,-1.5025,8.4458,-0.8661,16.2354,-4.8218,-11.5967,88.2422,3.2904,-16.8475,0.6854,0.1223,-0.0853,0.7128,0.1388,16.6667,-4.254,-216.3696,-75.4395,-43.0298,104.2273,4.1254,4.7186,0.789,-0.0104,0.0536,0.612,-0.4929,11.4939,-12.5802,13.855,55.8472,-6.5308,158.9996,-7.1521,-18.5944,0.9703,0.1473,-0.0899,0.1696,-18.2123,7.7424,70.2461,-171.7529,145.4468,104.7363,73.8281,-1.5106,-83.4631,0.4552,0.3919,-0.5381,0.5914,19.2794,17.0782,-6.8332,124.2676,38.6353,-0.7324,73.0591,-10.0909,-6.4545,0.596,-0.0372,-0.0973,0.7962,-2.7515,15.9729,-7.1969,56.7627,-70.8008,42.5415,87.9785,-2.0325,-10.3326,0.6927,0.0498,-0.077,0.7153,-0.1531,0.1292,10.9341,-12.085,6.5308,-3.0518,0.6592,-5.5316,-86.0504,0.0371,-0.0314,-0.6817,0.73,0,0,0,0,0,0,0,0,0,0,0,0,0,0,0,0,0,0,0,0,0,0,0,0,0,0,0,0,0,0,0,0,0,0,0,0
1777290496.0927868,1009,1777290490.9051867,1777290490.882124,,0,0,23.062705993652344,,1,0,0.0,0.0,0.0,0.0,0.0,0.0,0.0,0.0,0.0,0.0,0.0,0.0,0.0,0.0,0.0,0.0,0.0,0.0,0.0,0.0,0.0,0.0,0.0,0.0,0.0,0.0,0.0,683.2637329101562,588.1754760742188,1120.0863037109375,934.62109375,605.8306274414062,1130.0115966796875,724.5496826171875,408.4771728515625,1151.5020751953125,885.1491088867188,400.7499694824219,1154.037353515625,631.240234375,512.907958984375,860.0044555664062,678.0801391601562,567.2158813476562,604.7786254882812,672.8670654296875,524.49267578125,431.9640197753906,707.5719604492188,530.7335815429688,233.76942443847656,779.468505859375,441.7209777832031,159.70150756835938,740.6340942382812,707.2069702148438,184.39505004882812,1008.0957641601562,578.001708984375,813.1470336914062,975.7824096679688,571.0119018554688,605.9127197265625,983.8916015625,472.1691589355469,521.63330078125,934.8306884765625,319.76116943359375,373.6267395019531,849.9232177734375,234.87750244140625,367.6258544921875,950.3224487304688,417.5551452636719,201.93597412109375,-1.5025,8.4458,-0.8661,16.2354,-4.8218,-11.5967,88.2422,3.2904,-16.8475,0.6854,0.1223,-0.0853,0.7128,0.1388,16.6667,-4.254,-216.3696,-75.4395,-43.0298,104.2273,4.1254,4.7186,0.789,-0.0104,0.0536,0.612,-0.4929,11.4939,-12.5802,13.855,55.8472,-6.5308,158.9996,-7.1521,-18.5944,0.9703,0.1473,-0.0899,0.1696,-18.2123,7.7424,70.2461,-171.7529,145.4468,104.7363,73.8281,-1.5106,-83.4631,0.4552,0.3919,-0.5381,0.5914,19.2794,17.0782,-6.8332,124.2676,38.6353,-0.7324,73.0591,-10.0909,-6.4545,0.596,-0.0372,-0.0973,0.7962,-2.7515,15.9729,-7.1969,56.7627,-70.8008,42.5415,87.9785,-2.0325,-10.3326,0.6927,0.0498,-0.077,0.7153,-0.1531,0.1292,10.9341,-12.085,6.5308,-3.0518,0.6592,-5.5316,-86.0504,0.0371,-0.0314,-0.6817,0.73,0,0,0,0,0,0,0,0,0,0,0,0,0,0,0,0,0,0,0,0,0,0,0,0,0,0,0,0,0,0,0,0,0,0,0,0
1777290496.0927868,1010,1777290490.9089482,1777290490.882124,,0,0,26.824235916137695,,1,0,0.0,0.0,0.0,0.0,0.0,0.0,0.0,0.0,0.0,0.0,0.0,0.0,0.0,0.0,0.0,0.0,0.0,0.0,0.0,0.0,0.0,0.0,0.0,0.0,0.0,0.0,0.0,682.7066650390625,587.2415771484375,1120.7333984375,934.0528564453125,604.7951049804688,1131.3187255859375,723.9219970703125,407.59429931640625,1152.439453125,884.480712890625,399.7620544433594,1155.142578125,630.8513793945312,510.37469482421875,860.5215454101562,677.8792724609375,562.2489013671875,604.9421997070312,672.867431640625,518.3919677734375,432.4385070800781,707.6692504882812,523.3846435546875,234.15899658203125,779.625732421875,434.2442932128906,160.06141662597656,740.7137451171875,699.6591186523438,184.4542236328125,1008.16796875,579.9151611328125,816.0443115234375,975.6659545898438,576.5459594726562,608.4575805664062,983.2164306640625,479.0337219238281,522.9344482421875,934.016845703125,329.4540100097656,372.1907653808594,848.17724609375,244.85655212402344,362.2449645996094,953.6724853515625,431.158935546875,204.2248077392578,-1.5025,8.4458,-0.8661,16.2354,-4.8218,-11.5967,88.2422,3.2904,-16.8475,0.6854,0.1223,-0.0853,0.7128,0.1388,16.6667,-4.254,-216.3696,-75.4395,-43.0298,104.2273,4.1254,4.7186,0.789,-0.0104,0.0536,0.612,-0.4929,11.4939,-12.5802,13.855,55.8472,-6.5308,158.9996,-7.1521,-18.5944,0.9703,0.1473,-0.0899,0.1696,-18.2123,7.7424,70.2461,-171.7529,145.4468,104.7363,73.8281,-1.5106,-83.4631,0.4552,0.3919,-0.5381,0.5914,19.2794,17.0782,-6.8332,124.2676,38.6353,-0.7324,73.0591,-10.0909,-6.4545,0.596,-0.0372,-0.0973,0.7962,-2.7515,15.9729,-7.1969,56.7627,-70.8008,42.5415,87.9785,-2.0325,-10.3326,0.6927,0.0498,-0.077,0.7153,-0.1531,0.1292,10.9341,-12.085,6.5308,-3.0518,0.6592,-5.5316,-86.0504,0.0371,-0.0314,-0.6817,0.73,0,0,0,0,0,0,0,0,0,0,0,0,0,0,0,0,0,0,0,0,0,0,0,0,0,0,0,0,0,0,0,0,0,0,0,0
1777290496.0927868,1011,1777290490.9212737,1777290490.882124,,0,0,39.14976119995117,,1,0,0.0,0.0,0.0,0.0,0.0,0.0,0.0,0.0,0.0,0.0,0.0,0.0,0.0,0.0,0.0,0.0,0.0,0.0,0.0,0.0,0.0,0.0,0.0,0.0,0.0,0.0,0.0,682.181396484375,586.236328125,1121.34033203125,933.5176391601562,603.751220703125,1132.5819091796875,723.3829345703125,406.6545715332031,1153.335205078125,883.9006958007812,398.7485046386719,1156.2249755859375,630.5595703125,507.7795715332031,861.0308227539062,677.7476806640625,557.1976928710938,605.1229248046875,672.9140014648438,512.248779296875,432.92291259765625,707.802490234375,516.0127563476562,234.55233764648438,779.7979125976562,426.779052734375,160.3640594482422,740.8055419921875,692.08154296875,184.52444458007812,1008.2207641601562,581.699462890625,818.9547119140625,975.4390869140625,581.64599609375,610.8081665039062,982.531982421875,485.7627868652344,523.6453247070312,933.3034057617188,339.5773010253906,369.7034606933594,846.8447265625,255.33538818359375,355.7416076660156,956.7103271484375,445.6080017089844,205.7884979248047,-1.5025,8.4458,-0.8661,16.2354,-4.8218,-11.5967,88.2422,3.2904,-16.8475,0.6854,0.1223,-0.0853,0.7128,0.1388,16.6667,-4.254,-216.3696,-75.4395,-43.0298,104.2273,4.1254,4.7186,0.789,-0.0104,0.0536,0.612,-0.4929,11.4939,-12.5802,13.855,55.8472,-6.5308,158.9996,-7.1521,-18.5944,0.9703,0.1473,-0.0899,0.1696,-18.2123,7.7424,70.2461,-171.7529,145.4468,104.7363,73.8281,-1.5106,-83.4631,0.4552,0.3919,-0.5381,0.5914,19.2794,17.0782,-6.8332,124.2676,38.6353,-0.7324,73.0591,-10.0909,-6.4545,0.596,-0.0372,-0.0973,0.7962,-2.7515,15.9729,-7.1969,56.7627,-70.8008,42.5415,87.9785,-2.0325,-10.3326,0.6927,0.0498,-0.077,0.7153,-0.1531,0.1292,10.9341,-12.085,6.5308,-3.0518,0.6592,-5.5316,-86.0504,0.0371,-0.0314,-0.6817,0.73,0,0,0,0,0,0,0,0,0,0,0,0,0,0,0,0,0,0,0,0,0,0,0,0,0,0,0,0,0,0,0,0,0,0,0,0
1777290496.0927868,1012,1777290490.9385984,1777290490.882124,,0,0,56.47444725036621,,1,0,0.0,0.0,0.0,0.0,0.0,0.0,0.0,0.0,0.0,0.0,0.0,0.0,0.0,0.0,0.0,0.0,0.0,0.0,0.0,0.0,0.0,0.0,0.0,0.0,0.0,0.0,0.0,681.6880493164062,585.1695556640625,1121.896484375,933.0162353515625,602.7031860351562,1133.7838134765625,722.9293823242188,405.6675109863281,1154.181884765625,883.40673828125,397.71673583984375,1157.2730712890625,630.3618774414062,505.11846923828125,861.5161743164062,677.6876220703125,552.0682373046875,605.3064575195312,673.0180053710938,506.06585693359375,433.3995361328125,707.98486328125,508.6250915527344,234.938232421875,779.9889526367188,419.3260498046875,160.60330200195312,740.9130859375,684.4807739257812,184.59519958496094,1008.2542724609375,583.3485107421875,821.83642578125,975.118408203125,586.3366088867188,612.935791015625,981.8704833984375,492.3794860839844,523.7715454101562,932.7135620117188,350.129150390625,366.24481201171875,845.9041137695312,266.34747314453125,348.24041748046875,959.41650390625,460.8153381347656,206.66510009765625,-1.5025,8.4458,-0.8661,16.2354,-4.8218,-11.5967,88.2422,3.2904,-16.8475,0.6854,0.1223,-0.0853,0.7128,0.1388,16.6667,-4.254,-216.3696,-75.4395,-43.0298,104.2273,4.1254,4.7186,0.789,-0.0104,0.0536,0.612,-0.4929,11.4939,-12.5802,13.855,55.8472,-6.5308,158.9996,-7.1521,-18.5944,0.9703,0.1473,-0.0899,0.1696,-18.2123,7.7424,70.2461,-171.7529,145.4468,104.7363,73.8281,-1.5106,-83.4631,0.4552,0.3919,-0.5381,0.5914,19.2794,17.0782,-6.8332,124.2676,38.6353,-0.7324,73.0591,-10.0909,-6.4545,0.596,-0.0372,-0.0973,0.7962,-2.7515,15.9729,-7.1969,56.7627,-70.8008,42.5415,87.9785,-2.0325,-10.3326,0.6927,0.0498,-0.077,0.7153,-0.1531,0.1292,10.9341,-12.085,6.5308,-3.0518,0.6592,-5.5316,-86.0504,0.0371,-0.0314,-0.6817,0.73,0,0,0,0,0,0,0,0,0,0,0,0,0,0,0,0,0,0,0,0,0,0,0,0,0,0,0,0,0,0,0,0,0,0,0,0
1777290496.0927868,1013,1777290490.9406087,1777290490.882124,,0,0,58.484792709350586,,1,0,0.0,0.0,0.0,0.0,0.0,0.0,0.0,0.0,0.0,0.0,0.0,0.0,0.0,0.0,0.0,0.0,0.0,0.0,0.0,0.0,0.0,0.0,0.0,0.0,0.0,0.0,0.0,681.2274780273438,584.0513305664062,1122.390380859375,932.5498657226562,601.6547241210938,1134.906005859375,722.557373046875,404.6423645019531,1154.9716796875,882.9957275390625,396.6735534667969,1158.2755126953125,630.2565307617188,502.38739013671875,861.960693359375,677.700927734375,546.8677978515625,605.4776611328125,673.18798828125,499.8496398925781,433.851318359375,708.2276611328125,501.2301025390625,235.3064422607422,780.2042236328125,411.8783264160156,160.77896118164062,741.0399169921875,676.863525390625,184.6563262939453,1008.27001953125,584.8526611328125,824.6459350585938,974.721923828125,590.641357421875,614.8170776367188,981.2581176757812,498.9053649902344,523.3320922851562,932.2613525390625,361.1065979003906,361.910400390625,845.3106689453125,277.9201354980469,339.86676025390625,961.7888793945312,476.70068359375,206.9255828857422,-1.5025,8.4458,-0.8661,16.2354,-4.8218,-11.5967,88.2422,3.2904,-16.8475,0.6854,0.1223,-0.0853,0.7128,0.1388,16.6667,-4.254,-216.3696,-75.4395,-43.0298,104.2273,4.1254,4.7186,0.789,-0.0104,0.0536,0.612,-0.4929,11.4939,-12.5802,13.855,55.8472,-6.5308,158.9996,-7.1521,-18.5944,0.9703,0.1473,-0.0899,0.1696,-18.2123,7.7424,70.2461,-171.7529,145.4468,104.7363,73.8281,-1.5106,-83.4631,0.4552,0.3919,-0.5381,0.5914,19.2794,17.0782,-6.8332,124.2676,38.6353,-0.7324,73.0591,-10.0909,-6.4545,0.596,-0.0372,-0.0973,0.7962,-2.7515,15.9729,-7.1969,56.7627,-70.8008,42.5415,87.9785,-2.0325,-10.3326,0.6927,0.0498,-0.077,0.7153,-0.1531,0.1292,10.9341,-12.085,6.5308,-3.0518,0.6592,-5.5316,-86.0504,0.0371,-0.0314,-0.6817,0.73,0,0,0,0,0,0,0,0,0,0,0,0,0,0,0,0,0,0,0,0,0,0,0,0,0,0,0,0,0,0,0,0,0,0,0,0
1777290496.0927868,1014,1777290490.9542158,1777290490.882124,,0,0,72.09181785583496,,1,0,0.0,0.0,0.0,0.0,0.0,0.0,0.0,0.0,0.0,0.0,0.0,0.0,0.0,0.0,0.0,0.0,0.0,0.0,0.0,0.0,0.0,0.0,0.0,0.0,0.0,0.0,0.0,680.8011474609375,582.8917236328125,1122.8094482421875,932.1198120117188,600.6095581054688,1135.929931640625,722.2625732421875,403.588134765625,1155.69775390625,882.6642456054688,395.6255798339844,1159.220947265625,630.241943359375,499.5844421386719,862.3478393554688,677.7889404296875,541.6060180664062,605.62158203125,673.4296875,493.61016845703125,434.26263427734375,708.5400390625,493.8370056152344,235.64825439453125,780.4498901367188,404.4211730957031,160.8974609375,741.1895751953125,669.2361450195312,184.69869995117188,1008.2708129882812,586.2002563476562,827.33984375,974.2684936523438,594.5808715820312,616.4338989257812,980.71484375,505.35919189453125,522.3566284179688,931.9522705078125,372.50537109375,356.8067932128906,845.0076293945312,290.07366943359375,330.75323486328125,963.837890625,493.18780517578125,206.66026306152344,-1.5025,8.4458,-0.8661,16.2354,-4.8218,-11.5967,88.2422,3.2904,-16.8475,0.6854,0.1223,-0.0853,0.7128,0.1388,16.6667,-4.254,-216.3696,-75.4395,-43.0298,104.2273,4.1254,4.7186,0.789,-0.0104,0.0536,0.612,-0.4929,11.4939,-12.5802,13.855,55.8472,-6.5308,158.9996,-7.1521,-18.5944,0.9703,0.1473,-0.0899,0.1696,-18.2123,7.7424,70.2461,-171.7529,145.4468,104.7363,73.8281,-1.5106,-83.4631,0.4552,0.3919,-0.5381,0.5914,19.2794,17.0782,-6.8332,124.2676,38.6353,-0.7324,73.0591,-10.0909,-6.4545,0.596,-0.0372,-0.0973,0.7962,-2.7515,15.9729,-7.1969,56.7627,-70.8008,42.5415,87.9785,-2.0325,-10.3326,0.6927,0.0498,-0.077,0.7153,-0.1531,0.1292,10.9341,-12.085,6.5308,-3.0518,0.6592,-5.5316,-86.0504,0.0371,-0.0314,-0.6817,0.73,0,0,0,0,0,0,0,0,0,0,0,0,0,0,0,0,0,0,0,0,0,0,0,0,0,0,0,0,0,0,0,0,0,0,0,0
1777290496.0927868,1015,1777290490.961212,1777290490.961212,,0,0,0.0,,1,0,0.0,0.0,0.0,0.0,0.0,0.0,0.0,0.0,0.0,0.0,0.0,0.0,0.0,0.0,0.0,0.0,0.0,0.0,0.0,0.0,0.0,0.0,0.0,0.0,0.0,0.0,0.0,680.4105224609375,581.700439453125,1123.1414794921875,931.7271728515625,599.5715942382812,1136.837646484375,722.0402221679688,402.51348876953125,1156.353271484375,882.4083251953125,394.5790100097656,1160.0986328125,630.3167724609375,496.71160888671875,862.662841796875,677.95263671875,536.2950439453125,605.7240600585938,673.7466430664062,487.36041259765625,434.6202392578125,708.9290771484375,486.4549255371094,235.956787109375,780.7289428710938,396.93609619140625,160.972900390625,741.3655395507812,661.6043701171875,184.71469116210938,1008.260498046875,587.3790283203125,829.8766479492188,973.7767333984375,598.1724243164062,617.7725830078125,980.2545776367188,511.7561340332031,520.8831176757812,931.7846069335938,384.3193359375,351.0472412109375,844.9371337890625,302.81903076171875,321.04144287109375,965.5816650390625,510.2027587890625,205.968994140625,-1.5025,8.4458,-0.8661,16.2354,-4.8218,-11.5967,88.2422,3.2904,-16.8475,0.6854,0.1223,-0.0853,0.7128,5.0244,8.1778,-1.3973,0.2441,-0.3662,-0.1221,99.7119,-31.2067,-159.8785,0.2994,0.6946,-0.6473,-0.094,-0.4929,11.4939,-12.5802,13.855,55.8472,-6.5308,158.9996,-7.1521,-18.5944,0.9703,0.1473,-0.0899,0.1696,-18.4037,-8.977,20.7771,-197.937,-56.8237,34.8511,70.8948,-2.2577,-83.6938,0.4426,0.3749,-0.5519,0.5991,6.9911,15.1115,104.1729,412.1704,-1281.0059,-562.1338,4.2133,3.5156,-0.7031,0.0366,0.0309,-0.005,0.9988,-2.7515,15.9729,-7.1969,56.7627,-70.8008,42.5415,87.9785,-2.0325,-10.3326,0.6927,0.0498,-0.077,0.7153,-0.1531,0.1292,10.9341,-12.085,6.5308,-3.0518,0.6592,-5.5316,-86.0504,0.0371,-0.0314,-0.6817,0.73,0,0,0,0,0,0,0,0,0,0,0,0,0,0,0,0,0,0,0,0,0,0,0,0,0,0,0,0,0,0,0,0,0,0,0,0
1777290496.0927868,1016,1777290490.9712586,1777290490.961212,,0,0,10.046720504760742,,1,0,0.0,0.0,0.0,0.0,0.0,0.0,0.0,0.0,0.0,0.0,0.0,0.0,0.0,0.0,0.0,0.0,0.0,0.0,0.0,0.0,0.0,0.0,0.0,0.0,0.0,0.0,0.0,680.0572509765625,580.4869384765625,1123.375244140625,931.3727416992188,598.544921875,1137.6131591796875,721.8858642578125,401.4267883300781,1156.9322509765625,882.22412109375,393.539794921875,1160.8984375,630.478515625,493.77581787109375,862.8931884765625,678.1923828125,530.949951171875,605.7725219726562,674.1400756835938,481.11566162109375,434.91326904296875,709.3995971679688,479.092529296875,236.2271728515625,781.0370483398438,389.40777587890625,161.0266876220703,741.5701904296875,653.9730224609375,184.69802856445312,1008.2435913085938,588.3777465820312,832.218505859375,973.2640991210938,601.4290771484375,618.8233032226562,979.8848876953125,518.1071166992188,518.9556274414062,931.7506103515625,396.5400085449219,344.748046875,845.0485229492188,316.1556701660156,310.87945556640625,967.0422973632812,527.6734619140625,204.95497131347656,-1.5025,8.4458,-0.8661,16.2354,-4.8218,-11.5967,88.2422,3.2904,-16.8475,0.6854,0.1223,-0.0853,0.7128,5.0244,8.1778,-1.3973,0.2441,-0.3662,-0.1221,99.7119,-31.2067,-159.8785,0.2994,0.6946,-0.6473,-0.094,-0.4929,11.4939,-12.5802,13.855,55.8472,-6.5308,158.9996,-7.1521,-18.5944,0.9703,0.1473,-0.0899,0.1696,-18.4037,-8.977,20.7771,-197.937,-56.8237,34.8511,70.8948,-2.2577,-83.6938,0.4426,0.3749,-0.5519,0.5991,6.9911,15.1115,104.1729,412.1704,-1281.0059,-562.1338,4.2133,3.5156,-0.7031,0.0366,0.0309,-0.005,0.9988,-2.7515,15.9729,-7.1969,56.7627,-70.8008,42.5415,87.9785,-2.0325,-10.3326,0.6927,0.0498,-0.077,0.7153,-0.1531,0.1292,10.9341,-12.085,6.5308,-3.0518,0.6592,-5.5316,-86.0504,0.0371,-0.0314,-0.6817,0.73,0,0,0,0,0,0,0,0,0,0,0,0,0,0,0,0,0,0,0,0,0,0,0,0,0,0,0,0,0,0,0,0,0,0,0,0
1777290496.0927868,1017,1777290490.9879913,1777290490.961212,,0,0,26.7794132232666,,1,0,0.0,0.0,0.0,0.0,0.0,0.0,0.0,0.0,0.0,0.0,0.0,0.0,0.0,0.0,0.0,0.0,0.0,0.0,0.0,0.0,0.0,0.0,0.0,0.0,0.0,0.0,0.0,679.7426147460938,579.2603759765625,1123.5013427734375,931.0573120117188,597.533935546875,1138.24267578125,721.794921875,400.3359069824219,1157.42919921875,882.1077880859375,392.51361083984375,1161.6109619140625,630.7232055664062,490.789306640625,863.0294189453125,678.5078125,525.588623046875,605.7562866210938,674.6090698242188,474.89312744140625,435.1336364746094,709.9545288085938,471.7576904296875,236.45652770996094,781.36328125,381.8291320800781,161.083251953125,741.8043823242188,646.3466796875,184.64349365234375,1008.2255859375,589.18701171875,834.332275390625,972.7459716796875,604.3599243164062,619.5796508789062,979.6075439453125,524.4180908203125,516.6221313476562,931.8377075195312,409.15545654296875,338.0255432128906,845.30224609375,330.0706481933594,300.4158935546875,968.2435913085938,545.5297241210938,203.72181701660156,-1.5025,8.4458,-0.8661,16.2354,-4.8218,-11.5967,88.2422,3.2904,-16.8475,0.6854,0.1223,-0.0853,0.7128,5.0244,8.1778,-1.3973,0.2441,-0.3662,-0.1221,99.7119,-31.2067,-159.8785,0.2994,0.6946,-0.6473,-0.094,-0.4929,11.4939,-12.5802,13.855,55.8472,-6.5308,158.9996,-7.1521,-18.5944,0.9703,0.1473,-0.0899,0.1696,-18.4037,-8.977,20.7771,-197.937,-56.8237,34.8511,70.8948,-2.2577,-83.6938,0.4426,0.3749,-0.5519,0.5991,6.9911,15.1115,104.1729,412.1704,-1281.0059,-562.1338,4.2133,3.5156,-0.7031,0.0366,0.0309,-0.005,0.9988,-2.7515,15.9729,-7.1969,56.7627,-70.8008,42.5415,87.9785,-2.0325,-10.3326,0.6927,0.0498,-0.077,0.7153,-0.1531,0.1292,10.9341,-12.085,6.5308,-3.0518,0.6592,-5.5316,-86.0504,0.0371,-0.0314,-0.6817,0.73,0,0,0,0,0,0,0,0,0,0,0,0,0,0,0,0,0,0,0,0,0,0,0,0,0,0,0,0,0,0,0,0,0,0,0,0
1777290496.0927868,1018,1777290490.9911296,1777290490.961212,,0,0,29.91771697998047,,1,0,0.0,0.0,0.0,0.0,0.0,0.0,0.0,0.0,0.0,0.0,0.0,0.0,0.0,0.0,0.0,0.0,0.0,0.0,0.0,0.0,0.0,0.0,0.0,0.0,0.0,0.0,0.0,679.4677124023438,578.0293579101562,1123.5123291015625,930.7813110351562,596.5432739257812,1138.715576171875,721.7633056640625,399.2486267089844,1157.8394775390625,882.0554809570312,391.50592041015625,1162.227783203125,631.0448608398438,487.7690734863281,863.065185546875,678.8976440429688,520.231201171875,605.6669311523438,675.15087890625,468.7113037109375,435.2757263183594,710.5948486328125,464.4572448730469,236.64385986328125,781.6959228515625,374.2015686035156,161.16339111328125,742.067626953125,638.7299194335938,184.5465087890625,1008.2125854492188,589.8003540039062,836.190673828125,972.235107421875,606.9705810546875,620.0385131835938,979.418212890625,530.6902465820312,513.933349609375,932.0294189453125,422.1498107910156,330.9939270019531,845.66943359375,344.5397644042969,289.7919921875,969.208984375,563.7041625976562,202.3731231689453,-1.5025,8.4458,-0.8661,16.2354,-4.8218,-11.5967,88.2422,3.2904,-16.8475,0.6854,0.1223,-0.0853,0.7128,5.0244,8.1778,-1.3973,0.2441,-0.3662,-0.1221,99.7119,-31.2067,-159.8785,0.2994,0.6946,-0.6473,-0.094,-0.4929,11.4939,-12.5802,13.855,55.8472,-6.5308,158.9996,-7.1521,-18.5944,0.9703,0.1473,-0.0899,0.1696,-18.4037,-8.977,20.7771,-197.937,-56.8237,34.8511,70.8948,-2.2577,-83.6938,0.4426,0.3749,-0.5519,0.5991,6.9911,15.1115,104.1729,412.1704,-1281.0059,-562.1338,4.2133,3.5156,-0.7031,0.0366,0.0309,-0.005,0.9988,-2.7515,15.9729,-7.1969,56.7627,-70.8008,42.5415,87.9785,-2.0325,-10.3326,0.6927,0.0498,-0.077,0.7153,-0.1531,0.1292,10.9341,-12.085,6.5308,-3.0518,0.6592,-5.5316,-86.0504,0.0371,-0.0314,-0.6817,0.73,0,0,0,0,0,0,0,0,0,0,0,0,0,0,0,0,0,0,0,0,0,0,0,0,0,0,0,0,0,0,0,0,0,0,0,0
1777290496.0927868,1019,1777290491.0050344,1777290490.961212,,0,0,43.822526931762695,,1,0,0.0,0.0,0.0,0.0,0.0,0.0,0.0,0.0,0.0,0.0,0.0,0.0,0.0,0.0,0.0,0.0,0.0,0.0,0.0,0.0,0.0,0.0,0.0,0.0,0.0,0.0,0.0,679.2332153320312,576.8024291992188,1123.4039306640625,930.5452880859375,595.5775756835938,1139.0247802734375,721.7872314453125,398.17242431640625,1158.158935546875,882.0634765625,390.52191162109375,1162.74169921875,631.4353637695312,484.7362365722656,862.997314453125,679.3600463867188,514.8993530273438,605.4985961914062,675.76123046875,462.58935546875,435.33624267578125,711.3195190429688,457.19683837890625,236.78985595703125,782.0271606445312,366.5334167480469,161.27957153320312,742.3583374023438,631.12744140625,184.40293884277344,1008.2113037109375,590.2147827148438,837.7725830078125,971.7412109375,609.263671875,620.1998901367188,979.3074951171875,536.919677734375,510.9411315917969,932.306396484375,435.5025329589844,323.763427734375,846.1266479492188,359.5298156738281,279.1338195800781,969.9610595703125,582.1314086914062,201.0121612548828,-1.5025,8.4458,-0.8661,16.2354,-4.8218,-11.5967,88.2422,3.2904,-16.8475,0.6854,0.1223,-0.0853,0.7128,5.0244,8.1778,-1.3973,0.2441,-0.3662,-0.1221,99.7119,-31.2067,-159.8785,0.2994,0.6946,-0.6473,-0.094,-0.4929,11.4939,-12.5802,13.855,55.8472,-6.5308,158.9996,-7.1521,-18.5944,0.9703,0.1473,-0.0899,0.1696,-18.4037,-8.977,20.7771,-197.937,-56.8237,34.8511,70.8948,-2.2577,-83.6938,0.4426,0.3749,-0.5519,0.5991,6.9911,15.1115,104.1729,412.1704,-1281.0059,-562.1338,4.2133,3.5156,-0.7031,0.0366,0.0309,-0.005,0.9988,-2.7515,15.9729,-7.1969,56.7627,-70.8008,42.5415,87.9785,-2.0325,-10.3326,0.6927,0.0498,-0.077,0.7153,-0.1531,0.1292,10.9341,-12.085,6.5308,-3.0518,0.6592,-5.5316,-86.0504,0.0371,-0.0314,-0.6817,0.73,0,0,0,0,0,0,0,0,0,0,0,0,0,0,0,0,0,0,0,0,0,0,0,0,0,0,0,0,0,0,0,0,0,0,0,0
1777290496.0927868,1020,1777290491.0082195,1777290490.961212,,0,0,47.00756072998047,,1,0,0.0,0.0,0.0,0.0,0.0,0.0,0.0,0.0,0.0,0.0,0.0,0.0,0.0,0.0,0.0,0.0,0.0,0.0,0.0,0.0,0.0,0.0,0.0,0.0,0.0,0.0,0.0,679.039794921875,575.5878295898438,1123.1746826171875,930.3499755859375,594.6412963867188,1139.166748046875,721.8632202148438,397.1147766113281,1158.3846435546875,882.12841796875,389.5667419433594,1163.1468505859375,631.884765625,481.7145080566406,862.8255004882812,679.8917846679688,509.6154479980469,605.2478637695312,676.4345092773438,456.5464782714844,435.3139953613281,712.1254272460938,449.98052978515625,236.89646911621094,782.3551025390625,358.8380432128906,161.43435668945312,742.6747436523438,623.5441284179688,184.20925903320312,1008.2286987304688,590.4307861328125,839.063232421875,971.2705688476562,611.239990234375,620.0667114257812,979.261474609375,543.0977172851562,507.69757080078125,932.6474609375,449.1875915527344,316.4390869140625,846.6497802734375,375.0018310546875,268.5469665527344,970.5208129882812,600.7470092773438,199.74082946777344,-1.5025,8.4458,-0.8661,16.2354,-4.8218,-11.5967,88.2422,3.2904,-16.8475,0.6854,0.1223,-0.0853,0.7128,5.0244,8.1778,-1.3973,0.2441,-0.3662,-0.1221,99.7119,-31.2067,-159.8785,0.2994,0.6946,-0.6473,-0.094,-0.4929,11.4939,-12.5802,13.855,55.8472,-6.5308,158.9996,-7.1521,-18.5944,0.9703,0.1473,-0.0899,0.1696,-18.4037,-8.977,20.7771,-197.937,-56.8237,34.8511,70.8948,-2.2577,-83.6938,0.4426,0.3749,-0.5519,0.5991,6.9911,15.1115,104.1729,412.1704,-1281.0059,-562.1338,4.2133,3.5156,-0.7031,0.0366,0.0309,-0.005,0.9988,-2.7515,15.9729,-7.1969,56.7627,-70.8008,42.5415,87.9785,-2.0325,-10.3326,0.6927,0.0498,-0.077,0.7153,-0.1531,0.1292,10.9341,-12.085,6.5308,-3.0518,0.6592,-5.5316,-86.0504,0.0371,-0.0314,-0.6817,0.73,0,0,0,0,0,0,0,0,0,0,0,0,0,0,0,0,0,0,0,0,0,0,0,0,0,0,0,0,0,0,0,0,0,0,0,0
1777290496.0927868,1021,1777290491.0229716,1777290491.0229716,,0,0,0.0,,1,0,0.0,0.0,0.0,0.0,0.0,0.0,0.0,0.0,0.0,0.0,0.0,0.0,0.0,0.0,0.0,0.0,0.0,0.0,0.0,0.0,0.0,0.0,0.0,0.0,0.0,0.0,0.0,678.8880004882812,574.3941040039062,1122.825927734375,930.1962890625,593.7389526367188,1139.1414794921875,721.98828125,396.0832214355469,1158.5142822265625,882.2468872070312,388.64532470703125,1163.4383544921875,632.3818359375,478.72900390625,862.5521850585938,680.4888305664062,504.40155029296875,604.9139404296875,677.16455078125,450.6004638671875,435.2100830078125,713.0068359375,442.8102722167969,236.9666290283203,782.6826782226562,351.13116455078125,161.6216583251953,743.0151977539062,615.9849243164062,183.96304321289062,1008.2718505859375,590.4525146484375,840.053955078125,970.82666015625,612.8993530273438,619.6450805664062,979.2636108398438,549.2113647460938,504.25372314453125,933.03076171875,463.1729431152344,309.1199035644531,847.2094116210938,390.9137878417969,258.1157531738281,970.9078369140625,619.4847412109375,198.65679931640625,-1.5025,8.4458,-0.8661,16.2354,-4.8218,-11.5967,88.2422,3.2904,-16.8475,0.6854,0.1223,-0.0853,0.7128,5.0292,8.1778,-1.4021,0.1221,-0.3662,-0.061,99.7119,-31.2067,-159.8785,0.2994,0.6946,-0.6473,-0.094,-0.4929,11.4939,-12.5802,13.855,55.8472,-6.5308,158.9996,-7.1521,-18.5944,0.9703,0.1473,-0.0899,0.1696,-18.4037,-8.977,20.7771,-197.937,-56.8237,34.8511,70.8948,-2.2577,-83.6938,0.4426,0.3749,-0.5519,0.5991,6.9911,15.1115,104.1729,412.1704,-1281.0059,-562.1338,4.2133,3.5156,-0.7031,0.0366,0.0309,-0.005,0.9988,-2.7515,15.9729,-7.1969,56.7627,-70.8008,42.5415,87.9785,-2.0325,-10.3326,0.6927,0.0498,-0.077,0.7153,-0.1531,0.1292,10.9341,-12.085,6.5308,-3.0518,0.6592,-5.5316,-86.0504,0.0371,-0.0314,-0.6817,0.73,0,0,0,0,0,0,0,0,0,0,0,0,0,0,0,0,0,0,0,0,0,0,0,0,0,0,0,0,0,0,0,0,0,0,0,0
1777290496.0927868,1022,1777290491.0371363,1777290491.0229716,,0,0,14.16468620300293,,1,0,0.0,0.0,0.0,0.0,0.0,0.0,0.0,0.0,0.0,0.0,0.0,0.0,0.0,0.0,0.0,0.0,0.0,0.0,0.0,0.0,0.0,0.0,0.0,0.0,0.0,0.0,0.0,678.778564453125,573.2301025390625,1122.3621826171875,930.0858154296875,592.87451171875,1138.95263671875,722.1594848632812,395.0856018066406,1158.5465087890625,882.4157104492188,387.7625732421875,1163.612548828125,632.91455078125,475.80487060546875,862.1820678710938,681.145751953125,499.2781677246094,604.498779296875,677.9446411132812,444.76605224609375,435.028076171875,713.955078125,435.6853332519531,237.0041046142578,783.0156860351562,343.4281005859375,161.830322265625,743.3787231445312,608.4534301757812,183.66387939453125,1008.3472900390625,590.2874145507812,840.741943359375,970.409912109375,614.2418212890625,618.944091796875,979.2965087890625,555.2438354492188,500.6588439941406,933.4348754882812,477.4195556640625,301.89776611328125,847.7692260742188,407.2210998535156,247.9075469970703,971.1399536132812,638.27392578125,197.84886169433594,-1.5025,8.4458,-0.8661,16.2354,-4.8218,-11.5967,88.2422,3.2904,-16.8475,0.6854,0.1223,-0.0853,0.7128,5.0292,8.1778,-1.4021,0.1221,-0.3662,-0.061,99.7119,-31.2067,-159.8785,0.2994,0.6946,-0.6473,-0.094,-0.4929,11.4939,-12.5802,13.855,55.8472,-6.5308,158.9996,-7.1521,-18.5944,0.9703,0.1473,-0.0899,0.1696,-18.4037,-8.977,20.7771,-197.937,-56.8237,34.8511,70.8948,-2.2577,-83.6938,0.4426,0.3749,-0.5519,0.5991,6.9911,15.1115,104.1729,412.1704,-1281.0059,-562.1338,4.2133,3.5156,-0.7031,0.0366,0.0309,-0.005,0.9988,-2.7515,15.9729,-7.1969,56.7627,-70.8008,42.5415,87.9785,-2.0325,-10.3326,0.6927,0.0498,-0.077,0.7153,-0.1531,0.1292,10.9341,-12.085,6.5308,-3.0518,0.6592,-5.5316,-86.0504,0.0371,-0.0314,-0.6817,0.73,0,0,0,0,0,0,0,0,0,0,0,0,0,0,0,0,0,0,0,0,0,0,0,0,0,0,0,0,0,0,0,0,0,0,0,0
1777290496.0927868,1023,1777290491.0410676,1777290491.0229716,,0,0,18.095970153808594,,1,0,0.0,0.0,0.0,0.0,0.0,0.0,0.0,0.0,0.0,0.0,0.0,0.0,0.0,0.0,0.0,0.0,0.0,0.0,0.0,0.0,0.0,0.0,0.0,0.0,0.0,0.0,0.0,678.712646484375,572.1052856445312,1121.7904052734375,930.0206909179688,592.0518798828125,1138.6068115234375,722.3743896484375,394.13006591796875,1158.48095703125,882.631591796875,386.92352294921875,1163.66748046875,633.4707641601562,472.96624755859375,861.7223510742188,681.85546875,494.2632141113281,604.00732421875,678.7676391601562,439.0530700683594,434.77484130859375,714.957763671875,428.60186767578125,237.013671875,783.3599853515625,335.740966796875,162.04808044433594,743.7637329101562,600.950927734375,183.3142547607422,1008.460693359375,589.945556640625,841.1292724609375,970.0183715820312,615.268310546875,617.9754028320312,979.34375,561.1754760742188,496.95941162109375,933.839599609375,491.8807067871094,294.85687255859375,848.288818359375,423.8746337890625,237.98098754882812,971.2327880859375,657.0371704101562,197.3921356201172,-1.5025,8.4458,-0.8661,16.2354,-4.8218,-11.5967,88.2422,3.2904,-16.8475,0.6854,0.1223,-0.0853,0.7128,5.0292,8.1778,-1.4021,0.1221,-0.3662,-0.061,99.7119,-31.2067,-159.8785,0.2994,0.6946,-0.6473,-0.094,-0.4929,11.4939,-12.5802,13.855,55.8472,-6.5308,158.9996,-7.1521,-18.5944,0.9703,0.1473,-0.0899,0.1696,-18.4037,-8.977,20.7771,-197.937,-56.8237,34.8511,70.8948,-2.2577,-83.6938,0.4426,0.3749,-0.5519,0.5991,6.9911,15.1115,104.1729,412.1704,-1281.0059,-562.1338,4.2133,3.5156,-0.7031,0.0366,0.0309,-0.005,0.9988,-2.7515,15.9729,-7.1969,56.7627,-70.8008,42.5415,87.9785,-2.0325,-10.3326,0.6927,0.0498,-0.077,0.7153,-0.1531,0.1292,10.9341,-12.085,6.5308,-3.0518,0.6592,-5.5316,-86.0504,0.0371,-0.0314,-0.6817,0.73,0,0,0,0,0,0,0,0,0,0,0,0,0,0,0,0,0,0,0,0,0,0,0,0,0,0,0,0,0,0,0,0,0,0,0,0
1777290496.0927868,1024,1777290491.0556843,1777290491.0229716,,0,0,32.712697982788086,,1,0,0.0,0.0,0.0,0.0,0.0,0.0,0.0,0.0,0.0,0.0,0.0,0.0,0.0,0.0,0.0,0.0,0.0,0.0,0.0,0.0,0.0,0.0,0.0,0.0,0.0,0.0,0.0,678.6918334960938,571.0299682617188,1121.1197509765625,930.0037231445312,591.2743530273438,1138.1129150390625,722.6306762695312,393.2254333496094,1158.31787109375,882.8916625976562,386.1331481933594,1163.6019287109375,634.0387573242188,470.2355041503906,861.1823120117188,682.609130859375,489.3710021972656,603.4476928710938,679.6256713867188,433.4645690917969,434.4612731933594,715.9984741210938,421.5530090332031,237.00148010253906,783.7200317382812,328.07666015625,162.26513671875,744.167724609375,593.4752807617188,182.92025756835938,1008.6162719726562,589.4393920898438,841.2224731445312,969.6480712890625,615.9821166992188,616.7537231445312,979.39111328125,566.98388671875,493.1988525390625,934.2264404296875,506.5010681152344,288.0728759765625,848.7308959960938,440.815185546875,228.3948974609375,971.1984252929688,675.6900024414062,197.34458923339844,-1.5025,8.4458,-0.8661,16.2354,-4.8218,-11.5967,88.2422,3.2904,-16.8475,0.6854,0.1223,-0.0853,0.7128,5.0292,8.1778,-1.4021,0.1221,-0.3662,-0.061,99.7119,-31.2067,-159.8785,0.2994,0.6946,-0.6473,-0.094,-0.4929,11.4939,-12.5802,13.855,55.8472,-6.5308,158.9996,-7.1521,-18.5944,0.9703,0.1473,-0.0899,0.1696,-18.4037,-8.977,20.7771,-197.937,-56.8237,34.8511,70.8948,-2.2577,-83.6938,0.4426,0.3749,-0.5519,0.5991,6.9911,15.1115,104.1729,412.1704,-1281.0059,-562.1338,4.2133,3.5156,-0.7031,0.0366,0.0309,-0.005,0.9988,-2.7515,15.9729,-7.1969,56.7627,-70.8008,42.5415,87.9785,-2.0325,-10.3326,0.6927,0.0498,-0.077,0.7153,-0.1531,0.1292,10.9341,-12.085,6.5308,-3.0518,0.6592,-5.5316,-86.0504,0.0371,-0.0314,-0.6817,0.73,0,0,0,0,0,0,0,0,0,0,0,0,0,0,0,0,0,0,0,0,0,0,0,0,0,0,0,0,0,0,0,0,0,0,0,0
1777290496.0927868,1025,1777290491.0600255,1777290491.0229716,,0,0,37.053823471069336,,1,0,0.0,0.0,0.0,0.0,0.0,0.0,0.0,0.0,0.0,0.0,0.0,0.0,0.0,0.0,0.0,0.0,0.0,0.0,0.0,0.0,0.0,0.0,0.0,0.0,0.0,0.0,0.0,678.718505859375,570.0154418945312,1120.361083984375,930.0387573242188,590.5450439453125,1137.4820556640625,722.9261474609375,392.38104248046875,1158.058837890625,883.1928100585938,385.39678955078125,1163.4161376953125,634.607177734375,467.6328430175781,860.5735473632812,683.39599609375,484.61126708984375,602.8313598632812,680.509521484375,427.99560546875,434.102783203125,717.0570678710938,414.5289306640625,236.9754180908203,784.0966796875,320.4367370605469,162.47625732421875,744.586181640625,586.0205078125,182.4918975830078,1008.81689453125,588.78271484375,841.031494140625,969.2930297851562,616.3889770507812,615.2962646484375,979.4266357421875,572.6448974609375,489.4169921875,934.5791625976562,521.215576171875,281.6123962402344,849.0701904296875,457.9664001464844,219.21458435058594,971.0426025390625,694.1424560546875,197.74549865722656,-1.5025,8.4458,-0.8661,16.2354,-4.8218,-11.5967,88.2422,3.2904,-16.8475,0.6854,0.1223,-0.0853,0.7128,5.0292,8.1778,-1.4021,0.1221,-0.3662,-0.061,99.7119,-31.2067,-159.8785,0.2994,0.6946,-0.6473,-0.094,-0.4929,11.4939,-12.5802,13.855,55.8472,-6.5308,158.9996,-7.1521,-18.5944,0.9703,0.1473,-0.0899,0.1696,-18.4037,-8.977,20.7771,-197.937,-56.8237,34.8511,70.8948,-2.2577,-83.6938,0.4426,0.3749,-0.5519,0.5991,6.9911,15.1115,104.1729,412.1704,-1281.0059,-562.1338,4.2133,3.5156,-0.7031,0.0366,0.0309,-0.005,0.9988,-2.7515,15.9729,-7.1969,56.7627,-70.8008,42.5415,87.9785,-2.0325,-10.3326,0.6927,0.0498,-0.077,0.7153,-0.1531,0.1292,10.9341,-12.085,6.5308,-3.0518,0.6592,-5.5316,-86.0504,0.0371,-0.0314,-0.6817,0.73,0,0,0,0,0,0,0,0,0,0,0,0,0,0,0,0,0,0,0,0,0,0,0,0,0,0,0,0,0,0,0,0,0,0,0,0
1777290496.0927868,1026,1777290491.0725791,1777290491.0725791,,0,0,0.0,,1,0,0.0,0.0,0.0,0.0,0.0,0.0,0.0,0.0,0.0,0.0,0.0,0.0,0.0,0.0,0.0,0.0,0.0,0.0,0.0,0.0,0.0,0.0,0.0,0.0,0.0,0.0,0.0,678.795654296875,569.0741577148438,1119.5264892578125,930.1302490234375,589.8668212890625,1136.7265625,723.2586059570312,391.6070556640625,1157.706298828125,883.5320434570312,384.7200012207031,1163.111328125,635.1656494140625,465.1761169433594,859.90966796875,684.2032470703125,479.9886169433594,602.1732177734375,681.4083862304688,422.6332092285156,433.7196044921875,718.110107421875,407.5179443359375,236.94566345214844,784.4860229492188,312.818359375,162.68109130859375,745.0131225585938,578.577392578125,182.0425567626953,1009.0636596679688,587.9907836914062,840.5687866210938,968.9453735351562,616.4984741210938,613.6227416992188,979.4402465820312,578.13232421875,485.6504211425781,934.8836059570312,535.9478759765625,275.5328369140625,849.3003540039062,475.229248046875,210.51260375976562,970.7621459960938,712.3009033203125,198.6160430908203,-1.5025,8.4458,-0.8661,16.2354,-4.8218,-11.5967,88.2422,3.2904,-16.8475,0.6854,0.1223,-0.0853,0.7128,5.0244,8.1826,-1.4021,0.1221,-0.4272,-0.1221,99.7119,-31.2067,-159.8785,0.2994,0.6946,-0.6473,-0.094,-0.4929,11.4939,-12.5802,13.855,55.8472,-6.5308,158.9996,-7.1521,-18.5944,0.9703,0.1473,-0.0899,0.1696,-18.4037,-8.977,20.7771,-197.937,-56.8237,34.8511,70.8948,-2.2577,-83.6938,0.4426,0.3749,-0.5519,0.5991,6.9911,15.1115,104.1729,412.1704,-1281.0059,-562.1338,4.2133,3.5156,-0.7031,0.0366,0.0309,-0.005,0.9988,-2.7515,15.9729,-7.1969,56.7627,-70.8008,42.5415,87.9785,-2.0325,-10.3326,0.6927,0.0498,-0.077,0.7153,-0.1531,0.1292,10.9341,-12.085,6.5308,-3.0518,0.6592,-5.5316,-86.0504,0.0371,-0.0314,-0.6817,0.73,0,0,0,0,0,0,0,0,0,0,0,0,0,0,0,0,0,0,0,0,0,0,0,0,0,0,0,0,0,0,0,0,0,0,0,0
1777290496.0927868,1027,1777290491.0752628,1777290491.0725791,,0,0,2.6836395263671875,,1,0,0.0,0.0,0.0,0.0,0.0,0.0,0.0,0.0,0.0,0.0,0.0,0.0,0.0,0.0,0.0,0.0,0.0,0.0,0.0,0.0,0.0,0.0,0.0,0.0,0.0,0.0,0.0,678.9271240234375,568.2196044921875,1118.6290283203125,930.2835083007812,589.2425537109375,1135.859375,723.6260986328125,390.9143981933594,1157.26318359375,883.9066162109375,384.10870361328125,1162.6900634765625,635.7047119140625,462.8809814453125,859.206298828125,685.0167846679688,475.5025939941406,601.4916381835938,682.3094482421875,417.3575744628906,433.33624267578125,719.1328125,400.50775146484375,236.92486572265625,784.87890625,305.21600341796875,162.88368225097656,745.4407348632812,571.135009765625,181.58778381347656,1009.35595703125,587.0792236328125,839.8488159179688,968.595703125,616.323974609375,611.7553100585938,979.4222412109375,583.4182739257812,481.9325256347656,935.1278686523438,550.609130859375,269.88177490234375,849.4335327148438,492.4805908203125,202.36402893066406,970.3446655273438,730.0696411132812,199.96200561523438,-1.5025,8.4458,-0.8661,16.2354,-4.8218,-11.5967,88.2422,3.2904,-16.8475,0.6854,0.1223,-0.0853,0.7128,5.0244,8.1826,-1.4021,0.1221,-0.4272,-0.1221,99.7119,-31.2067,-159.8785,0.2994,0.6946,-0.6473,-0.094,-0.4929,11.4939,-12.5802,13.855,55.8472,-6.5308,158.9996,-7.1521,-18.5944,0.9703,0.1473,-0.0899,0.1696,-18.4037,-8.977,20.7771,-197.937,-56.8237,34.8511,70.8948,-2.2577,-83.6938,0.4426,0.3749,-0.5519,0.5991,6.9911,15.1115,104.1729,412.1704,-1281.0059,-562.1338,4.2133,3.5156,-0.7031,0.0366,0.0309,-0.005,0.9988,-2.7515,15.9729,-7.1969,56.7627,-70.8008,42.5415,87.9785,-2.0325,-10.3326,0.6927,0.0498,-0.077,0.7153,-0.1531,0.1292,10.9341,-12.085,6.5308,-3.0518,0.6592,-5.5316,-86.0504,0.0371,-0.0314,-0.6817,0.73,0,0,0,0,0,0,0,0,0,0,0,0,0,0,0,0,0,0,0,0,0,0,0,0,0,0,0,0,0,0,0,0,0,0,0,0
1777290496.0927868,1028,1777290491.0884645,1777290491.0725791,,0,0,15.885353088378906,,1,0,0.0,0.0,0.0,0.0,0.0,0.0,0.0,0.0,0.0,0.0,0.0,0.0,0.0,0.0,0.0,0.0,0.0,0.0,0.0,0.0,0.0,0.0,0.0,0.0,0.0,0.0,0.0,679.1173095703125,567.4664916992188,1117.68212890625,930.5045166015625,588.6751708984375,1134.8939208984375,724.026611328125,390.3145751953125,1156.73388671875,884.3136596679688,383.5693359375,1162.1556396484375,636.2157592773438,460.7610778808594,858.4806518554688,685.8214721679688,471.1478271484375,600.8078002929688,683.19873046875,412.14471435546875,432.98028564453125,720.1015014648438,393.4874267578125,236.92803955078125,785.2628173828125,297.6232604980469,163.0910186767578,745.8605346679688,563.6825561523438,181.1434783935547,1009.691650390625,586.0643920898438,838.887451171875,968.2329711914062,615.8833618164062,609.7185668945312,979.3624877929688,588.4730224609375,478.293701171875,935.3013305664062,565.0969848632812,264.6965637207031,849.493896484375,509.5775451660156,194.838134765625,969.7701416015625,747.3516845703125,201.7766571044922,-1.5025,8.4458,-0.8661,16.2354,-4.8218,-11.5967,88.2422,3.2904,-16.8475,0.6854,0.1223,-0.0853,0.7128,5.0244,8.1826,-1.4021,0.1221,-0.4272,-0.1221,99.7119,-31.2067,-159.8785,0.2994,0.6946,-0.6473,-0.094,-0.4929,11.4939,-12.5802,13.855,55.8472,-6.5308,158.9996,-7.1521,-18.5944,0.9703,0.1473,-0.0899,0.1696,-18.4037,-8.977,20.7771,-197.937,-56.8237,34.8511,70.8948,-2.2577,-83.6938,0.4426,0.3749,-0.5519,0.5991,6.9911,15.1115,104.1729,412.1704,-1281.0059,-562.1338,4.2133,3.5156,-0.7031,0.0366,0.0309,-0.005,0.9988,-2.7515,15.9729,-7.1969,56.7627,-70.8008,42.5415,87.9785,-2.0325,-10.3326,0.6927,0.0498,-0.077,0.7153,-0.1531,0.1292,10.9341,-12.085,6.5308,-3.0518,0.6592,-5.5316,-86.0504,0.0371,-0.0314,-0.6817,0.73,0,0,0,0,0,0,0,0,0,0,0,0,0,0,0,0,0,0,0,0,0,0,0,0,0,0,0,0,0,0,0,0,0,0,0,0
1777290496.0927868,1029,1777290491.1051378,1777290491.0725791,,0,0,32.55867958068848,,1,0,0.0,0.0,0.0,0.0,0.0,0.0,0.0,0.0,0.0,0.0,0.0,0.0,0.0,0.0,0.0,0.0,0.0,0.0,0.0,0.0,0.0,0.0,0.0,0.0,0.0,0.0,0.0,679.3711547851562,566.830322265625,1116.6990966796875,930.7997436523438,588.1680297851562,1133.84326171875,724.4583129882812,389.8198547363281,1156.123046875,884.7505493164062,383.108642578125,1161.5123291015625,636.6915893554688,458.8283996582031,857.750732421875,686.6029663085938,466.91510009765625,600.1445922851562,684.0621337890625,406.9696044921875,432.6805114746094,720.9968872070312,386.44891357421875,236.97171020507812,785.62451171875,290.0341796875,163.31077575683594,746.2635498046875,556.2119750976562,180.72378540039062,1010.0671997070312,584.9629516601562,837.7012939453125,967.8450317382812,615.1990966796875,607.538818359375,979.24951171875,593.2655639648438,474.7613525390625,935.3934936523438,579.2953491210938,260.0030822753906,849.5062866210938,526.3646850585938,187.99072265625,969.0136108398438,764.048583984375,204.0421905517578,-1.5025,8.4458,-0.8661,16.2354,-4.8218,-11.5967,88.2422,3.2904,-16.8475,0.6854,0.1223,-0.0853,0.7128,5.0244,8.1826,-1.4021,0.1221,-0.4272,-0.1221,99.7119,-31.2067,-159.8785,0.2994,0.6946,-0.6473,-0.094,-0.4929,11.4939,-12.5802,13.855,55.8472,-6.5308,158.9996,-7.1521,-18.5944,0.9703,0.1473,-0.0899,0.1696,-18.4037,-8.977,20.7771,-197.937,-56.8237,34.8511,70.8948,-2.2577,-83.6938,0.4426,0.3749,-0.5519,0.5991,6.9911,15.1115,104.1729,412.1704,-1281.0059,-562.1338,4.2133,3.5156,-0.7031,0.0366,0.0309,-0.005,0.9988,-2.7515,15.9729,-7.1969,56.7627,-70.8008,42.5415,87.9785,-2.0325,-10.3326,0.6927,0.0498,-0.077,0.7153,-0.1531,0.1292,10.9341,-12.085,6.5308,-3.0518,0.6592,-5.5316,-86.0504,0.0371,-0.0314,-0.6817,0.73,0,0,0,0,0,0,0,0,0,0,0,0,0,0,0,0,0,0,0,0,0,0,0,0,0,0,0,0,0,0,0,0,0,0,0,0
1777290496.0927868,1030,1777290491.1075263,1777290491.0725791,,0,0,34.94715690612793,,1,0,0.0,0.0,0.0,0.0,0.0,0.0,0.0,0.0,0.0,0.0,0.0,0.0,0.0,0.0,0.0,0.0,0.0,0.0,0.0,0.0,0.0,0.0,0.0,0.0,0.0,0.0,0.0,679.6939697265625,566.327392578125,1115.6929931640625,931.1759643554688,587.7247924804688,1132.719482421875,724.9194946289062,389.4427490234375,1155.4364013671875,885.2149047851562,382.7338562011719,1160.7657470703125,637.1263427734375,457.0935363769531,857.0344848632812,687.3489379882812,462.7927551269531,599.5250854492188,684.8877563476562,401.80975341796875,432.46435546875,721.806884765625,379.3880920410156,237.07269287109375,785.9544067382812,282.4443054199219,163.5484619140625,746.642822265625,548.7191772460938,180.33932495117188,1010.47802734375,583.7919311523438,836.3079833984375,967.4190063476562,614.29833984375,605.2440795898438,979.070068359375,597.7642211914062,471.3592224121094,935.3926391601562,593.0753784179688,255.8145294189453,849.4866943359375,542.6796875,181.86016845703125,968.046142578125,780.0595703125,206.72793579101562,-1.5025,8.4458,-0.8661,16.2354,-4.8218,-11.5967,88.2422,3.2904,-16.8475,0.6854,0.1223,-0.0853,0.7128,5.0244,8.1826,-1.4021,0.1221,-0.4272,-0.1221,99.7119,-31.2067,-159.8785,0.2994,0.6946,-0.6473,-0.094,-0.4929,11.4939,-12.5802,13.855,55.8472,-6.5308,158.9996,-7.1521,-18.5944,0.9703,0.1473,-0.0899,0.1696,-18.4037,-8.977,20.7771,-197.937,-56.8237,34.8511,70.8948,-2.2577,-83.6938,0.4426,0.3749,-0.5519,0.5991,6.9911,15.1115,104.1729,412.1704,-1281.0059,-562.1338,4.2133,3.5156,-0.7031,0.0366,0.0309,-0.005,0.9988,-2.7515,15.9729,-7.1969,56.7627,-70.8008,42.5415,87.9785,-2.0325,-10.3326,0.6927,0.0498,-0.077,0.7153,-0.1531,0.1292,10.9341,-12.085,6.5308,-3.0518,0.6592,-5.5316,-86.0504,0.0371,-0.0314,-0.6817,0.73,0,0,0,0,0,0,0,0,0,0,0,0,0,0,0,0,0,0,0,0,0,0,0,0,0,0,0,0,0,0,0,0,0,0,0,0
1777290496.0927868,1031,1777290491.1215038,1777290491.0725791,,0,0,48.92468452453613,,1,0,0.0,0.0,0.0,0.0,0.0,0.0,0.0,0.0,0.0,0.0,0.0,0.0,0.0,0.0,0.0,0.0,0.0,0.0,0.0,0.0,0.0,0.0,0.0,0.0,0.0,0.0,0.0,680.0911254882812,565.97412109375,1114.6763916015625,931.6396484375,587.349853515625,1131.5345458984375,725.4083862304688,389.1961364746094,1154.6798095703125,885.7044677734375,382.4524841308594,1159.9219970703125,637.5160522460938,455.5660095214844,856.3485717773438,688.0503540039062,458.7687683105469,598.9710083007812,685.6674194335938,396.6476745605469,432.35540771484375,722.5284423828125,372.304931640625,237.2467041015625,786.2501831054688,274.8508605957031,163.80526733398438,746.9947509765625,541.20458984375,179.99624633789062,1010.9183959960938,582.5692749023438,834.7256469726562,966.9423828125,613.2130126953125,602.8632202148438,978.8095703125,601.937744140625,468.10675048828125,935.2839965820312,606.2976684570312,252.12966918945312,849.4359130859375,558.3558959960938,176.46705627441406,966.834228515625,795.2804565429688,209.7853240966797,-1.5025,8.4458,-0.8661,16.2354,-4.8218,-11.5967,88.2422,3.2904,-16.8475,0.6854,0.1223,-0.0853,0.7128,5.0244,8.1826,-1.4021,0.1221,-0.4272,-0.1221,99.7119,-31.2067,-159.8785,0.2994,0.6946,-0.6473,-0.094,-0.4929,11.4939,-12.5802,13.855,55.8472,-6.5308,158.9996,-7.1521,-18.5944,0.9703,0.1473,-0.0899,0.1696,-18.4037,-8.977,20.7771,-197.937,-56.8237,34.8511,70.8948,-2.2577,-83.6938,0.4426,0.3749,-0.5519,0.5991,6.9911,15.1115,104.1729,412.1704,-1281.0059,-562.1338,4.2133,3.5156,-0.7031,0.0366,0.0309,-0.005,0.9988,-2.7515,15.9729,-7.1969,56.7627,-70.8008,42.5415,87.9785,-2.0325,-10.3326,0.6927,0.0498,-0.077,0.7153,-0.1531,0.1292,10.9341,-12.085,6.5308,-3.0518,0.6592,-5.5316,-86.0504,0.0371,-0.0314,-0.6817,0.73,0,0,0,0,0,0,0,0,0,0,0,0,0,0,0,0,0,0,0,0,0,0,0,0,0,0,0,0,0,0,0,0,0,0,0,0
1777290496.0938206,1032,1777290491.1238995,1777290491.0725791,,0,0,51.32031440734863,,1,0,0.0,0.0,0.0,0.0,0.0,0.0,0.0,0.0,0.0,0.0,0.0,0.0,0.0,0.0,0.0,0.0,0.0,0.0,0.0,0.0,0.0,0.0,0.0,0.0,0.0,0.0,0.0,680.5678100585938,565.7869262695312,1113.66064453125,932.1971435546875,587.0484619140625,1130.298583984375,725.923583984375,389.0927429199219,1153.85986328125,886.2171630859375,382.2722473144531,1158.9881591796875,637.8585205078125,454.25445556640625,855.7071533203125,688.7028198242188,454.8330078125,598.5006103515625,686.3982543945312,391.4724426269531,432.37164306640625,723.1671142578125,365.202880859375,237.50718688964844,786.5186157226562,267.25311279296875,164.0781707763672,747.3197021484375,533.6725463867188,179.69630432128906,1011.3815307617188,581.3138427734375,832.9734497070312,966.403564453125,611.9791870117188,600.4248046875,978.452392578125,605.7568969726562,465.01776123046875,935.0484619140625,618.8159790039062,248.93154907226562,849.3385009765625,573.221923828125,171.8155059814453,965.3385009765625,809.6041259765625,213.14102172851562,-1.5025,8.4458,-0.8661,16.2354,-4.8218,-11.5967,88.2422,3.2904,-16.8475,0.6854,0.1223,-0.0853,0.7128,5.0244,8.1826,-1.4021,0.1221,-0.4272,-0.1221,99.7119,-31.2067,-159.8785,0.2994,0.6946,-0.6473,-0.094,-0.4929,11.4939,-12.5802,13.855,55.8472,-6.5308,158.9996,-7.1521,-18.5944,0.9703,0.1473,-0.0899,0.1696,-18.4037,-8.977,20.7771,-197.937,-56.8237,34.8511,70.8948,-2.2577,-83.6938,0.4426,0.3749,-0.5519,0.5991,6.9911,15.1115,104.1729,412.1704,-1281.0059,-562.1338,4.2133,3.5156,-0.7031,0.0366,0.0309,-0.005,0.9988,-2.7515,15.9729,-7.1969,56.7627,-70.8008,42.5415,87.9785,-2.0325,-10.3326,0.6927,0.0498,-0.077,0.7153,-0.1531,0.1292,10.9341,-12.085,6.5308,-3.0518,0.6592,-5.5316,-86.0504,0.0371,-0.0314,-0.6817,0.73,0,0,0,0,0,0,0,0,0,0,0,0,0,0,0,0,0,0,0,0,0,0,0,0,0,0,0,0,0,0,0,0,0,0,0,0
1777290496.0938206,1033,1777290491.1401663,1777290491.1401663,,0,0,0.0,,1,0,0.0,0.0,0.0,0.0,0.0,0.0,0.0,0.0,0.0,0.0,0.0,0.0,0.0,0.0,0.0,0.0,0.0,0.0,0.0,0.0,0.0,0.0,0.0,0.0,0.0,0.0,0.0,681.1287231445312,565.78173828125,1112.656005859375,932.8538818359375,586.8263549804688,1129.021240234375,726.4635620117188,389.1448669433594,1152.9830322265625,886.751220703125,382.2008361816406,1157.97216796875,638.154052734375,453.16705322265625,855.1210327148438,689.3065795898438,450.9792785644531,598.1275024414062,687.0825805664062,386.2801513671875,432.52423095703125,723.7354736328125,358.0881042480469,237.8645477294922,786.7752685546875,259.6524658203125,164.36265563964844,747.6209106445312,526.13037109375,179.4373779296875,1011.8597412109375,580.0460205078125,831.0714721679688,965.792724609375,610.6363525390625,597.9564819335938,977.9828491210938,609.1957397460938,462.0995178222656,934.662353515625,630.481201171875,246.1865692138672,849.165283203125,587.1004638671875,167.89425659179688,963.512451171875,822.9208984375,216.69046020507812,-1.5025,8.4458,-0.8661,16.2354,-4.8218,-11.5967,88.2422,3.2904,-16.8475,0.6854,0.1223,-0.0853,0.7128,5.0244,8.1874,-1.3925,0.1831,-0.4272,-0.061,99.7119,-31.2067,-159.8785,0.2994,0.6946,-0.6473,-0.094,-0.4929,11.4939,-12.5802,13.855,55.8472,-6.5308,158.9996,-7.1521,-18.5944,0.9703,0.1473,-0.0899,0.1696,-18.4037,-8.977,20.7771,-197.937,-56.8237,34.8511,70.8948,-2.2577,-83.6938,0.4426,0.3749,-0.5519,0.5991,6.9911,15.1115,104.1729,412.1704,-1281.0059,-562.1338,4.2133,3.5156,-0.7031,0.0366,0.0309,-0.005,0.9988,-2.7515,15.9729,-7.1969,56.7627,-70.8008,42.5415,87.9785,-2.0325,-10.3326,0.6927,0.0498,-0.077,0.7153,-0.1531,0.1292,10.9341,-12.085,6.5308,-3.0518,0.6592,-5.5316,-86.0504,0.0371,-0.0314,-0.6817,0.73,0,0,0,0,0,0,0,0,0,0,0,0,0,0,0,0,0,0,0,0,0,0,0,0,0,0,0,0,0,0,0,0,0,0,0,0
1777290496.0938206,1034,1777290491.1556523,1777290491.1401663,,0,0,15.486001968383789,,1,0,0.0,0.0,0.0,0.0,0.0,0.0,0.0,0.0,0.0,0.0,0.0,0.0,0.0,0.0,0.0,0.0,0.0,0.0,0.0,0.0,0.0,0.0,0.0,0.0,0.0,0.0,0.0,681.7778930664062,565.9732055664062,1111.671142578125,933.6142578125,586.6902465820312,1127.7108154296875,727.027099609375,389.36407470703125,1152.0562744140625,887.3052368164062,382.2456970214844,1156.8828125,638.4046630859375,452.31158447265625,854.5968017578125,689.8661499023438,447.20745849609375,597.8596801757812,687.7259521484375,381.0736389160156,432.81768798828125,724.2496337890625,350.9686584472656,238.3260040283203,787.0409545898438,252.05238342285156,164.65721130371094,747.9031982421875,518.5873413085938,179.21470642089844,1012.3441772460938,578.7879638671875,829.0409545898438,965.1026000976562,609.226318359375,595.4835815429688,977.3860473632812,612.2327880859375,459.35198974609375,934.0977783203125,641.1475830078125,243.8448028564453,848.8796997070312,599.8084716796875,164.6767578125,961.3026733398438,835.121337890625,220.2946319580078,-1.5025,8.4458,-0.8661,16.2354,-4.8218,-11.5967,88.2422,3.2904,-16.8475,0.6854,0.1223,-0.0853,0.7128,5.0244,8.1874,-1.3925,0.1831,-0.4272,-0.061,99.7119,-31.2067,-159.8785,0.2994,0.6946,-0.6473,-0.094,-0.4929,11.4939,-12.5802,13.855,55.8472,-6.5308,158.9996,-7.1521,-18.5944,0.9703,0.1473,-0.0899,0.1696,-18.4037,-8.977,20.7771,-197.937,-56.8237,34.8511,70.8948,-2.2577,-83.6938,0.4426,0.3749,-0.5519,0.5991,6.9911,15.1115,104.1729,412.1704,-1281.0059,-562.1338,4.2133,3.5156,-0.7031,0.0366,0.0309,-0.005,0.9988,-2.7515,15.9729,-7.1969,56.7627,-70.8008,42.5415,87.9785,-2.0325,-10.3326,0.6927,0.0498,-0.077,0.7153,-0.1531,0.1292,10.9341,-12.085,6.5308,-3.0518,0.6592,-5.5316,-86.0504,0.0371,-0.0314,-0.6817,0.73,0,0,0,0,0,0,0,0,0,0,0,0,0,0,0,0,0,0,0,0,0,0,0,0,0,0,0,0,0,0,0,0,0,0,0,0
1777290496.0938206,1035,1777290491.1576188,1777290491.1401663,,0,0,17.452478408813477,,1,0,0.0,0.0,0.0,0.0,0.0,0.0,0.0,0.0,0.0,0.0,0.0,0.0,0.0,0.0,0.0,0.0,0.0,0.0,0.0,0.0,0.0,0.0,0.0,0.0,0.0,0.0,0.0,682.5184936523438,566.3743286132812,1110.7130126953125,934.4813232421875,586.6471557617188,1126.3746337890625,727.6130981445312,389.7608337402344,1151.086181640625,887.8779907226562,382.4137878417969,1155.7294921875,638.61474609375,451.6956787109375,854.1368408203125,690.3897705078125,443.5252685546875,597.69873046875,688.3349609375,375.8629150390625,433.25030517578125,724.7249145507812,343.85400390625,238.8960418701172,787.3367309570312,244.45843505859375,164.9683380126953,748.1708984375,511.0533142089844,179.0220184326172,1012.8248291015625,577.5635986328125,826.904052734375,964.3289794921875,607.7913818359375,593.028564453125,976.6484985351562,614.8511962890625,456.76776123046875,933.32470703125,650.6779174804688,241.8417205810547,848.445068359375,611.1587524414062,162.12094116210938,958.6514282226562,846.0988159179688,223.78213500976562,-1.5025,8.4458,-0.8661,16.2354,-4.8218,-11.5967,88.2422,3.2904,-16.8475,0.6854,0.1223,-0.0853,0.7128,5.0244,8.1874,-1.3925,0.1831,-0.4272,-0.061,99.7119,-31.2067,-159.8785,0.2994,0.6946,-0.6473,-0.094,-0.4929,11.4939,-12.5802,13.855,55.8472,-6.5308,158.9996,-7.1521,-18.5944,0.9703,0.1473,-0.0899,0.1696,-18.4037,-8.977,20.7771,-197.937,-56.8237,34.8511,70.8948,-2.2577,-83.6938,0.4426,0.3749,-0.5519,0.5991,6.9911,15.1115,104.1729,412.1704,-1281.0059,-562.1338,4.2133,3.5156,-0.7031,0.0366,0.0309,-0.005,0.9988,-2.7515,15.9729,-7.1969,56.7627,-70.8008,42.5415,87.9785,-2.0325,-10.3326,0.6927,0.0498,-0.077,0.7153,-0.1531,0.1292,10.9341,-12.085,6.5308,-3.0518,0.6592,-5.5316,-86.0504,0.0371,-0.0314,-0.6817,0.73,0,0,0,0,0,0,0,0,0,0,0,0,0,0,0,0,0,0,0,0,0,0,0,0,0,0,0,0,0,0,0,0,0,0,0,0
1777290496.0938206,1036,1777290491.1714065,1777290491.1401663,,0,0,31.240224838256836,,1,0,0.0,0.0,0.0,0.0,0.0,0.0,0.0,0.0,0.0,0.0,0.0,0.0,0.0,0.0,0.0,0.0,0.0,0.0,0.0,0.0,0.0,0.0,0.0,0.0,0.0,0.0,0.0,683.3528442382812,566.995849609375,1109.786865234375,935.4564819335938,586.7047119140625,1125.01953125,728.220703125,390.3438720703125,1150.0799560546875,888.4688110351562,382.7113037109375,1154.5225830078125,638.7899780273438,451.3269958496094,853.7393798828125,690.8883666992188,439.94952392578125,597.6401977539062,688.9142456054688,370.6656494140625,433.815185546875,725.1717529296875,336.7545166015625,239.57708740234375,787.6778564453125,236.8779296875,165.3144989013672,748.4268188476562,503.5373229980469,178.85238647460938,1013.2903442382812,576.3987426757812,824.6838989257812,963.470703125,606.3726196289062,590.6101684570312,975.7593383789062,617.038818359375,454.33282470703125,932.3148803710938,658.9501953125,240.10223388671875,847.833251953125,620.9663696289062,160.1683349609375,955.5028686523438,855.7526245117188,226.95765686035156,-1.5025,8.4458,-0.8661,16.2354,-4.8218,-11.5967,88.2422,3.2904,-16.8475,0.6854,0.1223,-0.0853,0.7128,5.0244,8.1874,-1.3925,0.1831,-0.4272,-0.061,99.7119,-31.2067,-159.8785,0.2994,0.6946,-0.6473,-0.094,-0.4929,11.4939,-12.5802,13.855,55.8472,-6.5308,158.9996,-7.1521,-18.5944,0.9703,0.1473,-0.0899,0.1696,-18.4037,-8.977,20.7771,-197.937,-56.8237,34.8511,70.8948,-2.2577,-83.6938,0.4426,0.3749,-0.5519,0.5991,6.9911,15.1115,104.1729,412.1704,-1281.0059,-562.1338,4.2133,3.5156,-0.7031,0.0366,0.0309,-0.005,0.9988,-2.7515,15.9729,-7.1969,56.7627,-70.8008,42.5415,87.9785,-2.0325,-10.3326,0.6927,0.0498,-0.077,0.7153,-0.1531,0.1292,10.9341,-12.085,6.5308,-3.0518,0.6592,-5.5316,-86.0504,0.0371,-0.0314,-0.6817,0.73,0,0,0,0,0,0,0,0,0,0,0,0,0,0,0,0,0,0,0,0,0,0,0,0,0,0,0,0,0,0,0,0,0,0,0,0
1777290496.0938206,1037,1777290491.1884685,1777290491.1401663,,0,0,48.30217361450195,,1,0,0.0,0.0,0.0,0.0,0.0,0.0,0.0,0.0,0.0,0.0,0.0,0.0,0.0,0.0,0.0,0.0,0.0,0.0,0.0,0.0,0.0,0.0,0.0,0.0,0.0,0.0,0.0,684.281982421875,567.8456420898438,1108.896728515625,936.53955078125,586.87060546875,1123.6519775390625,728.849365234375,391.1199645996094,1149.044677734375,889.0774536132812,383.14337158203125,1153.2728271484375,638.9378662109375,451.213134765625,853.3988647460938,691.374267578125,436.5073547363281,597.6734008789062,689.4646606445312,365.5079040527344,434.50140380859375,725.5926513671875,329.6815185546875,240.37054443359375,788.0686645507812,229.3194580078125,165.72747802734375,748.671875,496.04571533203125,178.69873046875,1013.7282104492188,575.3206176757812,822.4041137695312,962.5299072265625,605.0078125,588.243408203125,974.7109375,618.7884521484375,452.02838134765625,931.04638671875,665.8634033203125,238.54649353027344,847.0309448242188,629.0597534179688,158.7437286376953,951.8119506835938,863.9920654296875,229.61587524414062,-1.5025,8.4458,-0.8661,16.2354,-4.8218,-11.5967,88.2422,3.2904,-16.8475,0.6854,0.1223,-0.0853,0.7128,5.0244,8.1874,-1.3925,0.1831,-0.4272,-0.061,99.7119,-31.2067,-159.8785,0.2994,0.6946,-0.6473,-0.094,-0.4929,11.4939,-12.5802,13.855,55.8472,-6.5308,158.9996,-7.1521,-18.5944,0.9703,0.1473,-0.0899,0.1696,-18.4037,-8.977,20.7771,-197.937,-56.8237,34.8511,70.8948,-2.2577,-83.6938,0.4426,0.3749,-0.5519,0.5991,6.9911,15.1115,104.1729,412.1704,-1281.0059,-562.1338,4.2133,3.5156,-0.7031,0.0366,0.0309,-0.005,0.9988,-2.7515,15.9729,-7.1969,56.7627,-70.8008,42.5415,87.9785,-2.0325,-10.3326,0.6927,0.0498,-0.077,0.7153,-0.1531,0.1292,10.9341,-12.085,6.5308,-3.0518,0.6592,-5.5316,-86.0504,0.0371,-0.0314,-0.6817,0.73,0,0,0,0,0,0,0,0,0,0,0,0,0,0,0,0,0,0,0,0,0,0,0,0,0,0,0,0,0,0,0,0,0,0,0,0
1777290496.0938206,1038,1777290491.1906857,1777290491.1401663,,0,0,50.519466400146484,,1,0,0.0,0.0,0.0,0.0,0.0,0.0,0.0,0.0,0.0,0.0,0.0,0.0,0.0,0.0,0.0,0.0,0.0,0.0,0.0,0.0,0.0,0.0,0.0,0.0,0.0,0.0,0.0,685.3058471679688,568.927978515625,1108.0447998046875,937.7284545898438,587.15234375,1122.2783203125,729.4989624023438,392.09326171875,1147.9879150390625,889.7041625976562,383.7137451171875,1151.9920654296875,639.0670166015625,451.3617248535156,853.1063842773438,691.86083984375,433.2364501953125,597.7821044921875,689.9822998046875,360.4244384765625,435.2953186035156,725.980712890625,322.64691162109375,241.2775115966797,788.4989624023438,221.79193115234375,166.2507781982422,748.9043579101562,488.58160400390625,178.55426025390625,1014.1251220703125,574.3569946289062,820.088623046875,961.5120849609375,603.7300415039062,585.9398803710938,973.5005493164062,620.0980224609375,449.8329772949219,929.5093383789062,671.3439331054688,237.0968017578125,846.0443725585938,635.2962646484375,157.75791931152344,947.5567016601562,870.7412109375,231.55955505371094,-1.5025,8.4458,-0.8661,16.2354,-4.8218,-11.5967,88.2422,3.2904,-16.8475,0.6854,0.1223,-0.0853,0.7128,5.0244,8.1874,-1.3925,0.1831,-0.4272,-0.061,99.7119,-31.2067,-159.8785,0.2994,0.6946,-0.6473,-0.094,-0.4929,11.4939,-12.5802,13.855,55.8472,-6.5308,158.9996,-7.1521,-18.5944,0.9703,0.1473,-0.0899,0.1696,-18.4037,-8.977,20.7771,-197.937,-56.8237,34.8511,70.8948,-2.2577,-83.6938,0.4426,0.3749,-0.5519,0.5991,6.9911,15.1115,104.1729,412.1704,-1281.0059,-562.1338,4.2133,3.5156,-0.7031,0.0366,0.0309,-0.005,0.9988,-2.7515,15.9729,-7.1969,56.7627,-70.8008,42.5415,87.9785,-2.0325,-10.3326,0.6927,0.0498,-0.077,0.7153,-0.1531,0.1292,10.9341,-12.085,6.5308,-3.0518,0.6592,-5.5316,-86.0504,0.0371,-0.0314,-0.6817,0.73,0,0,0,0,0,0,0,0,0,0,0,0,0,0,0,0,0,0,0,0,0,0,0,0,0,0,0,0,0,0,0,0,0,0,0,0
1777290496.0938206,1039,1777290491.2051628,1777290491.2051628,,0,0,0.0,,1,0,0.0,0.0,0.0,0.0,0.0,0.0,0.0,0.0,0.0,0.0,0.0,0.0,0.0,0.0,0.0,0.0,0.0,0.0,0.0,0.0,0.0,0.0,0.0,0.0,0.0,0.0,0.0,686.4234619140625,570.2432861328125,1107.232666015625,939.0194091796875,587.5569458007812,1120.905517578125,730.169921875,393.264892578125,1146.91748046875,890.3499755859375,384.42462158203125,1150.6925048828125,639.18701171875,451.78021240234375,852.8506469726562,692.3616333007812,430.1846618652344,597.945068359375,690.4594116210938,355.45843505859375,436.1817932128906,726.3206787109375,315.663330078125,242.29931640625,788.9434814453125,214.30361938476562,166.9349822998047,749.1205444335938,481.1444396972656,178.4126434326172,1014.4671630859375,573.53515625,817.7614135742188,960.4263916015625,602.5664672851562,583.7080688476562,972.1315307617188,620.9718627929688,447.72540283203125,927.7105712890625,675.3524780273438,235.68466186523438,844.9016723632812,639.5782470703125,157.11581420898438,942.7515258789062,875.9458618164062,232.61868286132812,-1.5025,8.4458,-0.8661,16.2354,-4.8218,-11.5967,88.2422,3.2904,-16.8475,0.6854,0.1223,-0.0853,0.7128,5.0292,8.1826,-1.3973,0.1831,-0.3662,-0.1221,99.7119,-31.2067,-159.8785,0.2994,0.6946,-0.6473,-0.094,-0.4929,11.4939,-12.5802,13.855,55.8472,-6.5308,158.9996,-7.1521,-18.5944,0.9703,0.1473,-0.0899,0.1696,-18.4037,-8.977,20.7771,-197.937,-56.8237,34.8511,70.8948,-2.2577,-83.6938,0.4426,0.3749,-0.5519,0.5991,6.9911,15.1115,104.1729,412.1704,-1281.0059,-562.1338,4.2133,3.5156,-0.7031,0.0366,0.0309,-0.005,0.9988,-2.7515,15.9729,-7.1969,56.7627,-70.8008,42.5415,87.9785,-2.0325,-10.3326,0.6927,0.0498,-0.077,0.7153,-0.1531,0.1292,10.9341,-12.085,6.5308,-3.0518,0.6592,-5.5316,-86.0504,0.0371,-0.0314,-0.6817,0.73,0,0,0,0,0,0,0,0,0,0,0,0,0,0,0,0,0,0,0,0,0,0,0,0,0,0,0,0,0,0,0,0,0,0,0,0
1777290496.0938206,1040,1777290491.2077186,1777290491.2051628,,0,0,2.55584716796875,,1,0,0.0,0.0,0.0,0.0,0.0,0.0,0.0,0.0,0.0,0.0,0.0,0.0,0.0,0.0,0.0,0.0,0.0,0.0,0.0,0.0,0.0,0.0,0.0,0.0,0.0,0.0,0.0,687.6325073242188,571.7874755859375,1106.4610595703125,940.4069213867188,588.0905151367188,1119.541259765625,730.86328125,394.6324768066406,1145.8419189453125,891.0162963867188,385.27630615234375,1149.3875732421875,639.30859375,452.47576904296875,852.6182861328125,692.8897705078125,427.408935546875,598.1369018554688,690.88623046875,350.6598205566406,437.1455078125,726.591064453125,308.7441101074219,243.4380340576172,789.3645629882812,206.86080932617188,167.8311767578125,749.3153686523438,473.7302551269531,178.26861572265625,1014.7406616210938,572.8805541992188,815.446533203125,959.2860107421875,601.5379638671875,581.554931640625,970.61572265625,621.42333984375,445.6875305175781,925.6764526367188,677.8897705078125,234.2570037841797,843.6525268554688,641.8675537109375,156.7281036376953,937.4585571289062,879.58154296875,232.66754150390625,-1.5025,8.4458,-0.8661,16.2354,-4.8218,-11.5967,88.2422,3.2904,-16.8475,0.6854,0.1223,-0.0853,0.7128,5.0292,8.1826,-1.3973,0.1831,-0.3662,-0.1221,99.7119,-31.2067,-159.8785,0.2994,0.6946,-0.6473,-0.094,-0.4929,11.4939,-12.5802,13.855,55.8472,-6.5308,158.9996,-7.1521,-18.5944,0.9703,0.1473,-0.0899,0.1696,-18.4037,-8.977,20.7771,-197.937,-56.8237,34.8511,70.8948,-2.2577,-83.6938,0.4426,0.3749,-0.5519,0.5991,6.9911,15.1115,104.1729,412.1704,-1281.0059,-562.1338,4.2133,3.5156,-0.7031,0.0366,0.0309,-0.005,0.9988,-2.7515,15.9729,-7.1969,56.7627,-70.8008,42.5415,87.9785,-2.0325,-10.3326,0.6927,0.0498,-0.077,0.7153,-0.1531,0.1292,10.9341,-12.085,6.5308,-3.0518,0.6592,-5.5316,-86.0504,0.0371,-0.0314,-0.6817,0.73,0,0,0,0,0,0,0,0,0,0,0,0,0,0,0,0,0,0,0,0,0,0,0,0,0,0,0,0,0,0,0,0,0,0,0,0
1777290496.0938206,1041,1777290491.2199764,1777290491.2051628,,0,0,14.813661575317383,,1,0,0.0,0.0,0.0,0.0,0.0,0.0,0.0,0.0,0.0,0.0,0.0,0.0,0.0,0.0,0.0,0.0,0.0,0.0,0.0,0.0,0.0,0.0,0.0,0.0,0.0,0.0,0.0,688.9296875,573.5517578125,1105.7308349609375,941.8839111328125,588.7577514648438,1118.194580078125,731.58056640625,396.1897277832031,1144.7701416015625,891.70556640625,386.2669372558594,1148.0908203125,639.443115234375,453.4549255371094,852.3949584960938,693.457275390625,424.973388671875,598.3292236328125,691.2533569335938,346.0827941894531,438.1723327636719,726.7684326171875,301.9033203125,244.69699096679688,789.7189331054688,199.4667510986328,168.98309326171875,749.4837036132812,466.33160400390625,178.1186981201172,1014.9329833984375,572.4152221679688,813.1679077148438,958.1088256835938,600.6590576171875,579.4869384765625,968.9757080078125,621.4771118164062,443.70697021484375,923.4544677734375,679.0015258789062,232.78053283691406,842.364990234375,642.1968994140625,156.52297973632812,931.7958984375,881.6614379882812,231.6383514404297,-1.5025,8.4458,-0.8661,16.2354,-4.8218,-11.5967,88.2422,3.2904,-16.8475,0.6854,0.1223,-0.0853,0.7128,5.0292,8.1826,-1.3973,0.1831,-0.3662,-0.1221,99.7119,-31.2067,-159.8785,0.2994,0.6946,-0.6473,-0.094,-0.4929,11.4939,-12.5802,13.855,55.8472,-6.5308,158.9996,-7.1521,-18.5944,0.9703,0.1473,-0.0899,0.1696,-18.4037,-8.977,20.7771,-197.937,-56.8237,34.8511,70.8948,-2.2577,-83.6938,0.4426,0.3749,-0.5519,0.5991,6.9911,15.1115,104.1729,412.1704,-1281.0059,-562.1338,4.2133,3.5156,-0.7031,0.0366,0.0309,-0.005,0.9988,-2.7515,15.9729,-7.1969,56.7627,-70.8008,42.5415,87.9785,-2.0325,-10.3326,0.6927,0.0498,-0.077,0.7153,-0.1531,0.1292,10.9341,-12.085,6.5308,-3.0518,0.6592,-5.5316,-86.0504,0.0371,-0.0314,-0.6817,0.73,0,0,0,0,0,0,0,0,0,0,0,0,0,0,0,0,0,0,0,0,0,0,0,0,0,0,0,0,0,0,0,0,0,0,0,0
1777290496.0938206,1042,1777290491.2375453,1777290491.2051628,,0,0,32.38248825073242,,1,0,0.0,0.0,0.0,0.0,0.0,0.0,0.0,0.0,0.0,0.0,0.0,0.0,0.0,0.0,0.0,0.0,0.0,0.0,0.0,0.0,0.0,0.0,0.0,0.0,0.0,0.0,0.0,690.3106689453125,575.5223388671875,1105.04296875,943.44189453125,589.5617065429688,1116.8759765625,732.3239135742188,397.92633056640625,1143.71142578125,892.4203491210938,387.392333984375,1146.8167724609375,639.6027221679688,454.7232971191406,852.1661987304688,694.0742797851562,422.94683837890625,598.4922485351562,691.554443359375,341.7831115722656,439.2510070800781,726.8313598632812,295.1565246582031,246.08151245117188,789.966552734375,192.12112426757812,170.4188232421875,749.6220092773438,458.9384460449219,177.96217346191406,1015.0337524414062,572.1564331054688,810.949951171875,956.91796875,599.9386596679688,577.51123046875,967.246337890625,621.171875,441.7793884277344,921.1116333007812,678.7803955078125,231.2438507080078,841.1177978515625,640.6766357421875,156.45428466796875,925.9379272460938,882.2428588867188,229.53079223632812,-1.5025,8.4458,-0.8661,16.2354,-4.8218,-11.5967,88.2422,3.2904,-16.8475,0.6854,0.1223,-0.0853,0.7128,5.0292,8.1826,-1.3973,0.1831,-0.3662,-0.1221,99.7119,-31.2067,-159.8785,0.2994,0.6946,-0.6473,-0.094,-0.4929,11.4939,-12.5802,13.855,55.8472,-6.5308,158.9996,-7.1521,-18.5944,0.9703,0.1473,-0.0899,0.1696,-18.4037,-8.977,20.7771,-197.937,-56.8237,34.8511,70.8948,-2.2577,-83.6938,0.4426,0.3749,-0.5519,0.5991,6.9911,15.1115,104.1729,412.1704,-1281.0059,-562.1338,4.2133,3.5156,-0.7031,0.0366,0.0309,-0.005,0.9988,-2.7515,15.9729,-7.1969,56.7627,-70.8008,42.5415,87.9785,-2.0325,-10.3326,0.6927,0.0498,-0.077,0.7153,-0.1531,0.1292,10.9341,-12.085,6.5308,-3.0518,0.6592,-5.5316,-86.0504,0.0371,-0.0314,-0.6817,0.73,0,0,0,0,0,0,0,0,0,0,0,0,0,0,0,0,0,0,0,0,0,0,0,0,0,0,0,0,0,0,0,0,0,0,0,0
1777290496.0938206,1043,1777290491.2400541,1777290491.2051628,,0,0,34.891366958618164,,1,0,0.0,0.0,0.0,0.0,0.0,0.0,0.0,0.0,0.0,0.0,0.0,0.0,0.0,0.0,0.0,0.0,0.0,0.0,0.0,0.0,0.0,0.0,0.0,0.0,0.0,0.0,0.0,691.7700805664062,577.6805419921875,1104.3995361328125,945.0711669921875,590.5030517578125,1115.5982666015625,733.0960083007812,399.82769775390625,1142.675537109375,893.1640625,388.64581298828125,1145.580078125,639.7999267578125,456.2850036621094,851.9180908203125,694.748046875,421.40020751953125,598.5966186523438,691.7882690429688,337.8152160644531,440.375,726.76416015625,288.5213623046875,247.59976196289062,790.0803833007812,184.82003784179688,172.14524841308594,749.7293701171875,451.5390930175781,177.8018035888672,1015.0364379882812,572.114990234375,808.817626953125,955.7418823242188,599.380859375,575.6372680664062,965.4757690429688,620.5611572265625,439.9095153808594,918.7310791015625,677.3635864257812,229.6571044921875,839.9887084960938,637.49560546875,156.50314331054688,920.1065673828125,881.4291381835938,226.41615295410156,-1.5025,8.4458,-0.8661,16.2354,-4.8218,-11.5967,88.2422,3.2904,-16.8475,0.6854,0.1223,-0.0853,0.7128,5.0292,8.1826,-1.3973,0.1831,-0.3662,-0.1221,99.7119,-31.2067,-159.8785,0.2994,0.6946,-0.6473,-0.094,-0.4929,11.4939,-12.5802,13.855,55.8472,-6.5308,158.9996,-7.1521,-18.5944,0.9703,0.1473,-0.0899,0.1696,-18.4037,-8.977,20.7771,-197.937,-56.8237,34.8511,70.8948,-2.2577,-83.6938,0.4426,0.3749,-0.5519,0.5991,6.9911,15.1115,104.1729,412.1704,-1281.0059,-562.1338,4.2133,3.5156,-0.7031,0.0366,0.0309,-0.005,0.9988,-2.7515,15.9729,-7.1969,56.7627,-70.8008,42.5415,87.9785,-2.0325,-10.3326,0.6927,0.0498,-0.077,0.7153,-0.1531,0.1292,10.9341,-12.085,6.5308,-3.0518,0.6592,-5.5316,-86.0504,0.0371,-0.0314,-0.6817,0.73,0,0,0,0,0,0,0,0,0,0,0,0,0,0,0,0,0,0,0,0,0,0,0,0,0,0,0,0,0,0,0,0,0,0,0,0
1777290496.0938206,1044,1777290491.2558005,1777290491.2051628,,0,0,50.63772201538086,,1,0,0.0,0.0,0.0,0.0,0.0,0.0,0.0,0.0,0.0,0.0,0.0,0.0,0.0,0.0,0.0,0.0,0.0,0.0,0.0,0.0,0.0,0.0,0.0,0.0,0.0,0.0,0.0,693.3015747070312,580.0027465820312,1103.8035888671875,946.7611083984375,591.5801391601562,1114.3758544921875,733.8995971679688,401.8750305175781,1141.67236328125,893.9401245117188,390.0181884765625,1144.395751953125,640.0474853515625,458.1421813964844,851.6382446289062,695.4817504882812,420.4035949707031,598.6152954101562,691.9594116210938,334.2306213378906,441.5442810058594,726.5598754882812,282.0192565917969,249.26376342773438,790.05322265625,177.55726623535156,174.1490936279297,749.8077392578125,444.1217346191406,177.64419555664062,1014.9393920898438,572.2943725585938,806.7965698242188,954.6141357421875,598.9855346679688,573.8773803710938,963.7247924804688,619.71240234375,438.111572265625,916.4063110351562,674.9257202148438,228.04916381835938,839.0429077148438,632.9112548828125,156.672607421875,914.550048828125,879.3656616210938,222.4345703125,-1.5025,8.4458,-0.8661,16.2354,-4.8218,-11.5967,88.2422,3.2904,-16.8475,0.6854,0.1223,-0.0853,0.7128,5.0292,8.1826,-1.3973,0.1831,-0.3662,-0.1221,99.7119,-31.2067,-159.8785,0.2994,0.6946,-0.6473,-0.094,-0.4929,11.4939,-12.5802,13.855,55.8472,-6.5308,158.9996,-7.1521,-18.5944,0.9703,0.1473,-0.0899,0.1696,-18.4037,-8.977,20.7771,-197.937,-56.8237,34.8511,70.8948,-2.2577,-83.6938,0.4426,0.3749,-0.5519,0.5991,6.9911,15.1115,104.1729,412.1704,-1281.0059,-562.1338,4.2133,3.5156,-0.7031,0.0366,0.0309,-0.005,0.9988,-2.7515,15.9729,-7.1969,56.7627,-70.8008,42.5415,87.9785,-2.0325,-10.3326,0.6927,0.0498,-0.077,0.7153,-0.1531,0.1292,10.9341,-12.085,6.5308,-3.0518,0.6592,-5.5316,-86.0504,0.0371,-0.0314,-0.6817,0.73,0,0,0,0,0,0,0,0,0,0,0,0,0,0,0,0,0,0,0,0,0,0,0,0,0,0,0,0,0,0,0,0,0,0,0,0
1777290496.0938206,1045,1777290491.2578964,1777290491.2051628,,0,0,52.733659744262695,,1,0,0.0,0.0,0.0,0.0,0.0,0.0,0.0,0.0,0.0,0.0,0.0,0.0,0.0,0.0,0.0,0.0,0.0,0.0,0.0,0.0,0.0,0.0,0.0,0.0,0.0,0.0,0.0,694.89794921875,582.4609985351562,1103.2593994140625,948.5003051757812,592.7880859375,1113.2252197265625,734.73779296875,404.0455627441406,1140.7115478515625,894.752197265625,391.4975891113281,1143.2786865234375,640.3580932617188,460.2942810058594,851.3167114257812,696.2733764648438,420.0238342285156,598.5255126953125,692.0779418945312,331.07720947265625,442.7664794921875,726.2208251953125,275.677490234375,251.0901641845703,789.9000244140625,170.3270721435547,176.40638732910156,749.86181640625,436.67681884765625,177.4993438720703,1014.7476806640625,572.6895751953125,804.9130249023438,953.5721435546875,598.7484741210938,572.2470703125,962.0640869140625,618.7028198242188,436.4080810546875,914.2332763671875,671.6651611328125,226.46249389648438,838.32373046875,627.2264404296875,156.9773406982422,909.51220703125,876.2276611328125,217.78443908691406,-1.5025,8.4458,-0.8661,16.2354,-4.8218,-11.5967,88.2422,3.2904,-16.8475,0.6854,0.1223,-0.0853,0.7128,5.0292,8.1826,-1.3973,0.1831,-0.3662,-0.1221,99.7119,-31.2067,-159.8785,0.2994,0.6946,-0.6473,-0.094,-0.4929,11.4939,-12.5802,13.855,55.8472,-6.5308,158.9996,-7.1521,-18.5944,0.9703,0.1473,-0.0899,0.1696,-18.4037,-8.977,20.7771,-197.937,-56.8237,34.8511,70.8948,-2.2577,-83.6938,0.4426,0.3749,-0.5519,0.5991,6.9911,15.1115,104.1729,412.1704,-1281.0059,-562.1338,4.2133,3.5156,-0.7031,0.0366,0.0309,-0.005,0.9988,-2.7515,15.9729,-7.1969,56.7627,-70.8008,42.5415,87.9785,-2.0325,-10.3326,0.6927,0.0498,-0.077,0.7153,-0.1531,0.1292,10.9341,-12.085,6.5308,-3.0518,0.6592,-5.5316,-86.0504,0.0371,-0.0314,-0.6817,0.73,0,0,0,0,0,0,0,0,0,0,0,0,0,0,0,0,0,0,0,0,0,0,0,0,0,0,0,0,0,0,0,0,0,0,0,0
1777290496.0938206,1046,1777290491.2734358,1777290491.2051628,,0,0,68.27306747436523,,1,0,0.0,0.0,0.0,0.0,0.0,0.0,0.0,0.0,0.0,0.0,0.0,0.0,0.0,0.0,0.0,0.0,0.0,0.0,0.0,0.0,0.0,0.0,0.0,0.0,0.0,0.0,0.0,696.551025390625,585.0233764648438,1102.772705078125,950.277099609375,594.119140625,1112.1641845703125,735.613525390625,406.31304931640625,1139.8028564453125,895.6036987304688,393.06982421875,1142.2430419921875,640.7443237304688,462.73748779296875,850.946533203125,697.1142578125,420.3221740722656,598.3104858398438,692.1570434570312,328.4001159667969,444.05731201171875,725.7569580078125,269.5318908691406,253.10092163085938,789.6553344726562,163.1280517578125,178.89645385742188,749.8978881835938,429.19940185546875,177.37969970703125,1014.4739379882812,573.2867431640625,803.193115234375,952.6553344726562,598.66162109375,570.7642822265625,960.5701293945312,617.6122436523438,434.82757568359375,912.3011474609375,667.7867431640625,224.94606018066406,837.8497924804688,620.7547607421875,157.43141174316406,905.1959838867188,872.201904296875,212.70399475097656,-1.5025,8.4458,-0.8661,16.2354,-4.8218,-11.5967,88.2422,3.2904,-16.8475,0.6854,0.1223,-0.0853,0.7128,5.0292,8.1826,-1.3973,0.1831,-0.3662,-0.1221,99.7119,-31.2067,-159.8785,0.2994,0.6946,-0.6473,-0.094,-0.4929,11.4939,-12.5802,13.855,55.8472,-6.5308,158.9996,-7.1521,-18.5944,0.9703,0.1473,-0.0899,0.1696,-18.4037,-8.977,20.7771,-197.937,-56.8237,34.8511,70.8948,-2.2577,-83.6938,0.4426,0.3749,-0.5519,0.5991,6.9911,15.1115,104.1729,412.1704,-1281.0059,-562.1338,4.2133,3.5156,-0.7031,0.0366,0.0309,-0.005,0.9988,-2.7515,15.9729,-7.1969,56.7627,-70.8008,42.5415,87.9785,-2.0325,-10.3326,0.6927,0.0498,-0.077,0.7153,-0.1531,0.1292,10.9341,-12.085,6.5308,-3.0518,0.6592,-5.5316,-86.0504,0.0371,-0.0314,-0.6817,0.73,0,0,0,0,0,0,0,0,0,0,0,0,0,0,0,0,0,0,0,0,0,0,0,0,0,0,0,0,0,0,0,0,0,0,0,0
1777290496.0938206,1047,1777290491.275941,1777290491.2051628,,0,0,70.77813148498535,,1,0,0.0,0.0,0.0,0.0,0.0,0.0,0.0,0.0,0.0,0.0,0.0,0.0,0.0,0.0,0.0,0.0,0.0,0.0,0.0,0.0,0.0,0.0,0.0,0.0,0.0,0.0,0.0,698.2517700195312,587.6546630859375,1102.35009765625,952.0794677734375,595.562255859375,1111.2115478515625,736.5293579101562,408.6481018066406,1138.9552001953125,896.497802734375,394.7183837890625,1141.3021240234375,641.2181396484375,465.464111328125,850.5240478515625,697.988525390625,421.35247802734375,597.9602661132812,692.2098388671875,326.2439880371094,445.4395751953125,725.1826171875,263.6294860839844,255.3232879638672,789.3670654296875,155.96778869628906,181.61642456054688,749.9219360351562,421.6914367675781,177.2980499267578,1014.1388549804688,574.0634155273438,801.661865234375,951.9025268554688,598.7118530273438,569.4483032226562,959.318603515625,616.513916015625,433.4013366699219,910.6828002929688,663.4807739257812,223.54776000976562,837.616455078125,613.7836303710938,158.03717041015625,901.729736328125,867.4664916992188,207.4481658935547,-1.5025,8.4458,-0.8661,16.2354,-4.8218,-11.5967,88.2422,3.2904,-16.8475,0.6854,0.1223,-0.0853,0.7128,5.0292,8.1826,-1.3973,0.1831,-0.3662,-0.1221,99.7119,-31.2067,-159.8785,0.2994,0.6946,-0.6473,-0.094,-0.4929,11.4939,-12.5802,13.855,55.8472,-6.5308,158.9996,-7.1521,-18.5944,0.9703,0.1473,-0.0899,0.1696,-18.4037,-8.977,20.7771,-197.937,-56.8237,34.8511,70.8948,-2.2577,-83.6938,0.4426,0.3749,-0.5519,0.5991,6.9911,15.1115,104.1729,412.1704,-1281.0059,-562.1338,4.2133,3.5156,-0.7031,0.0366,0.0309,-0.005,0.9988,-2.7515,15.9729,-7.1969,56.7627,-70.8008,42.5415,87.9785,-2.0325,-10.3326,0.6927,0.0498,-0.077,0.7153,-0.1531,0.1292,10.9341,-12.085,6.5308,-3.0518,0.6592,-5.5316,-86.0504,0.0371,-0.0314,-0.6817,0.73,0,0,0,0,0,0,0,0,0,0,0,0,0,0,0,0,0,0,0,0,0,0,0,0,0,0,0,0,0,0,0,0,0,0,0,0
1777290496.0938206,1048,1777290491.290168,1777290491.2897027,,0,0,0.46539306640625,,1,0,0.0,0.0,0.0,0.0,0.0,0.0,0.0,0.0,0.0,0.0,0.0,0.0,0.0,0.0,0.0,0.0,0.0,0.0,0.0,0.0,0.0,0.0,0.0,0.0,0.0,0.0,0.0,699.9905395507812,590.3173217773438,1101.9989013671875,953.8955688476562,597.1033325195312,1110.3861083984375,737.4876708984375,411.0191345214844,1138.1767578125,897.437255859375,396.42498779296875,1140.4677734375,641.7908325195312,468.4617614746094,850.0492553710938,698.8727416992188,423.15966796875,597.4725952148438,692.245849609375,324.6557312011719,446.94122314453125,724.5121459960938,258.03076171875,257.7892761230469,789.087890625,148.86907958984375,184.59486389160156,749.936767578125,414.1643371582031,177.26416015625,1013.7708129882812,574.989013671875,800.3414306640625,951.348388671875,598.8795166015625,568.3173828125,958.376708984375,615.4639282226562,432.1588439941406,909.4271850585938,658.9039916992188,222.307861328125,837.6013793945312,606.5469970703125,158.77880859375,899.147216796875,862.17578125,202.2655792236328,-1.5025,8.4458,-0.8661,16.2354,-4.8218,-11.5967,88.2422,3.2904,-16.8475,0.6854,0.1223,-0.0853,0.7128,5.0196,8.1826,-1.3973,0.2441,-0.3662,-0.1221,99.7119,-31.2067,-159.8785,0.2994,0.6946,-0.6473,-0.094,-0.4929,11.4939,-12.5802,13.855,55.8472,-6.5308,158.9996,-7.1521,-18.5944,0.9703,0.1473,-0.0899,0.1696,-18.4037,-8.977,20.7771,-197.937,-56.8237,34.8511,70.8948,-2.2577,-83.6938,0.4426,0.3749,-0.5519,0.5991,6.9911,15.1115,104.1729,412.1704,-1281.0059,-562.1338,4.2133,3.5156,-0.7031,0.0366,0.0309,-0.005,0.9988,-2.7515,15.9729,-7.1969,56.7627,-70.8008,42.5415,87.9785,-2.0325,-10.3326,0.6927,0.0498,-0.077,0.7153,-0.1531,0.1292,10.9341,-12.085,6.5308,-3.0518,0.6592,-5.5316,-86.0504,0.0371,-0.0314,-0.6817,0.73,0,0,0,0,0,0,0,0,0,0,0,0,0,0,0,0,0,0,0,0,0,0,0,0,0,0,0,0,0,0,0,0,0,0,0,0
1777290496.0938206,1049,1777290491.305248,1777290491.2897027,,0,0,15.545368194580078,,1,0,0.0,0.0,0.0,0.0,0.0,0.0,0.0,0.0,0.0,0.0,0.0,0.0,0.0,0.0,0.0,0.0,0.0,0.0,0.0,0.0,0.0,0.0,0.0,0.0,0.0,0.0,0.0,701.7569580078125,592.9725341796875,1101.7266845703125,955.7140502929688,598.7252807617188,1109.7054443359375,738.4902954101562,413.3929443359375,1137.4749755859375,898.42431640625,398.169677734375,1139.75,642.4727172851562,471.7131652832031,849.5259399414062,699.736083984375,425.7784729003906,596.8529052734375,692.267822265625,323.68695068359375,448.59210205078125,723.7557983398438,252.8106231689453,260.53448486328125,788.8646240234375,141.87738037109375,187.90316772460938,749.939453125,406.6408996582031,177.28016662597656,1013.4051513671875,576.0263061523438,799.2494506835938,951.0203247070312,599.1367797851562,567.3861083984375,957.7951049804688,614.4915161132812,431.1234130859375,908.5549926757812,654.1668090820312,221.2551727294922,837.7717895507812,599.2117309570312,159.62188720703125,897.3903198242188,856.4524536132812,197.37875366210938,-1.5025,8.4458,-0.8661,16.2354,-4.8218,-11.5967,88.2422,3.2904,-16.8475,0.6854,0.1223,-0.0853,0.7128,5.0196,8.1826,-1.3973,0.2441,-0.3662,-0.1221,99.7119,-31.2067,-159.8785,0.2994,0.6946,-0.6473,-0.094,-0.4929,11.4939,-12.5802,13.855,55.8472,-6.5308,158.9996,-7.1521,-18.5944,0.9703,0.1473,-0.0899,0.1696,-18.4037,-8.977,20.7771,-197.937,-56.8237,34.8511,70.8948,-2.2577,-83.6938,0.4426,0.3749,-0.5519,0.5991,6.9911,15.1115,104.1729,412.1704,-1281.0059,-562.1338,4.2133,3.5156,-0.7031,0.0366,0.0309,-0.005,0.9988,-2.7515,15.9729,-7.1969,56.7627,-70.8008,42.5415,87.9785,-2.0325,-10.3326,0.6927,0.0498,-0.077,0.7153,-0.1531,0.1292,10.9341,-12.085,6.5308,-3.0518,0.6592,-5.5316,-86.0504,0.0371,-0.0314,-0.6817,0.73,0,0,0,0,0,0,0,0,0,0,0,0,0,0,0,0,0,0,0,0,0,0,0,0,0,0,0,0,0,0,0,0,0,0,0,0
1777290496.0938206,1050,1777290491.3077445,1777290491.2897027,,0,0,18.04184913635254,,1,0,0.0,0.0,0.0,0.0,0.0,0.0,0.0,0.0,0.0,0.0,0.0,0.0,0.0,0.0,0.0,0.0,0.0,0.0,0.0,0.0,0.0,0.0,0.0,0.0,0.0,0.0,0.0,703.5402221679688,595.5811767578125,1101.540771484375,957.5238037109375,600.4086303710938,1109.1849365234375,739.5385131835938,415.7358703613281,1136.8560791015625,899.4605102539062,399.93157958984375,1139.156494140625,643.272705078125,475.1956787109375,848.9612426757812,700.5419921875,429.2322082519531,596.1140747070312,692.2694702148438,323.3952331542969,450.4208068847656,722.9166870117188,248.05804443359375,263.5965270996094,788.7276000976562,135.06875610351562,191.66290283203125,749.9183349609375,399.1567687988281,177.3363037109375,1013.0818481445312,577.1329956054688,798.3966064453125,950.93505859375,599.4452514648438,566.6625366210938,957.6002807617188,613.5923461914062,430.30841064453125,908.0588989257812,649.3300170898438,220.4060516357422,838.0902099609375,591.879150390625,160.51890563964844,896.3339233398438,850.3878173828125,192.96707153320312,-1.5025,8.4458,-0.8661,16.2354,-4.8218,-11.5967,88.2422,3.2904,-16.8475,0.6854,0.1223,-0.0853,0.7128,5.0196,8.1826,-1.3973,0.2441,-0.3662,-0.1221,99.7119,-31.2067,-159.8785,0.2994,0.6946,-0.6473,-0.094,-0.4929,11.4939,-12.5802,13.855,55.8472,-6.5308,158.9996,-7.1521,-18.5944,0.9703,0.1473,-0.0899,0.1696,-18.4037,-8.977,20.7771,-197.937,-56.8237,34.8511,70.8948,-2.2577,-83.6938,0.4426,0.3749,-0.5519,0.5991,6.9911,15.1115,104.1729,412.1704,-1281.0059,-562.1338,4.2133,3.5156,-0.7031,0.0366,0.0309,-0.005,0.9988,-2.7515,15.9729,-7.1969,56.7627,-70.8008,42.5415,87.9785,-2.0325,-10.3326,0.6927,0.0498,-0.077,0.7153,-0.1531,0.1292,10.9341,-12.085,6.5308,-3.0518,0.6592,-5.5316,-86.0504,0.0371,-0.0314,-0.6817,0.73,0,0,0,0,0,0,0,0,0,0,0,0,0,0,0,0,0,0,0,0,0,0,0,0,0,0,0,0,0,0,0,0,0,0,0,0
1777290496.0938206,1051,1777290491.321278,1777290491.2897027,,0,0,31.575441360473633,,1,0,0.0,0.0,0.0,0.0,0.0,0.0,0.0,0.0,0.0,0.0,0.0,0.0,0.0,0.0,0.0,0.0,0.0,0.0,0.0,0.0,0.0,0.0,0.0,0.0,0.0,0.0,0.0,705.3290405273438,598.1050415039062,1101.447265625,959.314453125,602.1318359375,1108.83642578125,740.63330078125,418.0144348144531,1136.3250732421875,900.5469360351562,401.689208984375,1138.6923828125,644.1975708007812,478.8811950683594,848.3656616210938,701.2504272460938,433.53173828125,595.27587890625,692.2353515625,323.8432312011719,452.45135498046875,721.989501953125,243.8734130859375,267.0129699707031,788.6820678710938,128.5567626953125,196.04696655273438,749.8521728515625,391.7604064941406,177.4080810546875,1012.8431396484375,578.2637329101562,797.784912109375,951.0966186523438,599.7554321289062,566.1459350585938,957.7894897460938,612.7271118164062,429.71502685546875,907.906982421875,644.4097900390625,219.7650604248047,838.5188598632812,584.5965576171875,161.41844177246094,895.8225708007812,844.0487670898438,189.15237426757812,-1.5025,8.4458,-0.8661,16.2354,-4.8218,-11.5967,88.2422,3.2904,-16.8475,0.6854,0.1223,-0.0853,0.7128,5.0196,8.1826,-1.3973,0.2441,-0.3662,-0.1221,99.7119,-31.2067,-159.8785,0.2994,0.6946,-0.6473,-0.094,-0.4929,11.4939,-12.5802,13.855,55.8472,-6.5308,158.9996,-7.1521,-18.5944,0.9703,0.1473,-0.0899,0.1696,-18.4037,-8.977,20.7771,-197.937,-56.8237,34.8511,70.8948,-2.2577,-83.6938,0.4426,0.3749,-0.5519,0.5991,6.9911,15.1115,104.1729,412.1704,-1281.0059,-562.1338,4.2133,3.5156,-0.7031,0.0366,0.0309,-0.005,0.9988,-2.7515,15.9729,-7.1969,56.7627,-70.8008,42.5415,87.9785,-2.0325,-10.3326,0.6927,0.0498,-0.077,0.7153,-0.1531,0.1292,10.9341,-12.085,6.5308,-3.0518,0.6592,-5.5316,-86.0504,0.0371,-0.0314,-0.6817,0.73,0,0,0,0,0,0,0,0,0,0,0,0,0,0,0,0,0,0,0,0,0,0,0,0,0,0,0,0,0,0,0,0,0,0,0,0
1777290496.0938206,1052,1777290491.337635,1777290491.2897027,,0,0,47.93238639831543,,1,0,0.0,0.0,0.0,0.0,0.0,0.0,0.0,0.0,0.0,0.0,0.0,0.0,0.0,0.0,0.0,0.0,0.0,0.0,0.0,0.0,0.0,0.0,0.0,0.0,0.0,0.0,0.0,707.1121215820312,600.5079345703125,1101.4508056640625,961.0763549804688,603.8720092773438,1108.6676025390625,741.7750854492188,420.19659423828125,1135.8857421875,901.6840209960938,403.4210205078125,1138.3602294921875,645.251708984375,482.736328125,847.7528686523438,701.821044921875,438.6742248535156,594.3645629882812,692.1419067382812,325.09564208984375,454.7008056640625,720.9613037109375,240.3636474609375,270.8192138671875,788.702880859375,122.49693298339844,201.2724609375,749.71044921875,384.51214599609375,177.4561309814453,1012.7304077148438,579.3717651367188,797.406494140625,951.49560546875,600.0068359375,565.8253173828125,958.3306274414062,611.8252563476562,429.3317565917969,908.0484619140625,639.3892211914062,219.3262176513672,839.0219116210938,577.3746337890625,162.27447509765625,895.7020263671875,837.4877319335938,185.9915313720703,-1.5025,8.4458,-0.8661,16.2354,-4.8218,-11.5967,88.2422,3.2904,-16.8475,0.6854,0.1223,-0.0853,0.7128,5.0196,8.1826,-1.3973,0.2441,-0.3662,-0.1221,99.7119,-31.2067,-159.8785,0.2994,0.6946,-0.6473,-0.094,-0.4929,11.4939,-12.5802,13.855,55.8472,-6.5308,158.9996,-7.1521,-18.5944,0.9703,0.1473,-0.0899,0.1696,-18.4037,-8.977,20.7771,-197.937,-56.8237,34.8511,70.8948,-2.2577,-83.6938,0.4426,0.3749,-0.5519,0.5991,6.9911,15.1115,104.1729,412.1704,-1281.0059,-562.1338,4.2133,3.5156,-0.7031,0.0366,0.0309,-0.005,0.9988,-2.7515,15.9729,-7.1969,56.7627,-70.8008,42.5415,87.9785,-2.0325,-10.3326,0.6927,0.0498,-0.077,0.7153,-0.1531,0.1292,10.9341,-12.085,6.5308,-3.0518,0.6592,-5.5316,-86.0504,0.0371,-0.0314,-0.6817,0.73,0,0,0,0,0,0,0,0,0,0,0,0,0,0,0,0,0,0,0,0,0,0,0,0,0,0,0,0,0,0,0,0,0,0,0,0
1777290496.0938206,1053,1777290491.3415086,1777290491.2897027,,0,0,51.805973052978516,,1,0,0.0,0.0,0.0,0.0,0.0,0.0,0.0,0.0,0.0,0.0,0.0,0.0,0.0,0.0,0.0,0.0,0.0,0.0,0.0,0.0,0.0,0.0,0.0,0.0,0.0,0.0,0.0,708.878173828125,602.7564697265625,1101.55419921875,962.8007202148438,605.6055908203125,1108.6805419921875,742.9638671875,422.25244140625,1135.54052734375,902.8716430664062,405.10595703125,1138.1597900390625,646.43603515625,486.72320556640625,847.1390380859375,702.2164306640625,444.6422424316406,593.4120483398438,691.9599609375,327.2138671875,457.1776428222656,719.8148193359375,237.63516235351562,275.04632568359375,788.7349853515625,117.08665466308594,207.58433532714844,749.4561767578125,377.4814758300781,177.42926025390625,1012.7811889648438,580.4109497070312,797.2429809570312,952.1102905273438,600.131103515625,565.6802368164062,959.1663818359375,610.7942504882812,429.1360168457031,908.4204711914062,634.2322387695312,219.0742950439453,839.5665283203125,570.203369140625,163.0522003173828,895.8370971679688,830.7498168945312,183.48101806640625,-1.5025,8.4458,-0.8661,16.2354,-4.8218,-11.5967,88.2422,3.2904,-16.8475,0.6854,0.1223,-0.0853,0.7128,5.0196,8.1826,-1.3973,0.2441,-0.3662,-0.1221,99.7119,-31.2067,-159.8785,0.2994,0.6946,-0.6473,-0.094,-0.4929,11.4939,-12.5802,13.855,55.8472,-6.5308,158.9996,-7.1521,-18.5944,0.9703,0.1473,-0.0899,0.1696,-18.4037,-8.977,20.7771,-197.937,-56.8237,34.8511,70.8948,-2.2577,-83.6938,0.4426,0.3749,-0.5519,0.5991,6.9911,15.1115,104.1729,412.1704,-1281.0059,-562.1338,4.2133,3.5156,-0.7031,0.0366,0.0309,-0.005,0.9988,-2.7515,15.9729,-7.1969,56.7627,-70.8008,42.5415,87.9785,-2.0325,-10.3326,0.6927,0.0498,-0.077,0.7153,-0.1531,0.1292,10.9341,-12.085,6.5308,-3.0518,0.6592,-5.5316,-86.0504,0.0371,-0.0314,-0.6817,0.73,0,0,0,0,0,0,0,0,0,0,0,0,0,0,0,0,0,0,0,0,0,0,0,0,0,0,0,0,0,0,0,0,0,0,0,0
1777290496.0938206,1054,1777290491.356115,1777290491.356115,,0,0,0.0,,1,0,0.0,0.0,0.0,0.0,0.0,0.0,0.0,0.0,0.0,0.0,0.0,0.0,0.0,0.0,0.0,0.0,0.0,0.0,0.0,0.0,0.0,0.0,0.0,0.0,0.0,0.0,0.0,710.6160888671875,604.8211669921875,1101.758056640625,964.4795532226562,607.308837890625,1108.8717041015625,744.1991577148438,424.15509033203125,1135.29052734375,904.1090087890625,406.7239074707031,1138.0882568359375,647.7470703125,490.80035400390625,846.5428466796875,702.4057006835938,451.4031066894531,592.455322265625,691.6580200195312,330.249267578125,459.88153076171875,718.533203125,235.7855987548828,279.7184753417969,788.6995239257812,112.55958557128906,215.2300567626953,749.0502319335938,370.74383544921875,177.27139282226562,1013.0262451171875,581.3374633789062,797.2660522460938,952.9088745117188,600.056884765625,565.681884765625,960.2230834960938,609.5325927734375,429.0962829589844,908.9539794921875,628.897705078125,218.986572265625,840.12353515625,563.0645751953125,163.73011779785156,896.11865234375,823.875244140625,181.5699462890625,-1.5025,8.4458,-0.8661,16.2354,-4.8218,-11.5967,88.2422,3.2904,-16.8475,0.6854,0.1223,-0.0853,0.7128,5.034,8.1826,-1.4021,0.1831,-0.3662,-0.1831,99.7119,-31.2067,-159.8785,0.2994,0.6946,-0.6473,-0.094,-0.4929,11.4939,-12.5802,13.855,55.8472,-6.5308,158.9996,-7.1521,-18.5944,0.9703,0.1473,-0.0899,0.1696,-18.4037,-8.977,20.7771,-197.937,-56.8237,34.8511,70.8948,-2.2577,-83.6938,0.4426,0.3749,-0.5519,0.5991,6.9911,15.1115,104.1729,412.1704,-1281.0059,-562.1338,4.2133,3.5156,-0.7031,0.0366,0.0309,-0.005,0.9988,-2.7515,15.9729,-7.1969,56.7627,-70.8008,42.5415,87.9785,-2.0325,-10.3326,0.6927,0.0498,-0.077,0.7153,-0.1531,0.1292,10.9341,-12.085,6.5308,-3.0518,0.6592,-5.5316,-86.0504,0.0371,-0.0314,-0.6817,0.73,0,0,0,0,0,0,0,0,0,0,0,0,0,0,0,0,0,0,0,0,0,0,0,0,0,0,0,0,0,0,0,0,0,0,0,0
1777290496.0938206,1055,1777290491.3595722,1777290491.356115,,0,0,3.4570693969726562,,1,0,0.0,0.0,0.0,0.0,0.0,0.0,0.0,0.0,0.0,0.0,0.0,0.0,0.0,0.0,0.0,0.0,0.0,0.0,0.0,0.0,0.0,0.0,0.0,0.0,0.0,0.0,0.0,712.3154907226562,606.6773071289062,1102.0609130859375,966.1058959960938,608.958740234375,1109.232177734375,745.4798583984375,425.8813781738281,1135.1356201171875,905.39453125,408.2559814453125,1138.140625,649.17626953125,494.9244689941406,845.985107421875,702.3671264648438,458.9085693359375,591.5357055664062,691.2064819335938,334.23577880859375,462.80413818359375,717.1054077148438,234.89529418945312,284.8503723144531,788.5048828125,109.17308807373047,224.4270477294922,748.4572143554688,364.37664794921875,176.93214416503906,1013.4873046875,582.1107788085938,797.4390258789062,953.8528442382812,599.7161865234375,565.7958984375,961.4208374023438,607.9434204101562,429.1753845214844,909.5804443359375,623.3507690429688,219.0349884033203,840.6675415039062,555.9405517578125,164.29994201660156,896.464599609375,816.8995361328125,180.17547607421875,-1.5025,8.4458,-0.8661,16.2354,-4.8218,-11.5967,88.2422,3.2904,-16.8475,0.6854,0.1223,-0.0853,0.7128,5.034,8.1826,-1.4021,0.1831,-0.3662,-0.1831,99.7119,-31.2067,-159.8785,0.2994,0.6946,-0.6473,-0.094,-0.4929,11.4939,-12.5802,13.855,55.8472,-6.5308,158.9996,-7.1521,-18.5944,0.9703,0.1473,-0.0899,0.1696,-18.4037,-8.977,20.7771,-197.937,-56.8237,34.8511,70.8948,-2.2577,-83.6938,0.4426,0.3749,-0.5519,0.5991,6.9911,15.1115,104.1729,412.1704,-1281.0059,-562.1338,4.2133,3.5156,-0.7031,0.0366,0.0309,-0.005,0.9988,-2.7515,15.9729,-7.1969,56.7627,-70.8008,42.5415,87.9785,-2.0325,-10.3326,0.6927,0.0498,-0.077,0.7153,-0.1531,0.1292,10.9341,-12.085,6.5308,-3.0518,0.6592,-5.5316,-86.0504,0.0371,-0.0314,-0.6817,0.73,0,0,0,0,0,0,0,0,0,0,0,0,0,0,0,0,0,0,0,0,0,0,0,0,0,0,0,0,0,0,0,0,0,0,0,0
1777290496.0938206,1056,1777290491.3715515,1777290491.356115,,0,0,15.436410903930664,,1,0,0.0,0.0,0.0,0.0,0.0,0.0,0.0,0.0,0.0,0.0,0.0,0.0,0.0,0.0,0.0,0.0,0.0,0.0,0.0,0.0,0.0,0.0,0.0,0.0,0.0,0.0,0.0,713.9671020507812,608.3052978515625,1102.458984375,967.6740112304688,610.5331420898438,1109.7474365234375,746.8040771484375,427.4124755859375,1135.0748291015625,906.725830078125,409.68511962890625,1138.3096923828125,650.70947265625,499.0522766113281,845.4882202148438,702.0899658203125,467.095458984375,590.6981201171875,690.5809326171875,339.1831359863281,465.9312438964844,715.5315551757812,235.019775390625,290.44415283203125,788.062255859375,107.1883316040039,235.32571411132812,747.651123046875,358.45611572265625,176.38040161132812,1014.175048828125,582.6953735351562,797.718994140625,954.9002075195312,599.0508422851562,565.9855346679688,962.6829223632812,605.9478759765625,429.333740234375,910.2376708984375,617.5699462890625,219.1887664794922,841.1787719726562,548.8184204101562,164.76438903808594,896.8182373046875,809.853271484375,179.1985321044922,-1.5025,8.4458,-0.8661,16.2354,-4.8218,-11.5967,88.2422,3.2904,-16.8475,0.6854,0.1223,-0.0853,0.7128,5.034,8.1826,-1.4021,0.1831,-0.3662,-0.1831,99.7119,-31.2067,-159.8785,0.2994,0.6946,-0.6473,-0.094,-0.4929,11.4939,-12.5802,13.855,55.8472,-6.5308,158.9996,-7.1521,-18.5944,0.9703,0.1473,-0.0899,0.1696,-18.4037,-8.977,20.7771,-197.937,-56.8237,34.8511,70.8948,-2.2577,-83.6938,0.4426,0.3749,-0.5519,0.5991,6.9911,15.1115,104.1729,412.1704,-1281.0059,-562.1338,4.2133,3.5156,-0.7031,0.0366,0.0309,-0.005,0.9988,-2.7515,15.9729,-7.1969,56.7627,-70.8008,42.5415,87.9785,-2.0325,-10.3326,0.6927,0.0498,-0.077,0.7153,-0.1531,0.1292,10.9341,-12.085,6.5308,-3.0518,0.6592,-5.5316,-86.0504,0.0371,-0.0314,-0.6817,0.73,0,0,0,0,0,0,0,0,0,0,0,0,0,0,0,0,0,0,0,0,0,0,0,0,0,0,0,0,0,0,0,0,0,0,0,0
1777290496.0938206,1057,1777290491.3755476,1777290491.356115,,0,0,19.432544708251953,,1,0,0.0,0.0,0.0,0.0,0.0,0.0,0.0,0.0,0.0,0.0,0.0,0.0,0.0,0.0,0.0,0.0,0.0,0.0,0.0,0.0,0.0,0.0,0.0,0.0,0.0,0.0,0.0,715.5628662109375,609.6911010742188,1102.947265625,969.1795654296875,612.0116577148438,1110.3988037109375,748.1689453125,428.7341003417969,1135.106201171875,908.0996704101562,410.99615478515625,1138.5870361328125,652.3262329101562,503.14288330078125,845.0762329101562,701.5755004882812,475.88690185546875,589.9896850585938,689.7655029296875,345.072021484375,469.244873046875,713.8263549804688,236.1843719482422,296.4856872558594,787.3035278320312,106.8432388305664,247.97152709960938,746.6203002929688,353.0565185546875,175.6188507080078,1015.0880737304688,583.0615234375,798.060302734375,956.0090942382812,598.018310546875,566.2150268554688,963.9427490234375,603.4949951171875,429.5333557128906,910.8753051757812,611.5506591796875,219.41714477539062,841.6439819335938,541.6913452148438,165.13394165039062,897.1458129882812,802.7613525390625,178.53768920898438,-1.5025,8.4458,-0.8661,16.2354,-4.8218,-11.5967,88.2422,3.2904,-16.8475,0.6854,0.1223,-0.0853,0.7128,5.034,8.1826,-1.4021,0.1831,-0.3662,-0.1831,99.7119,-31.2067,-159.8785,0.2994,0.6946,-0.6473,-0.094,-0.4929,11.4939,-12.5802,13.855,55.8472,-6.5308,158.9996,-7.1521,-18.5944,0.9703,0.1473,-0.0899,0.1696,-18.4037,-8.977,20.7771,-197.937,-56.8237,34.8511,70.8948,-2.2577,-83.6938,0.4426,0.3749,-0.5519,0.5991,6.9911,15.1115,104.1729,412.1704,-1281.0059,-562.1338,4.2133,3.5156,-0.7031,0.0366,0.0309,-0.005,0.9988,-2.7515,15.9729,-7.1969,56.7627,-70.8008,42.5415,87.9785,-2.0325,-10.3326,0.6927,0.0498,-0.077,0.7153,-0.1531,0.1292,10.9341,-12.085,6.5308,-3.0518,0.6592,-5.5316,-86.0504,0.0371,-0.0314,-0.6817,0.73,0,0,0,0,0,0,0,0,0,0,0,0,0,0,0,0,0,0,0,0,0,0,0,0,0,0,0,0,0,0,0,0,0,0,0,0
1777290496.0938206,1058,1777290491.3897796,1777290491.3892019,,0,0,0.5776882171630859,,1,0,0.0,0.0,0.0,0.0,0.0,0.0,0.0,0.0,0.0,0.0,0.0,0.0,0.0,0.0,0.0,0.0,0.0,0.0,0.0,0.0,0.0,0.0,0.0,0.0,0.0,0.0,0.0,717.0965576171875,610.82666015625,1103.519287109375,970.6198120117188,613.3756713867188,1111.1640625,749.5704956054688,429.8367004394531,1135.22705078125,909.5115356445312,412.176025390625,1138.962890625,654.00048828125,507.15985107421875,844.7742309570312,700.836181640625,485.1945495605469,589.45849609375,688.7554321289062,351.8521728515625,472.7254943847656,712.0201416015625,238.38217163085938,302.9410705566406,786.1993408203125,108.32047271728516,262.27191162109375,745.369384765625,348.2530517578125,174.69627380371094,1016.212646484375,583.1868286132812,798.4173583984375,957.1401977539062,596.5958862304688,566.4522705078125,965.1482543945312,600.5667114257812,429.7411193847656,911.4574584960938,605.3043823242188,219.69210815429688,842.0572509765625,534.556884765625,165.4236297607422,897.4322509765625,795.6420288085938,178.10000610351562,-1.5025,8.4458,-0.8661,16.2354,-4.8218,-11.5967,88.2422,3.2904,-16.8475,0.6854,0.1223,-0.0853,0.7128,5.0196,8.1778,-1.3973,0.2441,-0.3662,-0.061,99.7119,-31.2067,-159.8785,0.2994,0.6946,-0.6473,-0.094,-0.4929,11.4939,-12.5802,13.855,55.8472,-6.5308,158.9996,-7.1521,-18.5944,0.9703,0.1473,-0.0899,0.1696,-18.4037,-8.977,20.7771,-197.937,-56.8237,34.8511,70.8948,-2.2577,-83.6938,0.4426,0.3749,-0.5519,0.5991,6.9911,15.1115,104.1729,412.1704,-1281.0059,-562.1338,4.2133,3.5156,-0.7031,0.0366,0.0309,-0.005,0.9988,-2.7515,15.9729,-7.1969,56.7627,-70.8008,42.5415,87.9785,-2.0325,-10.3326,0.6927,0.0498,-0.077,0.7153,-0.1531,0.1292,10.9341,-12.085,6.5308,-3.0518,0.6592,-5.5316,-86.0504,0.0371,-0.0314,-0.6817,0.73,0,0,0,0,0,0,0,0,0,0,0,0,0,0,0,0,0,0,0,0,0,0,0,0,0,0,0,0,0,0,0,0,0,0,0,0
