Timestamp,Vicon_Frame_Num,Vicon_Recv_Timestamp,IMU_Recv_Timestamp,Planter_Recv_Timestamp,Vicon_Gap_Flag,Vicon_Gap_Size,IMU_Stale_ms,Planter_Stale_ms,IMU_Matched_Flag,Planter_Matched_Flag,Vicon_Root_X,Vicon_Root_Y,Vicon_Root_Z,Vicon_L_Femur_X,Vicon_L_Femur_Y,Vicon_L_Femur_Z,Vicon_L_Tibia_X,Vicon_L_Tibia_Y,Vicon_L_Tibia_Z,Vicon_L_Foot_X,Vicon_L_Foot_Y,Vicon_L_Foot_Z,Vicon_L_Toe_X,Vicon_L_Toe_Y,Vicon_L_Toe_Z,Vicon_R_Femur_X,Vicon_R_Femur_Y,Vicon_R_Femur_Z,Vicon_R_Tibia_X,Vicon_R_Tibia_Y,Vicon_R_Tibia_Z,Vicon_R_Foot_X,Vicon_R_Foot_Y,Vicon_R_Foot_Z,Vicon_R_Toe_X,Vicon_R_Toe_Y,Vicon_R_Toe_Z,Vicon_LASI_X,Vicon_LASI_Y,Vicon_LASI_Z,Vicon_RASI_X,Vicon_RASI_Y,Vicon_RASI_Z,Vicon_LPSI_X,Vicon_LPSI_Y,Vicon_LPSI_Z,Vicon_RPSI_X,Vicon_RPSI_Y,Vicon_RPSI_Z,Vicon_LTHI_X,Vicon_LTHI_Y,Vicon_LTHI_Z,Vicon_LKNE_X,Vicon_LKNE_Y,Vicon_LKNE_Z,Vicon_LTIB_X,Vicon_LTIB_Y,Vicon_LTIB_Z,Vicon_LANK_X,Vicon_LANK_Y,Vicon_LANK_Z,Vicon_LHEE_X,Vicon_LHEE_Y,Vicon_LHEE_Z,Vicon_LTOE_X,Vicon_LTOE_Y,Vicon_LTOE_Z,Vicon_RTHI_X,Vicon_RTHI_Y,Vicon_RTHI_Z,Vicon_RKNE_X,Vicon_RKNE_Y,Vicon_RKNE_Z,Vicon_RTIB_X,Vicon_RTIB_Y,Vicon_RTIB_Z,Vicon_RANK_X,Vicon_RANK_Y,Vicon_RANK_Z,Vicon_RHEE_X,Vicon_RHEE_Y,Vicon_RHEE_Z,Vicon_RTOE_X,Vicon_RTOE_Y,Vicon_RTOE_Z,IMU_Trunk_Acc_X,IMU_Trunk_Acc_Y,IMU_Trunk_Acc_Z,IMU_Trunk_Gyro_X,IMU_Trunk_Gyro_Y,IMU_Trunk_Gyro_Z,IMU_Trunk_Roll,IMU_Trunk_Pitch,IMU_Trunk_Yaw,IMU_Trunk_Quat_x,IMU_Trunk_Quat_y,IMU_Trunk_Quat_z,IMU_Trunk_Quat_w,IMU_L_Femur_Acc_X,IMU_L_Femur_Acc_Y,IMU_L_Femur_Acc_Z,IMU_L_Femur_Gyro_X,IMU_L_Femur_Gyro_Y,IMU_L_Femur_Gyro_Z,IMU_L_Femur_Roll,IMU_L_Femur_Pitch,IMU_L_Femur_Yaw,IMU_L_Femur_Quat_x,IMU_L_Femur_Quat_y,IMU_L_Femur_Quat_z,IMU_L_Femur_Quat_w,IMU_L_Tibia_Acc_X,IMU_L_Tibia_Acc_Y,IMU_L_Tibia_Acc_Z,IMU_L_Tibia_Gyro_X,IMU_L_Tibia_Gyro_Y,IMU_L_Tibia_Gyro_Z,IMU_L_Tibia_Roll,IMU_L_Tibia_Pitch,IMU_L_Tibia_Yaw,IMU_L_Tibia_Quat_x,IMU_L_Tibia_Quat_y,IMU_L_Tibia_Quat_z,IMU_L_Tibia_Quat_w,IMU_L_Foot_Acc_X,IMU_L_Foot_Acc_Y,IMU_L_Foot_Acc_Z,IMU_L_Foot_Gyro_X,IMU_L_Foot_Gyro_Y,IMU_L_Foot_Gyro_Z,IMU_L_Foot_Roll,IMU_L_Foot_Pitch,IMU_L_Foot_Yaw,IMU_L_Foot_Quat_x,IMU_L_Foot_Quat_y,IMU_L_Foot_Quat_z,IMU_L_Foot_Quat_w,IMU_R_Femur_Acc_X,IMU_R_Femur_Acc_Y,IMU_R_Femur_Acc_Z,IMU_R_Femur_Gyro_X,IMU_R_Femur_Gyro_Y,IMU_R_Femur_Gyro_Z,IMU_R_Femur_Roll,IMU_R_Femur_Pitch,IMU_R_Femur_Yaw,IMU_R_Femur_Quat_x,IMU_R_Femur_Quat_y,IMU_R_Femur_Quat_z,IMU_R_Femur_Quat_w,IMU_R_Tibia_Acc_X,IMU_R_Tibia_Acc_Y,IMU_R_Tibia_Acc_Z,IMU_R_Tibia_Gyro_X,IMU_R_Tibia_Gyro_Y,IMU_R_Tibia_Gyro_Z,IMU_R_Tibia_Roll,IMU_R_Tibia_Pitch,IMU_R_Tibia_Yaw,IMU_R_Tibia_Quat_x,IMU_R_Tibia_Quat_y,IMU_R_Tibia_Quat_z,IMU_R_Tibia_Quat_w,IMU_R_Foot_Acc_X,IMU_R_Foot_Acc_Y,IMU_R_Foot_Acc_Z,IMU_R_Foot_Gyro_X,IMU_R_Foot_Gyro_Y,IMU_R_Foot_Gyro_Z,IMU_R_Foot_Roll,IMU_R_Foot_Pitch,IMU_R_Foot_Yaw,IMU_R_Foot_Quat_x,IMU_R_Foot_Quat_y,IMU_R_Foot_Quat_z,IMU_R_Foot_Quat_w,Planter_Left_0,Planter_Left_1,Planter_Left_2,Planter_Left_3,Planter_Left_4,Planter_Left_5,Planter_Left_6,Planter_Left_7,Planter_Left_8,Planter_Left_9,Planter_Left_10,Planter_Left_11,Planter_Left_12,Planter_Left_13,Planter_Left_14,Planter_Left_15,Planter_Left_16,Planter_Left_17,Planter_Right_0,Planter_Right_1,Planter_Right_2,Planter_Right_3,Planter_Right_4,Planter_Right_5,Planter_Right_6,Planter_Right_7,Planter_Right_8,Planter_Right_9,Planter_Right_10,Planter_Right_11,Planter_Right_12,Planter_Right_13,Planter_Right_14,Planter_Right_15,Planter_Right_16,Planter_Right_17
1777039354.133866,7937,1777039344.7693174,,,0,0,,,0,0,0.0,0.0,0.0,0.0,0.0,0.0,0.0,0.0,0.0,0.0,0.0,0.0,0.0,0.0,0.0,0.0,0.0,0.0,0.0,0.0,0.0,0.0,0.0,0.0,0.0,0.0,0.0,0.0,0.0,0.0,0.0,0.0,0.0,0.0,0.0,0.0,0.0,0.0,0.0,0.0,0.0,0.0,0.0,0.0,0.0,0.0,0.0,0.0,0.0,0.0,0.0,0.0,0.0,0.0,0.0,0.0,0.0,0.0,0.0,0.0,0.0,0.0,0.0,0.0,0.0,0.0,0.0,0.0,0.0,0.0,0.0,0.0,0.0,0.0,0.0,0.0,0.0,0.0,0.0,0.0,0.0,0.0,0.0,0.0,0.0,0.0,0.0,1.0,0.0,0.0,0.0,0.0,0.0,0.0,0.0,0.0,0.0,0.0,0.0,0.0,1.0,0.0,0.0,0.0,0.0,0.0,0.0,0.0,0.0,0.0,0.0,0.0,0.0,1.0,0.0,0.0,0.0,0.0,0.0,0.0,0.0,0.0,0.0,0.0,0.0,0.0,1.0,0.0,0.0,0.0,0.0,0.0,0.0,0.0,0.0,0.0,0.0,0.0,0.0,1.0,0.0,0.0,0.0,0.0,0.0,0.0,0.0,0.0,0.0,0.0,0.0,0.0,1.0,0.0,0.0,0.0,0.0,0.0,0.0,0.0,0.0,0.0,0.0,0.0,0.0,1.0,0,0,0,0,0,0,0,0,0,0,0,0,0,0,0,0,0,0,0,0,0,0,0,0,0,0,0,0,0,0,0,0,0,0,0,0
1777039354.1347516,7938,1777039344.7723227,,,0,0,,,0,0,928.549116828786,408.6811135091576,834.1480185709208,922.3053511624707,405.83970742312835,839.0368517366147,916.5579016473378,428.99432522666973,818.619867606051,935.8013821494977,432.10792621033545,794.3492141381797,932.1312061234847,442.72866619198726,783.4320453915315,934.7928824951014,411.5225195951869,829.259185405227,944.7089878083792,432.1685034459215,807.7781018944736,951.702459059744,444.3488582338246,779.9967954137278,951.4999682734557,447.86890058183934,764.73169853843,748.6290283203125,644.2305297851562,1110.4984130859375,1000.0582885742188,661.7489624023438,1104.78515625,784.8469848632812,465.27520751953125,1149.7298583984375,945.5821533203125,459.7391052246094,1148.675537109375,675.3886108398438,576.5886840820312,858.86767578125,707.126220703125,673.5843505859375,610.423828125,688.9031372070312,689.38134765625,435.39923095703125,710.806884765625,772.1027221679688,245.88623046875,779.4461669921875,716.4655151367188,146.4534149169922,750.4629516601562,967.673583984375,242.17111206054688,1040.5284423828125,556.6890869140625,786.25244140625,990.2131958007812,467.43389892578125,568.8440551757812,1002.0919189453125,409.4674377441406,444.2015686035156,955.6383666992188,318.8620300292969,250.625244140625,896.5868530273438,226.02005004882812,188.7020721435547,930.741943359375,486.9764099121094,174.45314025878906,0.0,0.0,0.0,0.0,0.0,0.0,0.0,0.0,0.0,0.0,0.0,0.0,1.0,0.0,0.0,0.0,0.0,0.0,0.0,0.0,0.0,0.0,0.0,0.0,0.0,1.0,0.0,0.0,0.0,0.0,0.0,0.0,0.0,0.0,0.0,0.0,0.0,0.0,1.0,0.0,0.0,0.0,0.0,0.0,0.0,0.0,0.0,0.0,0.0,0.0,0.0,1.0,0.0,0.0,0.0,0.0,0.0,0.0,0.0,0.0,0.0,0.0,0.0,0.0,1.0,0.0,0.0,0.0,0.0,0.0,0.0,0.0,0.0,0.0,0.0,0.0,0.0,1.0,0.0,0.0,0.0,0.0,0.0,0.0,0.0,0.0,0.0,0.0,0.0,0.0,1.0,0,0,0,0,0,0,0,0,0,0,0,0,0,0,0,0,0,0,0,0,0,0,0,0,0,0,0,0,0,0,0,0,0,0,0,0
1777039354.1347516,7939,1777039344.7733178,,,0,0,,,0,0,927.1841873476734,407.9698714736363,834.037727403317,920.9141820509147,405.16416513945256,838.9135794835702,915.4087749516118,428.25729907034605,818.3607110592959,934.651833429529,430.89886146439954,794.0338222073739,931.1268874321291,441.48324228278483,783.0337984951547,933.454192644432,410.77557780782007,829.1618753230639,943.4006088223875,431.42061018979024,807.6938948473163,950.3867606492043,443.3225536079288,779.790344926131,950.2193385152518,446.67852622775257,764.4879169858782,746.9322509765625,646.2998046875,1109.524169921875,998.454833984375,663.3744506835938,1103.959716796875,783.038330078125,467.2491149902344,1148.5103759765625,943.7820434570312,461.30401611328125,1147.4862060546875,674.8692016601562,579.2904663085938,857.3289794921875,707.7072143554688,675.02685546875,608.7129516601562,690.8399658203125,689.3875122070312,433.3110046386719,713.8977661132812,769.814208984375,243.55081176757812,781.4866333007812,711.3462524414062,146.5429229736328,756.4955444335938,964.8302612304688,237.0113525390625,1039.309814453125,557.6591796875,785.4761352539062,989.6106567382812,466.8487854003906,568.8466186523438,1001.870849609375,406.60211181640625,445.2884826660156,956.0128173828125,312.81396484375,252.90809631347656,897.09521484375,219.0679931640625,191.5677032470703,930.9302978515625,479.2295227050781,174.3552703857422,0.0,0.0,0.0,0.0,0.0,0.0,0.0,0.0,0.0,0.0,0.0,0.0,1.0,0.0,0.0,0.0,0.0,0.0,0.0,0.0,0.0,0.0,0.0,0.0,0.0,1.0,0.0,0.0,0.0,0.0,0.0,0.0,0.0,0.0,0.0,0.0,0.0,0.0,1.0,0.0,0.0,0.0,0.0,0.0,0.0,0.0,0.0,0.0,0.0,0.0,0.0,1.0,0.0,0.0,0.0,0.0,0.0,0.0,0.0,0.0,0.0,0.0,0.0,0.0,1.0,0.0,0.0,0.0,0.0,0.0,0.0,0.0,0.0,0.0,0.0,0.0,0.0,1.0,0.0,0.0,0.0,0.0,0.0,0.0,0.0,0.0,0.0,0.0,0.0,0.0,1.0,0,0,0,0,0,0,0,0,0,0,0,0,0,0,0,0,0,0,0,0,0,0,0,0,0,0,0,0,0,0,0,0,0,0,0,0
1777039354.1347516,7940,1777039344.7849212,,,0,0,,,0,0,925.7017041458174,407.2625052256789,833.952216454009,919.4010862012204,404.49563739780444,838.810770138272,914.129705701125,427.5030416108964,818.1009984943503,933.3189011070028,429.56533252220987,793.6757572764598,929.9344742063797,440.0959121680721,782.5803785024357,932.0023220904144,410.0293730535534,829.093662769746,941.9870999904641,430.69250829429177,807.6609355784993,948.9658591753281,442.31398431587473,779.6375723256805,948.8375512988949,445.5050073399872,764.2995218494627,745.1878051757812,648.504150390625,1108.6312255859375,996.7999267578125,665.0779418945312,1103.2117919921875,781.1736450195312,469.32904052734375,1147.3526611328125,941.9263916015625,462.9244079589844,1146.323486328125,674.3740844726562,582.267822265625,855.8938598632812,708.2220458984375,676.7274169921875,607.1200561523438,692.70703125,689.172119140625,431.2594909667969,716.7861938476562,766.6875,241.11285400390625,783.1426391601562,705.1160278320312,146.7932586669922,762.0288696289062,961.077880859375,230.95899963378906,1038.1380615234375,558.9849853515625,784.6845703125,989.0628662109375,466.8815002441406,568.828857421875,1001.7025146484375,404.1835632324219,446.5030212402344,956.460693359375,307.05621337890625,255.4456787109375,897.6104125976562,212.25271606445312,194.75863647460938,931.1199951171875,471.4784240722656,174.290771484375,0.0,0.0,0.0,0.0,0.0,0.0,0.0,0.0,0.0,0.0,0.0,0.0,1.0,0.0,0.0,0.0,0.0,0.0,0.0,0.0,0.0,0.0,0.0,0.0,0.0,1.0,0.0,0.0,0.0,0.0,0.0,0.0,0.0,0.0,0.0,0.0,0.0,0.0,1.0,0.0,0.0,0.0,0.0,0.0,0.0,0.0,0.0,0.0,0.0,0.0,0.0,1.0,0.0,0.0,0.0,0.0,0.0,0.0,0.0,0.0,0.0,0.0,0.0,0.0,1.0,0.0,0.0,0.0,0.0,0.0,0.0,0.0,0.0,0.0,0.0,0.0,0.0,1.0,0.0,0.0,0.0,0.0,0.0,0.0,0.0,0.0,0.0,0.0,0.0,0.0,1.0,0,0,0,0,0,0,0,0,0,0,0,0,0,0,0,0,0,0,0,0,0,0,0,0,0,0,0,0,0,0,0,0,0,0,0,0
1777039354.1347516,7941,1777039344.7976124,,,0,0,,,0,0,924.3141307157151,406.80874000742006,833.8990541820334,917.9873391169342,404.0751810829028,838.7424261102832,912.9290129744456,426.9762787699537,817.8623924917963,932.0223738870719,428.40818258391283,793.3172525816685,928.7649787056265,438.86869666439986,782.1180604203382,930.640922314496,409.5422989319373,829.0556822537836,940.6662879979385,430.251901468813,807.6868463420486,947.6354121707484,441.59644079523366,779.5478447887732,947.543425443743,444.6152121853044,764.174704543556,743.407958984375,650.8201293945312,1107.8328857421875,995.1048583984375,666.835205078125,1102.551025390625,779.2630615234375,471.49407958984375,1146.2783203125,940.0245361328125,464.58074951171875,1145.2066650390625,673.8807373046875,585.456298828125,854.588623046875,708.6396484375,678.6371459960938,605.6734619140625,694.394775390625,688.8231201171875,429.317626953125,719.3490600585938,762.9744262695312,238.6923065185547,784.384033203125,698.2133178710938,147.24925231933594,766.9288940429688,956.6828002929688,224.37380981445312,1037.025634765625,560.6748657226562,783.8831176757812,988.5877685546875,467.59490966796875,568.78955078125,1001.60546875,402.2857971191406,447.8558044433594,957.0055541992188,301.66748046875,258.26544189453125,898.1331176757812,205.6355743408203,198.34584045410156,931.317138671875,463.7509765625,174.25762939453125,0.0,0.0,0.0,0.0,0.0,0.0,0.0,0.0,0.0,0.0,0.0,0.0,1.0,0.0,0.0,0.0,0.0,0.0,0.0,0.0,0.0,0.0,0.0,0.0,0.0,1.0,0.0,0.0,0.0,0.0,0.0,0.0,0.0,0.0,0.0,0.0,0.0,0.0,1.0,0.0,0.0,0.0,0.0,0.0,0.0,0.0,0.0,0.0,0.0,0.0,0.0,1.0,0.0,0.0,0.0,0.0,0.0,0.0,0.0,0.0,0.0,0.0,0.0,0.0,1.0,0.0,0.0,0.0,0.0,0.0,0.0,0.0,0.0,0.0,0.0,0.0,0.0,1.0,0.0,0.0,0.0,0.0,0.0,0.0,0.0,0.0,0.0,0.0,0.0,0.0,1.0,0,0,0,0,0,0,0,0,0,0,0,0,0,0,0,0,0,0,0,0,0,0,0,0,0,0,0,0,0,0,0,0,0,0,0,0
1777039354.1347516,7942,1777039344.8112874,,,0,0,,,0,0,922.9068429688666,406.5190678159869,833.9274348695603,916.5533007625609,403.81841431132153,838.7542205540506,911.6857181552734,426.6009328277937,817.6998568222109,930.6484941741884,427.3810539121231,793.0244599777783,927.5054539070352,437.76063361622374,781.7178023678633,929.2603851751724,409.21972132065224,829.1006491850701,939.3329640470407,429.99251469441975,807.8155146338036,946.2939009125005,441.0631306137922,779.5656032392379,946.2399320120728,443.90629414711833,764.1588387592076,741.6060180664062,653.2196044921875,1107.141845703125,993.3819580078125,668.6189575195312,1101.9871826171875,777.3176879882812,473.7201232910156,1145.30859375,938.0866088867188,466.2518310546875,1144.155029296875,673.3662109375,588.7823486328125,853.441162109375,708.93115234375,680.7005615234375,604.4015502929688,695.7971801757812,688.4113159179688,427.5614929199219,721.4880981445312,758.8834228515625,236.40072631835938,785.2219848632812,690.9938354492188,147.9231414794922,771.0941772460938,951.8462524414062,217.624755859375,1035.9830322265625,562.7327880859375,783.0809936523438,988.2032470703125,469.0481262207031,568.7313232421875,1001.5992431640625,400.98919677734375,449.3580322265625,957.67236328125,296.7377624511719,261.396728515625,898.6713256835938,199.3065185546875,202.42822265625,931.5323486328125,456.08941650390625,174.2435302734375,0.0,0.0,0.0,0.0,0.0,0.0,0.0,0.0,0.0,0.0,0.0,0.0,1.0,0.0,0.0,0.0,0.0,0.0,0.0,0.0,0.0,0.0,0.0,0.0,0.0,1.0,0.0,0.0,0.0,0.0,0.0,0.0,0.0,0.0,0.0,0.0,0.0,0.0,1.0,0.0,0.0,0.0,0.0,0.0,0.0,0.0,0.0,0.0,0.0,0.0,0.0,1.0,0.0,0.0,0.0,0.0,0.0,0.0,0.0,0.0,0.0,0.0,0.0,0.0,1.0,0.0,0.0,0.0,0.0,0.0,0.0,0.0,0.0,0.0,0.0,0.0,0.0,1.0,0.0,0.0,0.0,0.0,0.0,0.0,0.0,0.0,0.0,0.0,0.0,0.0,1.0,0,0,0,0,0,0,0,0,0,0,0,0,0,0,0,0,0,0,0,0,0,0,0,0,0,0,0,0,0,0,0,0,0,0,0,0
1777039354.1347516,7943,1777039344.823465,,,0,0,,,0,0,921.541242278171,406.453943944843,834.0856373539855,915.1611447120353,403.7841070040979,838.8945055908986,910.4547362635323,426.4391436226947,817.6666517693116,929.2623731782909,426.57956326488414,792.8609316893243,926.218072173776,436.86945137359874,781.4457962382393,927.9213398443068,409.1237808855881,829.2767691170724,938.0424107554207,429.9735751673379,808.0901520070738,944.9948573734002,440.78137343117385,779.7365692459418,944.9798934027444,443.4453617505661,764.2977277875843,739.7959594726562,655.6707153320312,1106.57080078125,991.6444091796875,670.39990234375,1101.530029296875,775.349365234375,475.9804382324219,1144.4632568359375,936.1231689453125,467.9154052734375,1143.1878662109375,672.8084716796875,592.166259765625,852.4788818359375,709.073486328125,682.8564453125,603.3299560546875,696.8223876953125,687.9822387695312,426.06182861328125,723.1397705078125,754.5628662109375,234.32955932617188,785.6992797851562,683.7047729492188,148.78468322753906,774.472900390625,946.6942749023438,211.06056213378906,1035.018310546875,565.1564331054688,782.2914428710938,987.9259643554688,471.2931823730469,568.6615600585938,1001.7032470703125,400.3769836425781,451.02099609375,958.4844970703125,292.36480712890625,264.8699035644531,899.2417602539062,193.38795471191406,207.13365173339844,931.7817993164062,448.5516662597656,174.22300720214844,0.0,0.0,0.0,0.0,0.0,0.0,0.0,0.0,0.0,0.0,0.0,0.0,1.0,0.0,0.0,0.0,0.0,0.0,0.0,0.0,0.0,0.0,0.0,0.0,0.0,1.0,0.0,0.0,0.0,0.0,0.0,0.0,0.0,0.0,0.0,0.0,0.0,0.0,1.0,0.0,0.0,0.0,0.0,0.0,0.0,0.0,0.0,0.0,0.0,0.0,0.0,1.0,0.0,0.0,0.0,0.0,0.0,0.0,0.0,0.0,0.0,0.0,0.0,0.0,1.0,0.0,0.0,0.0,0.0,0.0,0.0,0.0,0.0,0.0,0.0,0.0,0.0,1.0,0.0,0.0,0.0,0.0,0.0,0.0,0.0,0.0,0.0,0.0,0.0,0.0,1.0,0,0,0,0,0,0,0,0,0,0,0,0,0,0,0,0,0,0,0,0,0,0,0,0,0,0,0,0,0,0,0,0,0,0,0,0
1777039354.1347516,7944,1777039344.8254638,,,0,0,,,0,0,920.3000313087056,406.70165570870984,834.4014937053529,913.8922804244236,404.0610021232385,839.1896630016593,909.3126346797992,426.58125625697096,817.7913513591343,927.9521043683146,426.1176132336755,792.8629362960411,924.9877893182172,436.30987963205365,781.3396804535793,926.7077821929876,409.3423092941812,829.6133244090465,936.8749233195675,430.28877777400993,808.5444506356215,943.8156561070986,440.84325771776383,780.092739717489,943.8378923392846,443.3237408575264,764.6233637699628,737.9920654296875,658.138427734375,1106.131103515625,989.9061889648438,672.1474609375,1101.18896484375,773.3702392578125,478.2463073730469,1143.760009765625,934.1450805664062,469.54876708984375,1142.3236083984375,672.1881713867188,595.5261840820312,851.7266235351562,709.0523681640625,685.0386352539062,602.4784545898438,697.404541015625,687.55126953125,424.87548828125,724.2820434570312,750.0986938476562,232.5438995361328,785.8798828125,676.4837036132812,149.76620483398438,777.0704956054688,941.2841186523438,204.9870147705078,1034.136474609375,567.9365844726562,781.5322265625,987.7697143554688,474.3709716796875,568.5928344726562,1001.93408203125,400.5302429199219,452.85601806640625,959.45947265625,288.6488342285156,268.71514892578125,899.868408203125,188.03515625,212.61459350585938,932.0872192382812,441.21026611328125,174.15625,0.0,0.0,0.0,0.0,0.0,0.0,0.0,0.0,0.0,0.0,0.0,0.0,1.0,0.0,0.0,0.0,0.0,0.0,0.0,0.0,0.0,0.0,0.0,0.0,0.0,1.0,0.0,0.0,0.0,0.0,0.0,0.0,0.0,0.0,0.0,0.0,0.0,0.0,1.0,0.0,0.0,0.0,0.0,0.0,0.0,0.0,0.0,0.0,0.0,0.0,0.0,1.0,0.0,0.0,0.0,0.0,0.0,0.0,0.0,0.0,0.0,0.0,0.0,0.0,1.0,0.0,0.0,0.0,0.0,0.0,0.0,0.0,0.0,0.0,0.0,0.0,0.0,1.0,0.0,0.0,0.0,0.0,0.0,0.0,0.0,0.0,0.0,0.0,0.0,0.0,1.0,0,0,0,0,0,0,0,0,0,0,0,0,0,0,0,0,0,0,0,0,0,0,0,0,0,0,0,0,0,0,0,0,0,0,0,0
1777039354.1347516,7945,1777039344.8360333,,,0,0,,,0,0,919.3406197462326,407.3588522036717,834.933719817813,912.9156629792614,404.73571728761607,839.7084430263656,908.4186098737961,427.1112883862921,818.1414990166203,926.8881253965375,426.10212237192843,793.1029436870759,923.9822976813024,436.18806284801747,781.4717419750973,925.7655765132039,409.9819871197273,830.1589966092604,935.9642961306713,431.03960337038507,809.2165598229385,942.885273327214,441.3671568610698,780.6768964363117,942.9404785407261,443.65883173726104,765.1785074261982,736.2083129882812,660.5859985351562,1105.8323974609375,988.1814575195312,673.830810546875,1100.9732666015625,771.392578125,480.4878845214844,1143.21337890625,932.163330078125,471.1292419433594,1141.5794677734375,671.4898681640625,598.7818603515625,851.2037353515625,708.8651733398438,687.1758422851562,601.857421875,697.5152587890625,687.1027221679688,424.0382080078125,724.935546875,745.5225830078125,231.08135986328125,785.8379516601562,669.37890625,150.7798309326172,778.9465942382812,935.6234741210938,199.6464385986328,1033.3402099609375,571.055419921875,780.8252563476562,987.7444458007812,478.3072204589844,568.543701171875,1002.3036499023438,401.521728515625,454.8740539550781,960.6047973632812,285.6856384277344,272.9607238769531,900.5786743164062,183.4314727783203,219.0372772216797,932.4755859375,434.1487121582031,173.9912872314453,0.0,0.0,0.0,0.0,0.0,0.0,0.0,0.0,0.0,0.0,0.0,0.0,1.0,0.0,0.0,0.0,0.0,0.0,0.0,0.0,0.0,0.0,0.0,0.0,0.0,1.0,0.0,0.0,0.0,0.0,0.0,0.0,0.0,0.0,0.0,0.0,0.0,0.0,1.0,0.0,0.0,0.0,0.0,0.0,0.0,0.0,0.0,0.0,0.0,0.0,0.0,1.0,0.0,0.0,0.0,0.0,0.0,0.0,0.0,0.0,0.0,0.0,0.0,0.0,1.0,0.0,0.0,0.0,0.0,0.0,0.0,0.0,0.0,0.0,0.0,0.0,0.0,1.0,0.0,0.0,0.0,0.0,0.0,0.0,0.0,0.0,0.0,0.0,0.0,0.0,1.0,0,0,0,0,0,0,0,0,0,0,0,0,0,0,0,0,0,0,0,0,0,0,0,0,0,0,0,0,0,0,0,0,0,0,0,0
1777039354.135788,7946,1777039344.846301,,,0,0,,,0,0,918.4594552436793,408.26842903302327,835.7404820997896,912.0077310963454,405.6659422754827,840.4903459049009,907.5571936153696,427.88957887106835,818.7572965297546,925.8597977090807,426.38517878767544,793.6212241146388,922.9975805802829,436.35861546209475,781.8826911027357,924.9111793910131,410.87091579056386,830.9906182946783,935.1343918183309,432.04482884212626,810.1777838818555,942.0265493587791,442.1595165743261,781.5550319317422,942.1182978169513,444.2645502699212,766.0303645078195,734.4581298828125,662.9762573242188,1105.6822509765625,986.4840698242188,675.419921875,1100.890869140625,769.4282836914062,482.6752624511719,1142.834228515625,930.1884155273438,472.635009765625,1140.9703369140625,670.7029418945312,601.8584594726562,850.921630859375,708.5216674804688,689.1925048828125,601.4657592773438,697.170654296875,686.5939331054688,423.5606994628906,725.1580810546875,740.8286743164062,229.95404052734375,785.6492309570312,662.37939453125,151.73974609375,780.2018432617188,929.697265625,195.19786071777344,1032.6287841796875,574.4859619140625,780.196533203125,987.8546752929688,483.1086120605469,568.5387573242188,1002.8165283203125,403.4085388183594,457.0855712890625,961.913818359375,283.5586242675781,277.630859375,901.3978271484375,179.77784729003906,226.56419372558594,932.9774780273438,427.4552001953125,173.6708984375,0.0,0.0,0.0,0.0,0.0,0.0,0.0,0.0,0.0,0.0,0.0,0.0,1.0,0.0,0.0,0.0,0.0,0.0,0.0,0.0,0.0,0.0,0.0,0.0,0.0,1.0,0.0,0.0,0.0,0.0,0.0,0.0,0.0,0.0,0.0,0.0,0.0,0.0,1.0,0.0,0.0,0.0,0.0,0.0,0.0,0.0,0.0,0.0,0.0,0.0,0.0,1.0,0.0,0.0,0.0,0.0,0.0,0.0,0.0,0.0,0.0,0.0,0.0,0.0,1.0,0.0,0.0,0.0,0.0,0.0,0.0,0.0,0.0,0.0,0.0,0.0,0.0,1.0,0.0,0.0,0.0,0.0,0.0,0.0,0.0,0.0,0.0,0.0,0.0,0.0,1.0,0,0,0,0,0,0,0,0,0,0,0,0,0,0,0,0,0,0,0,0,0,0,0,0,0,0,0,0,0,0,0,0,0,0,0,0
1777039354.135788,7947,1777039344.859289,,,0,0,,,0,0,917.891156981295,409.541348000772,836.8482699191502,911.4237542787819,406.9497641464165,841.5827480712742,906.9774779133178,429.0105712369854,819.6835663619182,925.1285689135524,427.0742555178001,794.4673166483541,922.2908889807396,436.92682246246113,782.6212463943644,924.3585596838082,412.13293185512754,832.1137917670262,934.5868183612798,433.4393849144613,811.4391569455378,941.444792350408,443.3898952946744,782.7507235861209,941.5688362901079,445.3081093723705,767.2020917776393,732.7539672851562,665.2730102539062,1105.685302734375,984.827392578125,676.8870239257812,1100.948974609375,767.4884033203125,484.77935791015625,1142.629150390625,928.23046875,474.04571533203125,1140.5086669921875,669.822509765625,604.6898803710938,850.88134765625,708.043212890625,691.01025390625,601.289794921875,696.4322509765625,685.9614868164062,423.4281311035156,725.0345458984375,735.990234375,229.15211486816406,785.3836669921875,655.4459228515625,152.5811309814453,780.9617309570312,923.4927368164062,191.70408630371094,1031.998779296875,578.1917724609375,779.6751098632812,988.0985717773438,488.75958251953125,568.608154296875,1003.4683837890625,406.22540283203125,459.5005187988281,963.3638916015625,282.33099365234375,282.7434997558594,902.3414916992188,177.27645874023438,235.33116149902344,933.6245727539062,421.2146911621094,173.1438751220703,0.0,0.0,0.0,0.0,0.0,0.0,0.0,0.0,0.0,0.0,0.0,0.0,1.0,0.0,0.0,0.0,0.0,0.0,0.0,0.0,0.0,0.0,0.0,0.0,0.0,1.0,0.0,0.0,0.0,0.0,0.0,0.0,0.0,0.0,0.0,0.0,0.0,0.0,1.0,0.0,0.0,0.0,0.0,0.0,0.0,0.0,0.0,0.0,0.0,0.0,0.0,1.0,0.0,0.0,0.0,0.0,0.0,0.0,0.0,0.0,0.0,0.0,0.0,0.0,1.0,0.0,0.0,0.0,0.0,0.0,0.0,0.0,0.0,0.0,0.0,0.0,0.0,1.0,0.0,0.0,0.0,0.0,0.0,0.0,0.0,0.0,0.0,0.0,0.0,0.0,1.0,0,0,0,0,0,0,0,0,0,0,0,0,0,0,0,0,0,0,0,0,0,0,0,0,0,0,0,0,0,0,0,0,0,0,0,0
1777039354.135788,7948,1777039344.8713524,,,0,0,,,0,0,917.4756907951819,411.23916313706485,838.2849762672323,910.991182026947,408.65604541873597,843.0006455571115,906.5177639137481,430.5375676439203,820.9278057298932,924.5398203392066,428.2193229270074,795.6512969458446,921.7137602719965,437.9416301678513,783.6953356848783,923.9601995634168,413.8222808553937,833.5693069773531,934.1925022446904,435.26735924547455,813.0405140945054,941.0159865895449,445.07852290617507,784.2959180511016,941.1737912077775,446.8117152993175,768.7258819209768,731.106689453125,667.4426879882812,1105.8427734375,983.2235717773438,678.2073974609375,1101.1527099609375,765.5830078125,486.7729797363281,1142.6002197265625,926.2987670898438,475.3430480957031,1140.2041015625,668.8499145507812,607.2205200195312,851.0724487304688,707.460205078125,692.5505981445312,601.3043823242188,695.398681640625,685.1290893554688,423.6029357910156,724.664794921875,730.974365234375,228.64805603027344,785.1006469726562,648.5349731445312,153.2696075439453,781.3611450195312,917.0146484375,189.13482666015625,1031.444091796875,582.1273803710938,779.2921752929688,988.467529296875,495.2210388183594,568.7872924804688,1004.2451782226562,409.9788513183594,462.1285095214844,964.9153442382812,282.0394592285156,288.3072814941406,903.4072875976562,176.110107421875,245.4207305908203,934.4453125,415.5014953613281,172.37916564941406,0.0,0.0,0.0,0.0,0.0,0.0,0.0,0.0,0.0,0.0,0.0,0.0,1.0,0.0,0.0,0.0,0.0,0.0,0.0,0.0,0.0,0.0,0.0,0.0,0.0,1.0,0.0,0.0,0.0,0.0,0.0,0.0,0.0,0.0,0.0,0.0,0.0,0.0,1.0,0.0,0.0,0.0,0.0,0.0,0.0,0.0,0.0,0.0,0.0,0.0,0.0,1.0,0.0,0.0,0.0,0.0,0.0,0.0,0.0,0.0,0.0,0.0,0.0,0.0,1.0,0.0,0.0,0.0,0.0,0.0,0.0,0.0,0.0,0.0,0.0,0.0,0.0,1.0,0.0,0.0,0.0,0.0,0.0,0.0,0.0,0.0,0.0,0.0,0.0,0.0,1.0,0,0,0,0,0,0,0,0,0,0,0,0,0,0,0,0,0,0,0,0,0,0,0,0,0,0,0,0,0,0,0,0,0,0,0,0
1777039354.135788,7949,1777039344.8723507,,,0,0,,,0,0,917.1798534657311,413.184231635211,840.0746489800237,910.6781798163745,410.6069143900067,844.7698128257703,906.1492632648159,432.2951275567756,822.5182271059483,924.067935891368,429.6404942450402,797.201340133758,921.2446660885345,439.224881777877,785.1338819712706,923.6815271150876,415.7615488804153,835.379485134277,933.9103667018011,437.34491709826193,814.9943974565922,940.6973999721125,447.05748387011363,786.2077182669046,940.8934947482919,448.6135477592007,770.6194183187253,729.5252685546875,669.4556274414062,1106.15234375,981.6830444335938,679.3604736328125,1101.505615234375,763.7207641601562,488.6319274902344,1142.74462890625,924.4014892578125,476.51129150390625,1140.0628662109375,667.7925415039062,609.40673828125,851.47314453125,706.8086547851562,693.73876953125,601.47509765625,694.1917724609375,684.0147705078125,424.0299987792969,724.152099609375,725.7514038085938,228.40151977539062,784.8463134765625,641.6124877929688,153.8003692626953,781.5298461914062,910.28955078125,187.38536071777344,1030.955810546875,586.23974609375,779.0795288085938,988.9462280273438,502.4305114746094,569.1151123046875,1005.1229248046875,414.6441345214844,464.9789733886719,966.5134887695312,282.69073486328125,294.3185119628906,904.567138671875,176.4194793701172,256.83563232421875,935.4603271484375,410.3743591308594,171.3801727294922,0.0,0.0,0.0,0.0,0.0,0.0,0.0,0.0,0.0,0.0,0.0,0.0,1.0,0.0,0.0,0.0,0.0,0.0,0.0,0.0,0.0,0.0,0.0,0.0,0.0,1.0,0.0,0.0,0.0,0.0,0.0,0.0,0.0,0.0,0.0,0.0,0.0,0.0,1.0,0.0,0.0,0.0,0.0,0.0,0.0,0.0,0.0,0.0,0.0,0.0,0.0,1.0,0.0,0.0,0.0,0.0,0.0,0.0,0.0,0.0,0.0,0.0,0.0,0.0,1.0,0.0,0.0,0.0,0.0,0.0,0.0,0.0,0.0,0.0,0.0,0.0,0.0,1.0,0.0,0.0,0.0,0.0,0.0,0.0,0.0,0.0,0.0,0.0,0.0,0.0,1.0,0,0,0,0,0,0,0,0,0,0,0,0,0,0,0,0,0,0,0,0,0,0,0,0,0,0,0,0,0,0,0,0,0,0,0,0
1777039354.135788,7950,1777039344.8840463,,,0,0,,,0,0,917.4310132777531,415.6393401599753,842.2226593517438,910.9112536329611,413.0578130788811,846.8903504369904,906.2815053956685,434.52818109287233,824.4490610099579,924.1318834199362,431.6006847434335,799.1140172524517,921.2959740520697,441.03454997173304,786.931460534993,923.9507729225451,418.22086724106947,837.5549682664972,934.137535296434,439.94903471120506,817.3030707437357,940.8536447512095,449.5906759839262,788.4759428944403,941.0824132888813,450.9727265454609,772.8716971752744,728.0166015625,671.2871704101562,1106.6077880859375,980.2144775390625,680.3309326171875,1102.009033203125,761.9088134765625,490.3356018066406,1143.0555419921875,922.5460205078125,477.5376281738281,1140.087646484375,666.663330078125,611.2167358398438,852.0511474609375,706.1265869140625,694.508544921875,601.76123046875,692.9393920898438,682.5389404296875,424.6431579589844,723.5928344726562,720.3004760742188,228.3645782470703,784.6522216796875,634.6578369140625,154.1909942626953,781.5805053710938,903.3607177734375,186.30381774902344,1030.523681640625,590.4701538085938,779.0679931640625,989.51318359375,510.30419921875,569.6320190429688,1006.0689697265625,420.16485595703125,468.06097412109375,968.0925903320312,284.2612609863281,300.75762939453125,905.7625122070312,178.28173828125,269.4770812988281,936.6779174804688,405.8775939941406,170.19615173339844,0.0,0.0,0.0,0.0,0.0,0.0,0.0,0.0,0.0,0.0,0.0,0.0,1.0,0.0,0.0,0.0,0.0,0.0,0.0,0.0,0.0,0.0,0.0,0.0,0.0,1.0,0.0,0.0,0.0,0.0,0.0,0.0,0.0,0.0,0.0,0.0,0.0,0.0,1.0,0.0,0.0,0.0,0.0,0.0,0.0,0.0,0.0,0.0,0.0,0.0,0.0,1.0,0.0,0.0,0.0,0.0,0.0,0.0,0.0,0.0,0.0,0.0,0.0,0.0,1.0,0.0,0.0,0.0,0.0,0.0,0.0,0.0,0.0,0.0,0.0,0.0,0.0,1.0,0.0,0.0,0.0,0.0,0.0,0.0,0.0,0.0,0.0,0.0,0.0,0.0,1.0,0,0,0,0,0,0,0,0,0,0,0,0,0,0,0,0,0,0,0,0,0,0,0,0,0,0,0,0,0,0,0,0,0,0,0,0
1777039354.136788,7951,1777039344.8947108,,,0,0,,,0,0,917.5190260345636,418.2521941225966,844.7044098813099,910.9877672992159,415.66664306538826,849.3537617744325,906.2541835506723,436.9016517664232,826.7110955686328,924.0703770752044,433.72245839653823,801.3823243688038,921.223059313571,442.99920942360194,789.0823424497629,924.0502847699113,420.837745179805,840.0550579881872,934.2173843994898,442.70515498666987,819.9436379486767,940.885765587402,452.3195235812717,791.0963281687368,941.1591493782031,453.5415251358348,775.4794508635216,726.5850219726562,672.9182739257812,1107.1990966796875,978.82373046875,681.1088256835938,1102.6614990234375,760.15283203125,491.8675842285156,1143.5218505859375,920.7384643554688,478.4125671386719,1140.27783203125,665.480224609375,612.6296997070312,852.7662353515625,705.4508666992188,694.8058471679688,602.1198120117188,691.759521484375,680.6314697265625,425.3727111816406,723.0689697265625,714.6109619140625,228.48696899414062,784.5360107421875,627.6622314453125,154.47210693359375,781.6007080078125,896.2794799804688,185.7195587158203,1030.135498046875,594.7572631835938,779.285888671875,990.1421508789062,518.7407836914062,570.377197265625,1007.0436401367188,426.4559326171875,471.3816833496094,969.5812377929688,286.7010498046875,307.58544921875,906.904541015625,181.694580078125,283.13299560546875,938.0918579101562,402.0497741699219,168.92779541015625,0.0,0.0,0.0,0.0,0.0,0.0,0.0,0.0,0.0,0.0,0.0,0.0,1.0,0.0,0.0,0.0,0.0,0.0,0.0,0.0,0.0,0.0,0.0,0.0,0.0,1.0,0.0,0.0,0.0,0.0,0.0,0.0,0.0,0.0,0.0,0.0,0.0,0.0,1.0,0.0,0.0,0.0,0.0,0.0,0.0,0.0,0.0,0.0,0.0,0.0,0.0,1.0,0.0,0.0,0.0,0.0,0.0,0.0,0.0,0.0,0.0,0.0,0.0,0.0,1.0,0.0,0.0,0.0,0.0,0.0,0.0,0.0,0.0,0.0,0.0,0.0,0.0,1.0,0.0,0.0,0.0,0.0,0.0,0.0,0.0,0.0,0.0,0.0,0.0,0.0,1.0,0,0,0,0,0,0,0,0,0,0,0,0,0,0,0,0,0,0,0,0,0,0,0,0,0,0,0,0,0,0,0,0,0,0,0,0
1777039354.136788,7952,1777039344.9077349,,,0,0,,,0,0,917.8812087097559,421.20232823004807,847.5308871019835,911.3350355064293,418.61004534030894,852.1554491109941,906.479717864327,439.58299617989456,829.295353612082,924.2985767257139,436.187517865579,803.9965459608314,921.433808691087,445.29710742615316,791.5762655530374,924.4273819130825,423.7946111197872,842.9063250929728,934.5641129452229,445.80070575360884,822.931310061837,941.178201234214,455.4437012924473,794.081056235859,941.4970053525037,456.51598125394804,778.4540455530413,725.232666015625,674.3361206054688,1107.9130859375,977.51416015625,681.690185546875,1103.45947265625,758.457275390625,493.21612548828125,1144.1295166015625,918.9842529296875,479.1298828125,1140.629150390625,664.2647094726562,613.6351928710938,853.5735473632812,704.8141479492188,694.5927124023438,602.5092163085938,690.7476806640625,678.2389526367188,426.15264892578125,722.6431274414062,708.6832885742188,228.72096252441406,784.5025634765625,620.6241455078125,154.6791534423828,781.6505737304688,889.0955810546875,185.4672088623047,1029.778564453125,599.0405883789062,779.7567138671875,990.8038330078125,527.625732421875,571.3848266601562,1008.0022583007812,433.40887451171875,474.9442443847656,970.908447265625,289.93994140625,314.7396240234375,907.8817749023438,186.56761169433594,297.47943115234375,939.6825561523438,398.9388427734375,167.72569274902344,0.0,0.0,0.0,0.0,0.0,0.0,0.0,0.0,0.0,0.0,0.0,0.0,1.0,0.0,0.0,0.0,0.0,0.0,0.0,0.0,0.0,0.0,0.0,0.0,0.0,1.0,0.0,0.0,0.0,0.0,0.0,0.0,0.0,0.0,0.0,0.0,0.0,0.0,1.0,0.0,0.0,0.0,0.0,0.0,0.0,0.0,0.0,0.0,0.0,0.0,0.0,1.0,0.0,0.0,0.0,0.0,0.0,0.0,0.0,0.0,0.0,0.0,0.0,0.0,1.0,0.0,0.0,0.0,0.0,0.0,0.0,0.0,0.0,0.0,0.0,0.0,0.0,1.0,0.0,0.0,0.0,0.0,0.0,0.0,0.0,0.0,0.0,0.0,0.0,0.0,1.0,0,0,0,0,0,0,0,0,0,0,0,0,0,0,0,0,0,0,0,0,0,0,0,0,0,0,0,0,0,0,0,0,0,0,0,0
1777039354.136788,7953,1777039344.920426,,,0,0,,,0,0,918.3086379318217,424.34612685767485,850.6259800759192,911.7525256875643,421.74297152506847,855.2303109196566,906.7697122389916,442.43077821864046,832.1389929215238,924.6267254185383,438.844717462636,806.8934404173751,921.7438574872277,447.7796391395593,794.3510670223418,924.8647501760792,426.9492821902812,846.0216492321817,934.975625960517,449.09116524957085,826.1840599631909,941.5355826197182,458.79029653017386,797.3402652455914,941.9065502857652,459.7289818670273,781.7058117504513,723.958984375,675.533935546875,1108.733642578125,976.2862548828125,682.0767822265625,1104.3966064453125,756.8253173828125,494.3740234375,1144.8621826171875,917.2877197265625,479.6866149902344,1141.1346435546875,663.0405883789062,614.2315063476562,854.4271850585938,704.2432861328125,693.84912109375,602.8926391601562,689.9688110351562,675.3311157226562,426.9268493652344,722.3565673828125,702.5279541015625,229.0248260498047,784.5469360351562,613.5440673828125,154.84640502929688,781.763916015625,881.8496704101562,185.40370178222656,1029.4403076171875,603.2640380859375,780.4981079101562,991.468017578125,536.8364868164062,572.6807861328125,1008.89794921875,440.8993225097656,478.74395751953125,972.009521484375,293.8957824707031,322.13250732421875,908.5735473632812,192.72299194335938,312.09503173828125,941.4202270507812,396.61822509765625,166.78121948242188,0.0,0.0,0.0,0.0,0.0,0.0,0.0,0.0,0.0,0.0,0.0,0.0,1.0,0.0,0.0,0.0,0.0,0.0,0.0,0.0,0.0,0.0,0.0,0.0,0.0,1.0,0.0,0.0,0.0,0.0,0.0,0.0,0.0,0.0,0.0,0.0,0.0,0.0,1.0,0.0,0.0,0.0,0.0,0.0,0.0,0.0,0.0,0.0,0.0,0.0,0.0,1.0,0.0,0.0,0.0,0.0,0.0,0.0,0.0,0.0,0.0,0.0,0.0,0.0,1.0,0.0,0.0,0.0,0.0,0.0,0.0,0.0,0.0,0.0,0.0,0.0,0.0,1.0,0.0,0.0,0.0,0.0,0.0,0.0,0.0,0.0,0.0,0.0,0.0,0.0,1.0,0,0,0,0,0,0,0,0,0,0,0,0,0,0,0,0,0,0,0,0,0,0,0,0,0,0,0,0,0,0,0,0,0,0,0,0
1777039354.136788,7954,1777039344.9312787,,,0,0,,,0,0,918.8141310878676,427.6580162689961,853.9549598052229,912.2528207872042,425.0402103006153,858.5435529462508,907.1440222698182,445.41877814106994,835.2060960791131,925.0728407770139,441.6635514431285,810.0361455018257,922.171209744811,450.4169395558716,797.37069575998,925.375441388531,430.27582223737693,849.366366664195,935.4674105933439,452.55409570107827,829.6723718538367,941.9760839035373,462.348915895056,800.8493022430404,942.4045271887531,463.172064080574,785.2098090709901,722.76123046875,676.5106201171875,1109.642578125,975.1373901367188,682.27587890625,1105.4639892578125,755.259521484375,495.3385009765625,1145.70166015625,915.6530151367188,480.0829772949219,1141.7843017578125,661.8323974609375,614.4252319335938,855.2838134765625,703.7578735351562,692.5743408203125,603.2406005859375,689.4544067382812,671.9050903320312,427.6532287597656,722.229248046875,696.1639404296875,229.36508178710938,784.6571044921875,606.4212036132812,155.00314331054688,781.9531860351562,874.5693359375,185.4178924560547,1029.109375,607.3794555664062,781.5205078125,992.1055908203125,546.24755859375,574.2794799804688,1009.684326171875,448.7950439453125,482.76422119140625,972.830810546875,298.48309326171875,329.6508483886719,908.8662719726562,199.90576171875,326.4885559082031,943.2713623046875,395.19873046875,166.30938720703125,0.0,0.0,0.0,0.0,0.0,0.0,0.0,0.0,0.0,0.0,0.0,0.0,1.0,0.0,0.0,0.0,0.0,0.0,0.0,0.0,0.0,0.0,0.0,0.0,0.0,1.0,0.0,0.0,0.0,0.0,0.0,0.0,0.0,0.0,0.0,0.0,0.0,0.0,1.0,0.0,0.0,0.0,0.0,0.0,0.0,0.0,0.0,0.0,0.0,0.0,0.0,1.0,0.0,0.0,0.0,0.0,0.0,0.0,0.0,0.0,0.0,0.0,0.0,0.0,1.0,0.0,0.0,0.0,0.0,0.0,0.0,0.0,0.0,0.0,0.0,0.0,0.0,1.0,0.0,0.0,0.0,0.0,0.0,0.0,0.0,0.0,0.0,0.0,0.0,0.0,1.0,0,0,0,0,0,0,0,0,0,0,0,0,0,0,0,0,0,0,0,0,0,0,0,0,0,0,0,0,0,0,0,0,0,0,0,0
1777039354.136788,7955,1777039344.9325953,,,0,0,,,0,0,919.3232252715794,431.0371664208156,857.4504434424659,912.7543001375675,428.4039007530175,862.0192531857265,907.5216083483353,448.4517745162088,838.4242444601757,925.5501344867214,444.54755535765986,813.3483598153713,922.6318068607613,453.1143022885828,800.5597283736706,925.8921504055913,433.67043208861367,852.8816336992054,935.9700601646359,456.0788278554167,833.3285705992292,942.4201408195191,465.986671686808,804.5309706499582,942.9159569051122,466.71750230979745,788.8888820339089,721.6347045898438,677.27001953125,1110.620361328125,974.0626831054688,682.299072265625,1106.650634765625,753.7617797851562,496.11083984375,1146.62939453125,914.08349609375,480.3218994140625,1142.56591796875,660.6636962890625,614.2305908203125,856.1063842773438,703.3700561523438,690.7861328125,603.5325927734375,689.2044067382812,667.9868774414062,428.3053894042969,722.26220703125,689.6162109375,229.71719360351562,784.817138671875,599.2514038085938,155.17156982421875,782.2152099609375,867.2679443359375,185.43325805664062,1028.776611328125,611.3494873046875,782.826416015625,992.6905517578125,555.735107421875,576.181396484375,1010.3184814453125,456.9644775390625,486.972900390625,973.333984375,303.62042236328125,337.15838623046875,908.6697998046875,207.805908203125,340.13824462890625,945.205078125,394.8309020996094,166.52249145507812,0.0,0.0,0.0,0.0,0.0,0.0,0.0,0.0,0.0,0.0,0.0,0.0,1.0,0.0,0.0,0.0,0.0,0.0,0.0,0.0,0.0,0.0,0.0,0.0,0.0,1.0,0.0,0.0,0.0,0.0,0.0,0.0,0.0,0.0,0.0,0.0,0.0,0.0,1.0,0.0,0.0,0.0,0.0,0.0,0.0,0.0,0.0,0.0,0.0,0.0,0.0,1.0,0.0,0.0,0.0,0.0,0.0,0.0,0.0,0.0,0.0,0.0,0.0,0.0,1.0,0.0,0.0,0.0,0.0,0.0,0.0,0.0,0.0,0.0,0.0,0.0,0.0,1.0,0.0,0.0,0.0,0.0,0.0,0.0,0.0,0.0,0.0,0.0,0.0,0.0,1.0,0,0,0,0,0,0,0,0,0,0,0,0,0,0,0,0,0,0,0,0,0,0,0,0,0,0,0,0,0,0,0,0,0,0,0,0
1777039354.136788,7956,1777039344.9434652,,,0,0,,,0,0,919.8271924603085,434.43419987582126,861.0530437765228,913.2501974413253,431.7847035653051,865.6008117768063,907.9010556770837,451.4829660075746,841.7389618550947,926.0537799230077,447.44887747510086,816.7734775849349,923.1204236151597,455.82500846337746,803.862601018992,926.4041874792917,437.0836961863374,856.5052757762394,936.4752563465489,459.62047328998864,837.0967726861999,942.8635010170447,469.66426087543255,808.3325008607503,943.4350021827939,470.3286439439536,792.6900309528878,720.572998046875,677.8202514648438,1111.6470947265625,973.0546875,682.1616821289062,1107.9427490234375,752.333984375,496.6958312988281,1147.6263427734375,912.5827026367188,480.4088134765625,1143.4652099609375,659.5558471679688,613.6688232421875,856.8660278320312,703.084716796875,688.5189208984375,603.7572021484375,689.1932373046875,663.6289672851562,428.8716735839844,722.4417114257812,682.9132080078125,230.0649871826172,785.0106201171875,592.02734375,155.36627197265625,782.537353515625,859.9468994140625,185.40512084960938,1028.4361572265625,615.1492919921875,784.4107666015625,993.2013549804688,565.1820678710938,578.3720703125,1010.7639770507812,465.28399658203125,491.320068359375,973.4979858398438,309.23651123046875,344.50091552734375,907.9310302734375,216.09378051757812,352.5411682128906,947.19921875,395.6936340332031,167.5953826904297,0.0,0.0,0.0,0.0,0.0,0.0,0.0,0.0,0.0,0.0,0.0,0.0,1.0,0.0,0.0,0.0,0.0,0.0,0.0,0.0,0.0,0.0,0.0,0.0,0.0,1.0,0.0,0.0,0.0,0.0,0.0,0.0,0.0,0.0,0.0,0.0,0.0,0.0,1.0,0.0,0.0,0.0,0.0,0.0,0.0,0.0,0.0,0.0,0.0,0.0,0.0,1.0,0.0,0.0,0.0,0.0,0.0,0.0,0.0,0.0,0.0,0.0,0.0,0.0,1.0,0.0,0.0,0.0,0.0,0.0,0.0,0.0,0.0,0.0,0.0,0.0,0.0,1.0,0.0,0.0,0.0,0.0,0.0,0.0,0.0,0.0,0.0,0.0,0.0,0.0,1.0,0,0,0,0,0,0,0,0,0,0,0,0,0,0,0,0,0,0,0,0,0,0,0,0,0,0,0,0,0,0,0,0,0,0,0,0
1777039354.136788,7957,1777039344.955995,,,0,0,,,0,0,920.3878002548984,437.8519547398049,864.7171675746484,913.8019606962877,435.1840875903472,869.2413349173373,908.3399676563141,454.51438138766133,845.1056949571961,926.6376412062219,450.3770818168155,820.2632198872262,923.6896781918409,458.558525498658,807.2313981953347,926.9736398135091,440.51982188926263,860.1930002319596,937.0389491698925,463.1778216487997,840.9231445759904,943.3592617163616,473.3918720225786,812.2038566851523,944.0134538600787,474.0167824333038,796.5629998390509,719.5687866210938,678.1727294921875,1112.7027587890625,972.104736328125,681.881591796875,1109.3253173828125,750.9778442382812,497.1009826660156,1148.6744384765625,911.1537475585938,480.3511047363281,1144.466552734375,658.5267333984375,612.7684326171875,857.5438232421875,702.9005126953125,685.81982421875,603.911376953125,689.3779907226562,658.9032592773438,429.3526611328125,722.74365234375,676.0841064453125,230.3992156982422,785.222900390625,584.7402954101562,155.59471130371094,782.9028930664062,852.5994262695312,185.31460571289062,1028.0860595703125,618.7670288085938,786.2610473632812,993.6213989257812,574.48193359375,580.822509765625,1010.9933471679688,473.6440734863281,495.7382507324219,973.3198852539062,315.27435302734375,351.513427734375,906.6436157226562,224.466552734375,363.2673034667969,949.2425537109375,397.9683837890625,169.62742614746094,0.0,0.0,0.0,0.0,0.0,0.0,0.0,0.0,0.0,0.0,0.0,0.0,1.0,0.0,0.0,0.0,0.0,0.0,0.0,0.0,0.0,0.0,0.0,0.0,0.0,1.0,0.0,0.0,0.0,0.0,0.0,0.0,0.0,0.0,0.0,0.0,0.0,0.0,1.0,0.0,0.0,0.0,0.0,0.0,0.0,0.0,0.0,0.0,0.0,0.0,0.0,1.0,0.0,0.0,0.0,0.0,0.0,0.0,0.0,0.0,0.0,0.0,0.0,0.0,1.0,0.0,0.0,0.0,0.0,0.0,0.0,0.0,0.0,0.0,0.0,0.0,0.0,1.0,0.0,0.0,0.0,0.0,0.0,0.0,0.0,0.0,0.0,0.0,0.0,0.0,1.0,0,0,0,0,0,0,0,0,0,0,0,0,0,0,0,0,0,0,0,0,0,0,0,0,0,0,0,0,0,0,0,0,0,0,0,0
1777039354.1377861,7958,1777039344.9684286,,,0,0,,,0,0,920.7971628828848,441.11907490910954,868.3360032158906,914.2053341139795,438.43299157882757,872.8406272610008,908.6486995601606,457.38762872662846,848.4302137951194,927.1057685913628,453.15990152664347,823.7212357065797,924.1467147618126,461.14641790819456,810.571542182257,927.3889916517901,443.8051582393915,863.8313791707805,937.4657819698288,466.5900475970713,844.7177752094825,943.7236331042457,476.98788674704514,816.0508096764734,944.4683945719306,477.6066120272611,800.4137577597454,718.6141967773438,678.3410034179688,1113.7686767578125,971.2032470703125,681.4776611328125,1110.7811279296875,749.6953125,497.3360290527344,1149.7564697265625,909.7998046875,480.15765380859375,1145.5533447265625,657.5897216796875,611.5637817382812,858.130859375,702.81103515625,682.744384765625,603.9984741210938,689.7076416015625,653.8915405273438,429.7572937011719,723.1388549804688,669.156494140625,230.71607971191406,785.4429321289062,577.3816528320312,155.85826110839844,783.29541015625,845.21484375,185.161376953125,1027.728759765625,622.2030639648438,788.3587646484375,993.9398803710938,583.5418701171875,583.4910278320312,1010.990234375,481.9533996582031,500.14471435546875,972.8148193359375,321.693603515625,358.0287170410156,904.8496704101562,232.69703674316406,372.0077209472656,951.3319091796875,401.8030700683594,172.60902404785156,0.0,0.0,0.0,0.0,0.0,0.0,0.0,0.0,0.0,0.0,0.0,0.0,1.0,0.0,0.0,0.0,0.0,0.0,0.0,0.0,0.0,0.0,0.0,0.0,0.0,1.0,0.0,0.0,0.0,0.0,0.0,0.0,0.0,0.0,0.0,0.0,0.0,0.0,1.0,0.0,0.0,0.0,0.0,0.0,0.0,0.0,0.0,0.0,0.0,0.0,0.0,1.0,0.0,0.0,0.0,0.0,0.0,0.0,0.0,0.0,0.0,0.0,0.0,0.0,1.0,0.0,0.0,0.0,0.0,0.0,0.0,0.0,0.0,0.0,0.0,0.0,0.0,1.0,0.0,0.0,0.0,0.0,0.0,0.0,0.0,0.0,0.0,0.0,0.0,0.0,1.0,0,0,0,0,0,0,0,0,0,0,0,0,0,0,0,0,0,0,0,0,0,0,0,0,0,0,0,0,0,0,0,0,0,0,0,0
1777039354.1377861,7959,1777039344.980499,,,0,0,,,0,0,921.0469795731959,444.1998853388007,871.8521776494808,914.451761381073,441.49620809058206,876.3412882851552,908.8173826635891,460.07188939421184,851.6588940917486,927.4440727813902,455.7677670905158,827.0907924326822,924.4774009250032,463.55999955627016,813.8267487597016,927.6421977653189,446.90356258701934,867.3630670138065,937.7454667227769,469.8206053662364,848.4222156820006,943.9492121689232,480.4285927726065,819.82055806735,944.7908036871952,481.0760426592876,804.1895819102707,717.70166015625,678.3401489257812,1114.827392578125,970.3409423828125,680.968994140625,1112.2919921875,748.4884033203125,497.412109375,1150.8564453125,908.5240478515625,479.83843994140625,1146.70849609375,656.7532348632812,610.094482421875,858.627197265625,702.8062133789062,679.35107421875,604.0264282226562,690.13134765625,648.6744384765625,430.09930419921875,723.5974731445312,662.1543579101562,231.01547241210938,785.6639404296875,569.9453735351562,156.1536102294922,783.7012329101562,837.7827758789062,184.95680236816406,1027.3707275390625,625.4677124023438,790.68017578125,994.1507568359375,592.2857055664062,586.3262329101562,1010.7507934570312,490.1413269042969,504.4461975097656,972.0142211914062,328.4710998535156,363.88592529296875,902.6336059570312,240.67041015625,378.6028137207031,953.4666748046875,407.2769470214844,176.40635681152344,0.0,0.0,0.0,0.0,0.0,0.0,0.0,0.0,0.0,0.0,0.0,0.0,1.0,0.0,0.0,0.0,0.0,0.0,0.0,0.0,0.0,0.0,0.0,0.0,0.0,1.0,0.0,0.0,0.0,0.0,0.0,0.0,0.0,0.0,0.0,0.0,0.0,0.0,1.0,0.0,0.0,0.0,0.0,0.0,0.0,0.0,0.0,0.0,0.0,0.0,0.0,1.0,0.0,0.0,0.0,0.0,0.0,0.0,0.0,0.0,0.0,0.0,0.0,0.0,1.0,0.0,0.0,0.0,0.0,0.0,0.0,0.0,0.0,0.0,0.0,0.0,0.0,1.0,0.0,0.0,0.0,0.0,0.0,0.0,0.0,0.0,0.0,0.0,0.0,0.0,1.0,0,0,0,0,0,0,0,0,0,0,0,0,0,0,0,0,0,0,0,0,0,0,0,0,0,0,0,0,0,0,0,0,0,0,0,0
1777039354.1377861,7960,1777039344.9924324,,,0,0,,,0,0,921.3517279400058,447.21624261772456,875.227421933057,914.7527528864547,444.49189286491634,879.6984771363121,909.0405788824422,462.68347344669365,854.7493247132467,927.843752511506,458.3325842328486,830.3243150468388,924.8686622374075,465.9289106158465,816.9489815329966,927.950702993557,449.9405923705328,870.7563667298019,938.0764691167537,472.98674314704755,851.9849379789252,944.2177441459335,483.8282894516742,823.457472486516,945.1565697112791,484.5363070298796,807.8346622102124,716.8244018554688,678.185791015625,1115.863037109375,969.5094604492188,680.37353515625,1113.8387451171875,747.3592529296875,497.34130859375,1151.9598388671875,907.329345703125,479.40411376953125,1147.914794921875,656.02099609375,608.4029541015625,859.0401000976562,702.8736572265625,675.6968383789062,604.0055541992188,690.6046142578125,643.322021484375,430.3938293457031,724.0922241210938,655.0968017578125,231.2994842529297,785.8828735351562,562.4293212890625,156.4742889404297,784.110595703125,830.2964477539062,184.71795654296875,1027.021240234375,628.5780639648438,793.197509765625,994.2525634765625,600.6547241210938,589.2705078125,1010.2840576171875,498.1585693359375,508.54473876953125,970.9641723632812,335.5992126464844,368.9388732910156,900.1096801757812,248.3934326171875,383.0413818359375,955.642578125,414.380859375,180.77517700195312,0.0,0.0,0.0,0.0,0.0,0.0,0.0,0.0,0.0,0.0,0.0,0.0,1.0,0.0,0.0,0.0,0.0,0.0,0.0,0.0,0.0,0.0,0.0,0.0,0.0,1.0,0.0,0.0,0.0,0.0,0.0,0.0,0.0,0.0,0.0,0.0,0.0,0.0,1.0,0.0,0.0,0.0,0.0,0.0,0.0,0.0,0.0,0.0,0.0,0.0,0.0,1.0,0.0,0.0,0.0,0.0,0.0,0.0,0.0,0.0,0.0,0.0,0.0,0.0,1.0,0.0,0.0,0.0,0.0,0.0,0.0,0.0,0.0,0.0,0.0,0.0,0.0,1.0,0.0,0.0,0.0,0.0,0.0,0.0,0.0,0.0,0.0,0.0,0.0,0.0,1.0,0,0,0,0,0,0,0,0,0,0,0,0,0,0,0,0,0,0,0,0,0,0,0,0,0,0,0,0,0,0,0,0,0,0,0,0
1777039354.1377861,7961,1777039344.993467,,,0,0,,,0,0,921.6127751693543,450.0972239405852,878.3939259617589,915.0125217083065,447.349947392837,882.8490369349771,909.2263897716405,465.1588950782577,857.6421965519736,928.2085284409142,460.7827848807406,833.3605420828144,925.225727698222,468.18344714351286,819.8776647539818,928.2130286304022,452.8445004883334,873.9388149885407,938.364081367703,476.0218449136631,855.3433968362391,944.445633666877,487.12607190326924,826.9043121590611,945.4809917037301,487.928169289725,811.2921516173315,715.9771118164062,677.8936157226562,1116.861572265625,968.7025146484375,679.7076416015625,1115.4017333984375,746.3099365234375,497.135986328125,1153.0540771484375,906.2183227539062,478.86566162109375,1149.155029296875,655.3919067382812,606.5321044921875,859.3814697265625,702.9996948242188,671.8330078125,603.9465942382812,691.0928344726562,637.88720703125,430.6548767089844,724.6004638671875,647.997802734375,231.5709991455078,786.0996704101562,554.8366088867188,156.81216430664062,784.51708984375,822.7540283203125,184.46299743652344,1026.691162109375,631.5545654296875,795.8798217773438,994.2474365234375,608.608154296875,592.2637329101562,1009.6111450195312,505.9764404296875,512.3438720703125,969.7218017578125,343.0820617675781,373.0633850097656,897.40625,255.97267150878906,385.4317626953125,957.8488159179688,423.0208740234375,185.3999786376953,0.0,0.0,0.0,0.0,0.0,0.0,0.0,0.0,0.0,0.0,0.0,0.0,1.0,0.0,0.0,0.0,0.0,0.0,0.0,0.0,0.0,0.0,0.0,0.0,0.0,1.0,0.0,0.0,0.0,0.0,0.0,0.0,0.0,0.0,0.0,0.0,0.0,0.0,1.0,0.0,0.0,0.0,0.0,0.0,0.0,0.0,0.0,0.0,0.0,0.0,0.0,1.0,0.0,0.0,0.0,0.0,0.0,0.0,0.0,0.0,0.0,0.0,0.0,0.0,1.0,0.0,0.0,0.0,0.0,0.0,0.0,0.0,0.0,0.0,0.0,0.0,0.0,1.0,0.0,0.0,0.0,0.0,0.0,0.0,0.0,0.0,0.0,0.0,0.0,0.0,1.0,0,0,0,0,0,0,0,0,0,0,0,0,0,0,0,0,0,0,0,0,0,0,0,0,0,0,0,0,0,0,0,0,0,0,0,0
1777039354.1377861,7962,1777039345.0107868,,,0,0,,,0,0,921.8523991207436,452.85268647466694,881.302983691349,915.2537699456261,450.0795616325876,885.7444653791534,909.3926044151884,467.5100505036966,860.2916160517457,928.5525936962052,463.12930154595637,836.1508927402837,925.5621539862675,470.3347854565561,822.5643863748529,928.4510282958611,455.62581131674625,876.8615020035446,938.6270533709782,478.93679722753745,858.4476704608632,944.6526386040134,490.3348917462763,830.1131255267848,945.781266576675,491.26353869793735,814.5144493970272,715.1566162109375,677.478759765625,1117.8111572265625,967.9161987304688,678.9854125976562,1116.9608154296875,745.3422241210938,496.80853271484375,1154.1279296875,905.1932373046875,478.2340087890625,1150.4129638671875,654.8610229492188,604.5222778320312,859.6654663085938,703.1700439453125,667.802734375,603.859619140625,691.5718994140625,632.4033203125,430.8937072753906,725.1054077148438,640.8665771484375,231.83245849609375,786.315673828125,547.1766967773438,157.15895080566406,784.9166259765625,815.1594848632812,184.2079315185547,1026.390869140625,634.4169921875,798.6937866210938,994.1405029296875,616.12255859375,595.2467651367188,1008.763671875,513.5844116210938,515.754638671875,968.3517456054688,350.9310607910156,376.1625671386719,894.65185546875,263.5740051269531,385.95684814453125,960.0660400390625,433.0425109863281,189.94577026367188,0.0,0.0,0.0,0.0,0.0,0.0,0.0,0.0,0.0,0.0,0.0,0.0,1.0,0.0,0.0,0.0,0.0,0.0,0.0,0.0,0.0,0.0,0.0,0.0,0.0,1.0,0.0,0.0,0.0,0.0,0.0,0.0,0.0,0.0,0.0,0.0,0.0,0.0,1.0,0.0,0.0,0.0,0.0,0.0,0.0,0.0,0.0,0.0,0.0,0.0,0.0,1.0,0.0,0.0,0.0,0.0,0.0,0.0,0.0,0.0,0.0,0.0,0.0,0.0,1.0,0.0,0.0,0.0,0.0,0.0,0.0,0.0,0.0,0.0,0.0,0.0,0.0,1.0,0.0,0.0,0.0,0.0,0.0,0.0,0.0,0.0,0.0,0.0,0.0,0.0,1.0,0,0,0,0,0,0,0,0,0,0,0,0,0,0,0,0,0,0,0,0,0,0,0,0,0,0,0,0,0,0,0,0,0,0,0,0
1777039354.1377861,7963,1777039345.0208127,,,0,0,,,0,0,922.0592472741358,455.47881552802943,883.9102225579084,915.4643571244643,452.6777536263253,888.3397105757449,909.5211536526747,469.7362457962888,862.6549111814539,928.8547883452724,465.369655801829,838.6504504694643,925.8570576590347,472.3809358675151,824.9643098214995,928.6541374238074,458.2798774297336,879.4807345400718,938.8529550818043,481.72129576567994,861.2459664493376,944.8277078545528,493.43948581351077,833.031483927281,946.0456447031476,494.525990019945,817.449731082854,714.3618774414062,676.9555053710938,1118.701416015625,967.1495971679688,678.218505859375,1118.4962158203125,744.4575805664062,496.3709716796875,1155.1719970703125,904.2557373046875,477.5200500488281,1151.6728515625,654.420166015625,602.408935546875,859.90625,703.3704833984375,663.6398315429688,603.7530517578125,692.0272827148438,626.8861083984375,431.11798095703125,725.595947265625,633.7086791992188,232.085205078125,786.5325927734375,539.4647216796875,157.5070343017578,785.3065185546875,807.521728515625,183.9647216796875,1026.1285400390625,637.1817016601562,801.604248046875,993.9390258789062,623.1893310546875,598.1643676757812,1007.7816162109375,520.9866943359375,518.7005615234375,966.9213256835938,359.1604309082031,378.1703186035156,891.9645385742188,271.3786926269531,384.8261413574219,962.2672119140625,444.2655029296875,194.1078338623047,0.0,0.0,0.0,0.0,0.0,0.0,0.0,0.0,0.0,0.0,0.0,0.0,1.0,0.0,0.0,0.0,0.0,0.0,0.0,0.0,0.0,0.0,0.0,0.0,0.0,1.0,0.0,0.0,0.0,0.0,0.0,0.0,0.0,0.0,0.0,0.0,0.0,0.0,1.0,0.0,0.0,0.0,0.0,0.0,0.0,0.0,0.0,0.0,0.0,0.0,0.0,1.0,0.0,0.0,0.0,0.0,0.0,0.0,0.0,0.0,0.0,0.0,0.0,0.0,1.0,0.0,0.0,0.0,0.0,0.0,0.0,0.0,0.0,0.0,0.0,0.0,0.0,1.0,0.0,0.0,0.0,0.0,0.0,0.0,0.0,0.0,0.0,0.0,0.0,0.0,1.0,0,0,0,0,0,0,0,0,0,0,0,0,0,0,0,0,0,0,0,0,0,0,0,0,0,0,0,0,0,0,0,0,0,0,0,0
1777039354.1377861,7964,1777039345.0340784,,,0,0,,,0,0,922.4432195994568,458.11205509400975,886.2080132653655,915.8543816949513,455.27514821281017,890.6236743007172,909.8133676963992,471.96440625366046,864.7200537340864,929.3138344472967,467.6354230442553,840.8440747269375,926.3047220469309,474.4512547649298,827.0620370045981,929.0320575039624,460.94896197520933,881.7923522300138,939.2394416760083,484.5293702706059,863.7425213296582,945.1639298840099,496.61868248314323,835.6743963053351,946.4604112449942,497.8893472906198,820.1129236793195,713.59423828125,676.3372192382812,1119.5240478515625,966.4046630859375,677.416015625,1119.988525390625,743.656982421875,495.8348388671875,1156.1785888671875,903.406982421875,476.73431396484375,1152.9202880859375,654.05908203125,600.2202758789062,860.1162109375,703.5873413085938,659.368896484375,603.6331787109375,692.4517822265625,621.3379516601562,431.3314514160156,726.0662231445312,626.5276489257812,232.32920837402344,786.751708984375,531.720703125,157.849853515625,785.6846313476562,799.8532104492188,183.7406005859375,1025.9097900390625,639.8592529296875,804.5751342773438,993.65185546875,629.8126831054688,600.96728515625,1006.7100219726562,528.1983642578125,521.121337890625,965.4962158203125,367.7840881347656,379.0522155761719,889.4462890625,279.5479431152344,382.2370910644531,964.4183959960938,456.5175476074219,197.64878845214844,0.0,0.0,0.0,0.0,0.0,0.0,0.0,0.0,0.0,0.0,0.0,0.0,1.0,0.0,0.0,0.0,0.0,0.0,0.0,0.0,0.0,0.0,0.0,0.0,0.0,1.0,0.0,0.0,0.0,0.0,0.0,0.0,0.0,0.0,0.0,0.0,0.0,0.0,1.0,0.0,0.0,0.0,0.0,0.0,0.0,0.0,0.0,0.0,0.0,0.0,0.0,1.0,0.0,0.0,0.0,0.0,0.0,0.0,0.0,0.0,0.0,0.0,0.0,0.0,1.0,0.0,0.0,0.0,0.0,0.0,0.0,0.0,0.0,0.0,0.0,0.0,0.0,1.0,0.0,0.0,0.0,0.0,0.0,0.0,0.0,0.0,0.0,0.0,0.0,0.0,1.0,0,0,0,0,0,0,0,0,0,0,0,0,0,0,0,0,0,0,0,0,0,0,0,0,0,0,0,0,0,0,0,0,0,0,0,0
1777039354.1377861,7965,1777039345.0360618,,,0,0,,,0,0,922.6681343813276,460.5193731037414,888.1226862224307,916.0915888129241,457.64739553796466,892.5339990895893,909.9446419411537,473.9818093594924,866.4298861606371,929.6034233022795,469.6942147538604,842.6765806943826,926.5855512136653,476.3185069122805,828.8033660445896,929.2446799497311,463.3913506695181,883.7113733552721,939.4633646507893,487.1138960884305,865.8552241519089,945.352579523773,499.5910971317904,837.949897151793,946.7240510867591,501.07749281496865,822.413984662096,712.8575439453125,675.6358642578125,1120.2718505859375,965.6859741210938,676.5850219726562,1121.4193115234375,742.940673828125,495.2109375,1157.1416015625,902.6475219726562,475.8869934082031,1154.1419677734375,653.7665405273438,597.976318359375,860.3051147460938,703.8078002929688,655.00634765625,603.5042114257812,692.8433837890625,615.75341796875,431.5346984863281,726.5147094726562,619.3262939453125,232.56329345703125,786.9739379882812,523.9679565429688,158.18223571777344,786.0494995117188,792.1680297851562,183.538330078125,1025.736572265625,642.453369140625,807.5700073242188,993.288818359375,636.0062866210938,603.6136474609375,1005.595703125,535.24169921875,522.97509765625,964.13623046875,376.8139343261719,378.8043518066406,887.1801147460938,288.2023010253906,378.3512878417969,966.4803466796875,469.658203125,200.4180908203125,0.0,0.0,0.0,0.0,0.0,0.0,0.0,0.0,0.0,0.0,0.0,0.0,1.0,0.0,0.0,0.0,0.0,0.0,0.0,0.0,0.0,0.0,0.0,0.0,0.0,1.0,0.0,0.0,0.0,0.0,0.0,0.0,0.0,0.0,0.0,0.0,0.0,0.0,1.0,0.0,0.0,0.0,0.0,0.0,0.0,0.0,0.0,0.0,0.0,0.0,0.0,1.0,0.0,0.0,0.0,0.0,0.0,0.0,0.0,0.0,0.0,0.0,0.0,0.0,1.0,0.0,0.0,0.0,0.0,0.0,0.0,0.0,0.0,0.0,0.0,0.0,0.0,1.0,0.0,0.0,0.0,0.0,0.0,0.0,0.0,0.0,0.0,0.0,0.0,0.0,1.0,0,0,0,0,0,0,0,0,0,0,0,0,0,0,0,0,0,0,0,0,0,0,0,0,0,0,0,0,0,0,0,0,0,0,0,0
1777039354.1377861,7966,1777039345.04406,,,0,0,,,0,0,923.1759473229216,463.0287112444433,889.6906185895415,916.6166862274235,460.11147003277216,894.0979630913456,910.3350508803042,476.0919966072067,867.807535740038,930.1431996259658,471.8717031163483,844.1665324026002,927.1097797928916,478.3021578250936,830.2057838690272,929.7352084184197,465.9459524561144,885.2832740877374,939.9375449527936,489.8159814213981,867.6153146984738,945.7816503053418,502.7069637338055,839.8891595317453,947.2134569466635,504.4307418032839,824.3832444613076,712.1573486328125,674.8622436523438,1120.939453125,965.0001220703125,675.7308349609375,1122.7713623046875,742.30859375,494.5093994140625,1158.0560302734375,901.9773559570312,474.9879150390625,1155.326416015625,653.5313720703125,595.6884155273438,860.4794921875,704.0205078125,650.5621948242188,603.36865234375,693.2031860351562,610.1240844726562,431.7257385253906,726.94287109375,612.10791015625,232.78585815429688,787.1995849609375,516.231201171875,158.50038146972656,786.3995971679688,784.4803466796875,183.35684204101562,1025.6077880859375,644.9605712890625,810.5527954101562,992.8601684570312,641.7905883789062,606.06982421875,1004.4837036132812,542.1429443359375,524.2384643554688,962.8925170898438,386.259765625,377.45062255859375,885.2299194335938,297.4161071777344,373.2886047363281,968.4103393554688,483.58966064453125,202.35411071777344,0.0,0.0,0.0,0.0,0.0,0.0,0.0,0.0,0.0,0.0,0.0,0.0,1.0,0.0,0.0,0.0,0.0,0.0,0.0,0.0,0.0,0.0,0.0,0.0,0.0,1.0,0.0,0.0,0.0,0.0,0.0,0.0,0.0,0.0,0.0,0.0,0.0,0.0,1.0,0.0,0.0,0.0,0.0,0.0,0.0,0.0,0.0,0.0,0.0,0.0,0.0,1.0,0.0,0.0,0.0,0.0,0.0,0.0,0.0,0.0,0.0,0.0,0.0,0.0,1.0,0.0,0.0,0.0,0.0,0.0,0.0,0.0,0.0,0.0,0.0,0.0,0.0,1.0,0.0,0.0,0.0,0.0,0.0,0.0,0.0,0.0,0.0,0.0,0.0,0.0,1.0,0,0,0,0,0,0,0,0,0,0,0,0,0,0,0,0,0,0,0,0,0,0,0,0,0,0,0,0,0,0,0,0,0,0,0,0
1777039354.1377861,7967,1777039345.0581963,,,0,0,,,0,0,923.7839191291926,465.53664552956894,890.8877624294157,917.2451312155526,462.5693318551802,895.2921000801632,910.8011926576514,478.20039584946204,868.8314077835994,930.7487371959552,474.0657118155673,845.2927050259657,927.6974513004943,480.30224673007785,831.2481270719356,930.3227070428325,468.50395920395766,886.4834247786682,940.4931680839162,492.5184994361534,868.9938186598094,946.2933697159984,505.8414006068557,841.4633148848533,947.7751142076046,507.8259062183983,825.9933099074163,711.50048828125,674.02587890625,1121.5228271484375,964.35498046875,674.857666015625,1124.029296875,741.7599487304688,493.7395935058594,1158.918701171875,901.39599609375,474.0466003417969,1156.4632568359375,653.3436889648438,593.3601684570312,860.6431274414062,704.216064453125,646.0416870117188,603.2274780273438,693.5343627929688,604.4423828125,431.9013366699219,727.35400390625,604.87646484375,232.99549865722656,787.4285278320312,508.5327453613281,158.8015899658203,786.7335815429688,776.80322265625,183.19239807128906,1025.519287109375,647.3706665039062,813.48828125,992.3762817382812,647.189453125,608.3098754882812,1003.4146118164062,548.9305419921875,524.905517578125,961.805419921875,396.12994384765625,375.0386657714844,883.640380859375,307.2237854003906,367.1351013183594,970.1655883789062,498.25396728515625,203.4725341796875,0.0,0.0,0.0,0.0,0.0,0.0,0.0,0.0,0.0,0.0,0.0,0.0,1.0,0.0,0.0,0.0,0.0,0.0,0.0,0.0,0.0,0.0,0.0,0.0,0.0,1.0,0.0,0.0,0.0,0.0,0.0,0.0,0.0,0.0,0.0,0.0,0.0,0.0,1.0,0.0,0.0,0.0,0.0,0.0,0.0,0.0,0.0,0.0,0.0,0.0,0.0,1.0,0.0,0.0,0.0,0.0,0.0,0.0,0.0,0.0,0.0,0.0,0.0,0.0,1.0,0.0,0.0,0.0,0.0,0.0,0.0,0.0,0.0,0.0,0.0,0.0,0.0,1.0,0.0,0.0,0.0,0.0,0.0,0.0,0.0,0.0,0.0,0.0,0.0,0.0,1.0,0,0,0,0,0,0,0,0,0,0,0,0,0,0,0,0,0,0,0,0,0,0,0,0,0,0,0,0,0,0,0,0,0,0,0,0
1777039354.138786,7968,1777039345.0692923,,,0,0,,,0,0,924.3863979039879,467.9445431961776,891.7022158370257,917.8706928869527,464.92619332243214,896.1060823352535,911.2415795760886,480.21630649153246,869.4923633442406,931.3182129369405,476.17570313027187,846.0472574572781,928.2487982342087,482.2204410404719,831.9229974680886,930.9021029210231,470.9628930699231,887.298349338798,941.031199639458,495.12387645135965,869.9873405797651,946.7945062971992,508.89452465727436,842.6702357361372,948.316953005518,511.16513907689364,827.2435915955498,710.89453125,673.1350708007812,1122.018798828125,963.7587280273438,673.9691772460938,1125.1793212890625,741.2936401367188,492.9100341796875,1159.7275390625,900.902587890625,473.07220458984375,1157.5439453125,653.1954345703125,590.9885864257812,860.7972412109375,704.3871459960938,641.4468383789062,603.0808715820312,693.841064453125,598.7027587890625,432.05810546875,727.75244140625,597.6365356445312,233.19155883789062,787.6605834960938,500.8890380859375,159.08355712890625,787.0499877929688,769.1472778320312,183.03985595703125,1025.4644775390625,649.6676025390625,816.3424682617188,991.84716796875,652.2283935546875,610.315673828125,1002.4230346679688,555.633544921875,524.985595703125,960.9041748046875,406.4326171875,371.6357421875,882.4369506835938,317.6329040527344,359.959716796875,971.70751953125,513.62109375,203.84686279296875,0.0,0.0,0.0,0.0,0.0,0.0,0.0,0.0,0.0,0.0,0.0,0.0,1.0,0.0,0.0,0.0,0.0,0.0,0.0,0.0,0.0,0.0,0.0,0.0,0.0,1.0,0.0,0.0,0.0,0.0,0.0,0.0,0.0,0.0,0.0,0.0,0.0,0.0,1.0,0.0,0.0,0.0,0.0,0.0,0.0,0.0,0.0,0.0,0.0,0.0,0.0,1.0,0.0,0.0,0.0,0.0,0.0,0.0,0.0,0.0,0.0,0.0,0.0,0.0,1.0,0.0,0.0,0.0,0.0,0.0,0.0,0.0,0.0,0.0,0.0,0.0,0.0,1.0,0.0,0.0,0.0,0.0,0.0,0.0,0.0,0.0,0.0,0.0,0.0,0.0,1.0,0,0,0,0,0,0,0,0,0,0,0,0,0,0,0,0,0,0,0,0,0,0,0,0,0,0,0,0,0,0,0,0,0,0,0,0
1777039354.138786,7969,1777039345.0835605,,,0,0,,,0,0,925.2084813909375,470.48513118946187,892.1804266718666,918.7222367043681,467.4080782783745,896.5871559818979,911.875447214669,482.3554857742044,869.8342266958904,932.0728212811767,478.4341841858526,846.4727167414646,928.9797618225473,484.28455323929757,832.2719756204368,931.694726077507,473.56218410054925,887.7736973618353,941.7576318469976,497.8702785808888,870.6308500850843,947.4802177433593,512.1037670143139,843.5433900647298,949.0277495164111,514.6783220140505,828.1670545055889,710.3466186523438,672.1968994140625,1122.426025390625,963.2189331054688,673.0687866210938,1126.2108154296875,740.9083251953125,492.02862548828125,1160.4814453125,900.4960327148438,472.0736083984375,1158.5614013671875,653.080810546875,588.5665893554688,860.9415283203125,704.5287475585938,636.778076171875,602.9287719726562,694.128173828125,592.9027099609375,432.1935119628906,728.1428833007812,590.3923950195312,233.37448120117188,787.8961181640625,493.30853271484375,159.34396362304688,787.3475952148438,761.52001953125,182.89425659179688,1025.4344482421875,651.8311767578125,819.0831909179688,991.2827758789062,656.9318237304688,612.0750122070312,1001.5370483398438,562.2810668945312,524.5001831054688,960.2069091796875,417.1764221191406,367.3245544433594,881.6255493164062,328.6382751464844,351.83282470703125,973.0069580078125,529.6728515625,203.5865020751953,0.0,0.0,0.0,0.0,0.0,0.0,0.0,0.0,0.0,0.0,0.0,0.0,1.0,0.0,0.0,0.0,0.0,0.0,0.0,0.0,0.0,0.0,0.0,0.0,0.0,1.0,0.0,0.0,0.0,0.0,0.0,0.0,0.0,0.0,0.0,0.0,0.0,0.0,1.0,0.0,0.0,0.0,0.0,0.0,0.0,0.0,0.0,0.0,0.0,0.0,0.0,1.0,0.0,0.0,0.0,0.0,0.0,0.0,0.0,0.0,0.0,0.0,0.0,0.0,1.0,0.0,0.0,0.0,0.0,0.0,0.0,0.0,0.0,0.0,0.0,0.0,0.0,1.0,0.0,0.0,0.0,0.0,0.0,0.0,0.0,0.0,0.0,0.0,0.0,0.0,1.0,0,0,0,0,0,0,0,0,0,0,0,0,0,0,0,0,0,0,0,0,0,0,0,0,0,0,0,0,0,0,0,0,0,0,0,0
1777039354.138786,7970,1777039345.0835605,,,0,0,,,0,0,926.2391832669553,473.1866077567626,892.339850983472,919.7892242165759,470.0432736738996,896.7530547013523,912.6921909219543,484.6440676434893,869.874221459982,933.0023262570949,480.8688264047535,846.5865288104812,929.8802648168052,486.52151855319255,832.312262205832,932.6891423173346,476.32994183962563,887.9266472655918,942.6611778735312,500.785923893127,870.9417660116784,948.3391568697201,515.4942119739545,844.0996817235645,949.8961738380847,518.3882997265846,828.781234103036,709.863037109375,671.2175903320312,1122.7437744140625,962.7416381835938,672.1605224609375,1127.115234375,740.6025390625,491.1025390625,1161.1802978515625,900.1751708984375,471.05950927734375,1159.509765625,652.99658203125,586.0848388671875,861.0747680664062,704.6385498046875,632.0348510742188,602.771240234375,694.400634765625,587.0418090820312,432.3068542480469,728.5298461914062,583.1472778320312,233.54580688476562,788.1376342773438,485.7916564941406,159.5807342529297,787.6256103515625,753.9253540039062,182.751953125,1025.420166015625,653.8380126953125,821.68017578125,990.6928100585938,661.3213500976562,613.5809326171875,1000.7777709960938,568.901123046875,523.4803466796875,959.7216796875,428.37091064453125,362.19964599609375,881.1929321289062,340.233154296875,342.8410949707031,974.0478515625,546.3881225585938,202.8162078857422,0.0,0.0,0.0,0.0,0.0,0.0,0.0,0.0,0.0,0.0,0.0,0.0,1.0,0.0,0.0,0.0,0.0,0.0,0.0,0.0,0.0,0.0,0.0,0.0,0.0,1.0,0.0,0.0,0.0,0.0,0.0,0.0,0.0,0.0,0.0,0.0,0.0,0.0,1.0,0.0,0.0,0.0,0.0,0.0,0.0,0.0,0.0,0.0,0.0,0.0,0.0,1.0,0.0,0.0,0.0,0.0,0.0,0.0,0.0,0.0,0.0,0.0,0.0,0.0,1.0,0.0,0.0,0.0,0.0,0.0,0.0,0.0,0.0,0.0,0.0,0.0,0.0,1.0,0.0,0.0,0.0,0.0,0.0,0.0,0.0,0.0,0.0,0.0,0.0,0.0,1.0,0,0,0,0,0,0,0,0,0,0,0,0,0,0,0,0,0,0,0,0,0,0,0,0,0,0,0,0,0,0,0,0,0,0,0,0
1777039354.138786,7971,1777039345.0953228,,,0,0,,,0,0,927.3044312026136,475.9217451965304,892.1892777526886,920.8930253172014,472.71053912324936,896.6097888194087,913.5162764094375,486.96184903240277,869.6189295524301,933.9305106414098,483.3551788870443,846.395629962046,930.7786232206818,488.8089660071738,832.0507111753138,933.7158370880259,479.1329512698115,887.7687666859684,943.5904219172039,503.72257184751373,870.9204469821885,949.2327798844517,518.9113659961857,844.3397208529292,950.7889056162653,522.1418990219232,829.088589342809,709.4482421875,670.2022094726562,1122.972900390625,962.3311157226562,671.2489013671875,1127.8870849609375,740.3748168945312,490.1384582519531,1161.82470703125,899.9386596679688,470.0384216308594,1160.384765625,652.941162109375,583.5343017578125,861.1954345703125,704.7166137695312,627.2168579101562,602.60888671875,694.6634521484375,581.1215209960938,432.3995666503906,728.9176025390625,575.9028930664062,233.70819091796875,788.3897094726562,478.3310546875,159.7926788330078,787.8836059570312,746.3634643554688,182.611328125,1025.412109375,655.663818359375,824.1061401367188,990.0868530273438,665.4147338867188,614.8298950195312,1000.1597900390625,575.5200805664062,521.9638671875,959.44775390625,440.02581787109375,356.3644104003906,881.1082763671875,352.4155578613281,333.0953674316406,974.8283081054688,563.73291015625,201.66014099121094,0.0,0.0,0.0,0.0,0.0,0.0,0.0,0.0,0.0,0.0,0.0,0.0,1.0,0.0,0.0,0.0,0.0,0.0,0.0,0.0,0.0,0.0,0.0,0.0,0.0,1.0,0.0,0.0,0.0,0.0,0.0,0.0,0.0,0.0,0.0,0.0,0.0,0.0,1.0,0.0,0.0,0.0,0.0,0.0,0.0,0.0,0.0,0.0,0.0,0.0,0.0,1.0,0.0,0.0,0.0,0.0,0.0,0.0,0.0,0.0,0.0,0.0,0.0,0.0,1.0,0.0,0.0,0.0,0.0,0.0,0.0,0.0,0.0,0.0,0.0,0.0,0.0,1.0,0.0,0.0,0.0,0.0,0.0,0.0,0.0,0.0,0.0,0.0,0.0,0.0,1.0,0,0,0,0,0,0,0,0,0,0,0,0,0,0,0,0,0,0,0,0,0,0,0,0,0,0,0,0,0,0,0,0,0,0,0,0
1777039354.138786,7972,1777039345.1069527,,,0,0,,,0,0,928.5590104183659,478.87013938342443,891.7714316614978,922.1899077275324,475.5853948383088,896.1990576789615,914.500977956396,489.4770551762087,869.1080098111561,935.0115207394782,486.071031775036,845.9393388951539,931.8249944987585,491.32079288081945,831.5261178078334,934.9281131091994,482.1548839285401,887.3438056440341,944.6848511141424,506.87169802003876,870.6133571379729,950.2861905580455,522.5368260362111,844.3017735035526,951.8271678250725,526.1136681864124,829.1265808340138,709.104736328125,669.1553344726562,1123.1153564453125,961.9888916015625,670.3395385742188,1128.5238037109375,740.2239379882812,489.1425476074219,1162.4154052734375,899.7854614257812,469.0187072753906,1161.1829833984375,652.9144897460938,580.908203125,861.30224609375,704.765625,622.324462890625,602.4429931640625,694.9215698242188,575.1442260742188,432.4752502441406,729.3096923828125,568.6591186523438,233.86502075195312,788.657470703125,470.91259765625,159.98068237304688,788.1221923828125,738.8314819335938,182.47256469726562,1025.403076171875,657.2849731445312,826.3366088867188,989.4742431640625,669.2244262695312,615.8206787109375,999.6906127929688,582.1611938476562,519.99365234375,959.37646484375,452.15008544921875,349.9282531738281,881.3265991210938,365.1888732910156,322.7310791015625,975.3584594726562,581.6571044921875,200.23187255859375,0.0,0.0,0.0,0.0,0.0,0.0,0.0,0.0,0.0,0.0,0.0,0.0,1.0,0.0,0.0,0.0,0.0,0.0,0.0,0.0,0.0,0.0,0.0,0.0,0.0,1.0,0.0,0.0,0.0,0.0,0.0,0.0,0.0,0.0,0.0,0.0,0.0,0.0,1.0,0.0,0.0,0.0,0.0,0.0,0.0,0.0,0.0,0.0,0.0,0.0,0.0,1.0,0.0,0.0,0.0,0.0,0.0,0.0,0.0,0.0,0.0,0.0,0.0,0.0,1.0,0.0,0.0,0.0,0.0,0.0,0.0,0.0,0.0,0.0,0.0,0.0,0.0,1.0,0.0,0.0,0.0,0.0,0.0,0.0,0.0,0.0,0.0,0.0,0.0,0.0,1.0,0,0,0,0,0,0,0,0,0,0,0,0,0,0,0,0,0,0,0,0,0,0,0,0,0,0,0,0,0,0,0,0,0,0,0,0
1777039354.138786,7973,1777039345.1179566,,,0,0,,,0,0,929.9923618313935,482.0686860743508,891.1248869236964,923.6700038273129,478.70476171785594,895.5600521016339,915.6386365510535,492.2227514007237,868.3794737937229,936.2373532146809,489.0519820060304,845.2556815887824,933.0115598506478,494.0913538622926,830.7762523276048,936.3147198354741,485.43261043084567,886.6897217457589,945.9360800655303,510.267300556483,870.0557103164062,951.4932485740632,526.4029149684194,844.0205322221994,953.0058677302713,530.3322503759465,828.9298997037793,708.8324584960938,668.0809326171875,1123.1739501953125,961.7141723632812,669.4387817382812,1129.0255126953125,740.1486206054688,488.1207580566406,1162.9534912109375,899.7144775390625,468.0086669921875,1161.9019775390625,652.9174194335938,578.2034301757812,861.394287109375,704.7903442382812,617.3593139648438,602.2755126953125,695.1801147460938,569.1132202148438,432.53924560546875,729.7091064453125,561.4142456054688,234.0199432373047,788.9429931640625,463.517822265625,160.14991760253906,788.3432006835938,731.3243408203125,182.33700561523438,1025.387939453125,658.6800537109375,828.350830078125,988.8643188476562,672.7572021484375,616.5538330078125,999.3704833984375,588.84326171875,517.6159057617188,959.4921875,464.75054931640625,343.0039367675781,881.7943725585938,378.5589294433594,311.9021911621094,975.6554565429688,600.0960083007812,198.63023376464844,0.0,0.0,0.0,0.0,0.0,0.0,0.0,0.0,0.0,0.0,0.0,0.0,1.0,0.0,0.0,0.0,0.0,0.0,0.0,0.0,0.0,0.0,0.0,0.0,0.0,1.0,0.0,0.0,0.0,0.0,0.0,0.0,0.0,0.0,0.0,0.0,0.0,0.0,1.0,0.0,0.0,0.0,0.0,0.0,0.0,0.0,0.0,0.0,0.0,0.0,0.0,1.0,0.0,0.0,0.0,0.0,0.0,0.0,0.0,0.0,0.0,0.0,0.0,0.0,1.0,0.0,0.0,0.0,0.0,0.0,0.0,0.0,0.0,0.0,0.0,0.0,0.0,1.0,0.0,0.0,0.0,0.0,0.0,0.0,0.0,0.0,0.0,0.0,0.0,0.0,1.0,0,0,0,0,0,0,0,0,0,0,0,0,0,0,0,0,0,0,0,0,0,0,0,0,0,0,0,0,0,0,0,0,0,0,0,0
1777039354.138786,7974,1777039345.1329443,,,0,0,,,0,0,931.4896172392981,485.4667871786605,890.2807714150897,925.2168260399598,482.0207335466956,894.7232586574681,916.8167548966568,495.1485768779251,867.4630078001684,937.4947553331409,492.24757972816667,844.3745867591824,934.2280984078791,497.0706071587544,829.8307825044831,937.7624084386365,488.9128408106254,885.8382841727113,947.2476562103807,513.8423687450927,869.2680864002643,952.7747081782165,530.4492417784313,843.524463164997,954.2497762723195,534.7355733577222,828.5275828569894,708.6289672851562,666.9827880859375,1123.1527099609375,961.5038452148438,668.5540161132812,1129.394775390625,740.14794921875,487.07879638671875,1163.439697265625,899.724609375,467.0164489746094,1162.5396728515625,652.9511108398438,575.4212646484375,861.470947265625,704.797607421875,612.3248291015625,602.1085815429688,695.4442138671875,563.0327758789062,432.597900390625,730.118408203125,554.1651000976562,234.17652893066406,789.242919921875,456.1273498535156,160.3105926513672,788.5497436523438,723.8362426757812,182.2061309814453,1025.3653564453125,659.8314819335938,830.1321411132812,988.265869140625,676.0138549804688,617.03076171875,999.1921997070312,595.578857421875,514.8798217773438,959.7730712890625,477.83074951171875,335.70501708984375,882.45654296875,392.52911376953125,300.7709655761719,975.7353515625,618.9763793945312,196.93995666503906,0.0,0.0,0.0,0.0,0.0,0.0,0.0,0.0,0.0,0.0,0.0,0.0,1.0,0.0,0.0,0.0,0.0,0.0,0.0,0.0,0.0,0.0,0.0,0.0,0.0,1.0,0.0,0.0,0.0,0.0,0.0,0.0,0.0,0.0,0.0,0.0,0.0,0.0,1.0,0.0,0.0,0.0,0.0,0.0,0.0,0.0,0.0,0.0,0.0,0.0,0.0,1.0,0.0,0.0,0.0,0.0,0.0,0.0,0.0,0.0,0.0,0.0,0.0,0.0,1.0,0.0,0.0,0.0,0.0,0.0,0.0,0.0,0.0,0.0,0.0,0.0,0.0,1.0,0.0,0.0,0.0,0.0,0.0,0.0,0.0,0.0,0.0,0.0,0.0,0.0,1.0,0,0,0,0,0,0,0,0,0,0,0,0,0,0,0,0,0,0,0,0,0,0,0,0,0,0,0,0,0,0,0,0,0,0,0,0
1777039354.138786,7975,1777039345.1339445,,,0,0,,,0,0,933.0620071248585,489.1354876129607,889.2802228362584,926.8422907502585,485.60308179468154,893.7295065222118,918.0496490896326,498.3192266811581,866.3979889207551,938.7971445134874,495.7259490333829,843.3353130708313,935.4877479316191,500.32481487160425,828.7286977706143,939.2817234994585,492.6678934312398,884.8309391503051,948.6323034623772,517.6668959138542,868.288893576191,954.1459104013178,534.7450202407722,842.8525321878716,955.574269199573,539.3885819347324,827.9578348361157,708.4896240234375,665.864501953125,1123.055908203125,961.3526611328125,667.6934204101562,1129.6361083984375,740.2210083007812,486.02252197265625,1163.87451171875,899.8150634765625,466.0502624511719,1163.0947265625,653.016845703125,572.5676879882812,861.5316162109375,704.7955932617188,607.2266845703125,601.9443969726562,695.7191162109375,556.9080200195312,432.6578063964844,730.5396728515625,546.9080200195312,234.33786010742188,789.55078125,448.72406005859375,160.47377014160156,788.74560546875,716.3610229492188,182.080810546875,1025.3375244140625,660.7267456054688,831.6679077148438,987.6871337890625,678.9894409179688,617.2538452148438,999.141357421875,602.3726196289062,511.8361511230469,960.1914672851562,491.3897705078125,328.1436767578125,883.2633666992188,407.0958251953125,289.4956970214844,975.6049194335938,638.2230834960938,195.23590087890625,0.0,0.0,0.0,0.0,0.0,0.0,0.0,0.0,0.0,0.0,0.0,0.0,1.0,0.0,0.0,0.0,0.0,0.0,0.0,0.0,0.0,0.0,0.0,0.0,0.0,1.0,0.0,0.0,0.0,0.0,0.0,0.0,0.0,0.0,0.0,0.0,0.0,0.0,1.0,0.0,0.0,0.0,0.0,0.0,0.0,0.0,0.0,0.0,0.0,0.0,0.0,1.0,0.0,0.0,0.0,0.0,0.0,0.0,0.0,0.0,0.0,0.0,0.0,0.0,1.0,0.0,0.0,0.0,0.0,0.0,0.0,0.0,0.0,0.0,0.0,0.0,0.0,1.0,0.0,0.0,0.0,0.0,0.0,0.0,0.0,0.0,0.0,0.0,0.0,0.0,1.0,0,0,0,0,0,0,0,0,0,0,0,0,0,0,0,0,0,0,0,0,0,0,0,0,0,0,0,0,0,0,0,0,0,0,0,0
1777039354.138786,7976,1777039345.1442163,,,0,0,,,0,0,934.7019021135417,493.1500132109081,888.155833957061,928.5350027650053,489.52760566380755,892.6062725816574,919.3283212804056,501.8043921347518,865.2102825003931,940.1338472019313,499.55957041828134,842.1633404197185,936.780101886813,503.9245280457772,827.4951973697595,940.8688014620781,496.7724207580087,883.7053953324645,950.08966489014,521.8099533460692,867.1488141005914,955.6012297156814,539.3341672882618,842.017255224109,956.973925438341,544.3320811538425,827.2324168175588,708.4080810546875,664.730224609375,1122.888671875,961.2539672851562,666.865966796875,1129.7559814453125,740.3670654296875,484.9579772949219,1164.257568359375,899.9849243164062,465.1182861328125,1163.565673828125,653.1158447265625,569.6527709960938,861.57568359375,704.79345703125,602.0728759765625,601.784912109375,696.0096435546875,550.7450561523438,432.7251892089844,730.974609375,539.6389770507812,234.50656127929688,789.860107421875,441.29486083984375,160.6478729248047,788.9346313476562,708.8933715820312,181.96083068847656,1025.310302734375,661.3591918945312,832.9497680664062,987.135498046875,681.6737670898438,617.2260131835938,999.1975708007812,609.2201538085938,508.53692626953125,960.7147827148438,505.4208068847656,320.4289245605469,884.1748046875,422.2449951171875,278.2196350097656,975.255615234375,657.7648315429688,193.58993530273438,0.0,0.0,0.0,0.0,0.0,0.0,0.0,0.0,0.0,0.0,0.0,0.0,1.0,0.0,0.0,0.0,0.0,0.0,0.0,0.0,0.0,0.0,0.0,0.0,0.0,1.0,0.0,0.0,0.0,0.0,0.0,0.0,0.0,0.0,0.0,0.0,0.0,0.0,1.0,0.0,0.0,0.0,0.0,0.0,0.0,0.0,0.0,0.0,0.0,0.0,0.0,1.0,0.0,0.0,0.0,0.0,0.0,0.0,0.0,0.0,0.0,0.0,0.0,0.0,1.0,0.0,0.0,0.0,0.0,0.0,0.0,0.0,0.0,0.0,0.0,0.0,0.0,1.0,0.0,0.0,0.0,0.0,0.0,0.0,0.0,0.0,0.0,0.0,0.0,0.0,1.0,0,0,0,0,0,0,0,0,0,0,0,0,0,0,0,0,0,0,0,0,0,0,0,0,0,0,0,0,0,0,0,0,0,0,0,0
1777039354.138786,7977,1777039345.15642,,,0,0,,,0,0,936.3463749003184,497.42171043756764,886.9445920526671,930.2364858211779,493.7069798388244,891.3975596005985,920.6035668231336,505.5190138392798,863.943862820493,941.4534884399504,503.65763246209934,840.9028840951595,938.0552020862294,507.78050270858546,826.1750711532687,942.456263979459,501.1364410363109,882.4916245047357,951.5595093052254,526.1834158403225,865.8843152629925,957.0951582811402,544.1508582850374,841.0730622698183,958.4037183106728,549.5003975513682,826.4059226867344,708.3767700195312,663.5844116210938,1122.65625,961.2001953125,666.0809936523438,1129.7618408203125,740.58544921875,483.89154052734375,1164.587890625,900.2333374023438,464.2287292480469,1163.950927734375,653.2493896484375,566.6901245117188,861.6021118164062,704.80029296875,596.8736572265625,601.63134765625,696.3203735351562,544.5509033203125,432.8052673339844,731.4246826171875,532.3544311523438,234.68472290039062,790.1661376953125,433.8310546875,160.83766174316406,789.120361328125,701.4287719726562,181.84446716308594,1025.292724609375,661.728515625,833.9733276367188,986.6171875,684.052734375,616.9510498046875,999.3365478515625,616.1072998046875,505.0340270996094,961.306396484375,519.9100341796875,312.6651916503906,885.1621704101562,437.95068359375,267.0623779296875,974.660888671875,677.5374145507812,192.078369140625,0.0,0.0,0.0,0.0,0.0,0.0,0.0,0.0,0.0,0.0,0.0,0.0,1.0,0.0,0.0,0.0,0.0,0.0,0.0,0.0,0.0,0.0,0.0,0.0,0.0,1.0,0.0,0.0,0.0,0.0,0.0,0.0,0.0,0.0,0.0,0.0,0.0,0.0,1.0,0.0,0.0,0.0,0.0,0.0,0.0,0.0,0.0,0.0,0.0,0.0,0.0,1.0,0.0,0.0,0.0,0.0,0.0,0.0,0.0,0.0,0.0,0.0,0.0,0.0,1.0,0.0,0.0,0.0,0.0,0.0,0.0,0.0,0.0,0.0,0.0,0.0,0.0,1.0,0.0,0.0,0.0,0.0,0.0,0.0,0.0,0.0,0.0,0.0,0.0,0.0,1.0,0,0,0,0,0,0,0,0,0,0,0,0,0,0,0,0,0,0,0,0,0,0,0,0,0,0,0,0,0,0,0,0,0,0,0,0
1777039354.1397865,7978,1777039345.1704235,,,0,0,,,0,0,937.967715500574,501.93068184499987,885.6770757233597,931.9190076108312,498.1224792307892,890.1346102074947,921.8530166378566,509.4435244096648,862.629474244649,942.731225752114,507.99829248557523,839.5842499769853,939.2890120152451,511.87116000522786,824.798887450909,944.0164233903167,505.7388844592105,881.2195412392248,953.0166789817034,530.7642973586787,864.5238276861712,958.6058979340816,549.1705128210955,840.0484822027372,959.8412409406715,554.8683927566477,825.5067156264689,708.3875732421875,662.432373046875,1122.364013671875,961.1834716796875,665.3482055664062,1129.661376953125,740.8753662109375,482.8302001953125,1164.8634033203125,900.5592651367188,463.38983154296875,1164.2489013671875,653.4182739257812,563.6959838867188,861.6094360351562,704.824951171875,591.6416625976562,601.4840698242188,696.6553955078125,538.3339233398438,432.9017333984375,731.89111328125,525.0516357421875,234.8741455078125,790.4662475585938,426.3283996582031,161.0447998046875,789.3067016601562,693.964111328125,181.7285614013672,1025.295654296875,661.8411865234375,834.7374877929688,986.1370849609375,686.10986328125,616.43310546875,999.5318603515625,623.0103149414062,501.3781433105469,961.9263916015625,534.8345947265625,304.951416015625,886.2058715820312,454.1754455566406,256.1156921386719,973.77783203125,697.4830322265625,190.78781127929688,0.0,0.0,0.0,0.0,0.0,0.0,0.0,0.0,0.0,0.0,0.0,0.0,1.0,0.0,0.0,0.0,0.0,0.0,0.0,0.0,0.0,0.0,0.0,0.0,0.0,1.0,0.0,0.0,0.0,0.0,0.0,0.0,0.0,0.0,0.0,0.0,0.0,0.0,1.0,0.0,0.0,0.0,0.0,0.0,0.0,0.0,0.0,0.0,0.0,0.0,0.0,1.0,0.0,0.0,0.0,0.0,0.0,0.0,0.0,0.0,0.0,0.0,0.0,0.0,1.0,0.0,0.0,0.0,0.0,0.0,0.0,0.0,0.0,0.0,0.0,0.0,0.0,1.0,0.0,0.0,0.0,0.0,0.0,0.0,0.0,0.0,0.0,0.0,0.0,0.0,1.0,0,0,0,0,0,0,0,0,0,0,0,0,0,0,0,0,0,0,0,0,0,0,0,0,0,0,0,0,0,0,0,0,0,0,0,0
1777039354.1397865,7979,1777039345.1812522,,,0,0,,,0,0,939.5315611856001,506.84492671690185,884.3842908123953,933.5429807757632,502.9400894430011,888.8394045598593,923.0393998930716,513.733314770334,861.2857511139197,943.9280430254014,512.7436558050115,838.2259194600998,940.4436794338651,516.3550130526124,823.3843497164794,945.520141595437,510.7497639908026,879.9291770649313,954.4421240804112,535.7074307497041,863.0906545337173,960.1169263724103,554.5189475908646,838.945383241776,961.2689577979555,560.5582522807031,824.5351609769938,708.4324951171875,661.2803344726562,1122.016845703125,961.1964111328125,664.6775512695312,1129.4625244140625,741.2360229492188,481.78155517578125,1165.0814208984375,900.9617309570312,462.6099548339844,1164.457275390625,653.6233520507812,560.6881103515625,861.5957641601562,704.87548828125,586.3916625976562,601.3423461914062,697.0183715820312,532.103515625,433.0166015625,732.3751220703125,517.72900390625,235.07644653320312,790.7598266601562,418.7867736816406,161.26878356933594,789.497802734375,686.4971313476562,181.6090545654297,1025.331298828125,661.7103271484375,835.2440185546875,985.6986083984375,687.8282470703125,615.677001953125,999.7570190429688,629.8970336914062,497.6170349121094,962.5333251953125,550.1608276367188,297.38055419921875,887.2911376953125,470.8722229003906,245.4449462890625,972.5529174804688,717.5458984375,189.81735229492188,0.0,0.0,0.0,0.0,0.0,0.0,0.0,0.0,0.0,0.0,0.0,0.0,1.0,0.0,0.0,0.0,0.0,0.0,0.0,0.0,0.0,0.0,0.0,0.0,0.0,1.0,0.0,0.0,0.0,0.0,0.0,0.0,0.0,0.0,0.0,0.0,0.0,0.0,1.0,0.0,0.0,0.0,0.0,0.0,0.0,0.0,0.0,0.0,0.0,0.0,0.0,1.0,0.0,0.0,0.0,0.0,0.0,0.0,0.0,0.0,0.0,0.0,0.0,0.0,1.0,0.0,0.0,0.0,0.0,0.0,0.0,0.0,0.0,0.0,0.0,0.0,0.0,1.0,0.0,0.0,0.0,0.0,0.0,0.0,0.0,0.0,0.0,0.0,0.0,0.0,1.0,0,0,0,0,0,0,0,0,0,0,0,0,0,0,0,0,0,0,0,0,0,0,0,0,0,0,0,0,0,0,0,0,0,0,0,0
1777039354.1397865,7980,1777039345.1822546,,,0,0,,,0,0,940.959725898754,512.1357280489334,883.0833271268481,935.0300022954613,508.1312043982129,887.52866809048,924.0904009448265,518.3596064239639,859.9292540236275,944.9689053264706,517.8610101238296,836.8444077127866,941.446227196823,521.1999941724494,821.9482066004043,946.8894495020467,516.140251699654,878.6379861632162,955.7658597330129,540.9783744617959,861.5998013535266,961.572106454133,560.1697663608969,837.7870180498347,962.6307367882594,566.543501612865,823.5143279034027,708.5042724609375,660.1356201171875,1121.6195068359375,961.2322387695312,664.078857421875,1129.1728515625,741.66650390625,480.75390625,1165.2381591796875,901.4395751953125,461.8974609375,1164.5736083984375,653.8651123046875,557.68505859375,861.5588989257812,704.9586791992188,581.1401977539062,601.2045288085938,697.4124145507812,525.8704833984375,433.150146484375,732.8775024414062,510.3863830566406,235.29327392578125,791.04736328125,411.2098083496094,161.5074920654297,789.697998046875,679.0255737304688,181.48178100585938,1025.4110107421875,661.3550415039062,835.49658203125,985.303466796875,689.1930541992188,614.6880493164062,999.9871215820312,636.7283935546875,493.79461669921875,963.0857543945312,565.8411865234375,290.03936767578125,888.4024047851562,487.9868469238281,235.0960235595703,970.9320678710938,737.6666259765625,189.2759552001953,0.0,0.0,0.0,0.0,0.0,0.0,0.0,0.0,0.0,0.0,0.0,0.0,1.0,0.0,0.0,0.0,0.0,0.0,0.0,0.0,0.0,0.0,0.0,0.0,0.0,1.0,0.0,0.0,0.0,0.0,0.0,0.0,0.0,0.0,0.0,0.0,0.0,0.0,1.0,0.0,0.0,0.0,0.0,0.0,0.0,0.0,0.0,0.0,0.0,0.0,0.0,1.0,0.0,0.0,0.0,0.0,0.0,0.0,0.0,0.0,0.0,0.0,0.0,0.0,1.0,0.0,0.0,0.0,0.0,0.0,0.0,0.0,0.0,0.0,0.0,0.0,0.0,1.0,0.0,0.0,0.0,0.0,0.0,0.0,0.0,0.0,0.0,0.0,0.0,0.0,1.0,0,0,0,0,0,0,0,0,0,0,0,0,0,0,0,0,0,0,0,0,0,0,0,0,0,0,0,0,0,0,0,0,0,0,0,0
1777039354.1397865,7981,1777039345.193317,,,0,0,,,0,0,942.2436645796754,517.5164037161965,881.782729584585,936.3726891665739,513.4163122758317,886.2189200497223,925.0105594953679,523.0576405684286,858.5789211236398,945.8553232876137,523.0685369020665,835.4582296029396,942.2985153120374,526.1304843353021,820.510705453317,948.1146399927769,521.6164951565612,877.3465391194477,956.9644607893831,546.2999951262769,860.0714633263356,962.9395767595788,565.8542715006079,836.5980967740282,963.8933587071529,572.5606993395216,822.4712072048238,708.5966796875,659.0068359375,1121.1761474609375,961.2855224609375,663.5619506835938,1128.7987060546875,742.1657104492188,479.7563171386719,1165.3289794921875,901.9915161132812,461.26080322265625,1164.59521484375,654.1436767578125,554.7056884765625,861.4962768554688,705.0801391601562,575.9052734375,601.0679321289062,697.83984375,519.6468505859375,433.3011474609375,733.39892578125,503.0248718261719,235.5261993408203,791.329833984375,403.603515625,161.75787353515625,789.910888671875,671.5458374023438,181.34347534179688,1025.5452880859375,660.800048828125,835.500244140625,984.9512939453125,690.193603515625,613.4720458984375,1000.1997680664062,643.4600219726562,489.9499816894531,963.5441284179688,581.8115234375,283.008056640625,889.5171508789062,505.45953369140625,225.10562133789062,968.8722534179688,757.77490234375,189.27561950683594,0.0,0.0,0.0,0.0,0.0,0.0,0.0,0.0,0.0,0.0,0.0,0.0,1.0,0.0,0.0,0.0,0.0,0.0,0.0,0.0,0.0,0.0,0.0,0.0,0.0,1.0,0.0,0.0,0.0,0.0,0.0,0.0,0.0,0.0,0.0,0.0,0.0,0.0,1.0,0.0,0.0,0.0,0.0,0.0,0.0,0.0,0.0,0.0,0.0,0.0,0.0,1.0,0.0,0.0,0.0,0.0,0.0,0.0,0.0,0.0,0.0,0.0,0.0,0.0,1.0,0.0,0.0,0.0,0.0,0.0,0.0,0.0,0.0,0.0,0.0,0.0,0.0,1.0,0.0,0.0,0.0,0.0,0.0,0.0,0.0,0.0,0.0,0.0,0.0,0.0,1.0,0,0,0,0,0,0,0,0,0,0,0,0,0,0,0,0,0,0,0,0,0,0,0,0,0,0,0,0,0,0,0,0,0,0,0,0
1777039354.1397865,7982,1777039345.2076557,,,0,0,,,0,0,943.400162086138,523.4513396971458,880.5422516114483,937.5908096232582,519.2480295445824,884.9629411150167,925.8169316456926,528.2581197870694,857.2823194865849,946.6004146463387,528.8157997284675,834.1132344782206,943.0133827769017,531.5864482335564,819.116181684706,949.2095145490179,527.6546498497092,876.1215621078798,958.0554082845034,552.1311566746169,858.5524551238719,964.2432131801578,572.0114761017427,835.4104015691688,965.0793959445582,579.0380016644317,821.4324324690466,708.7050170898438,657.9036865234375,1120.6904296875,961.3522338867188,663.136474609375,1128.3455810546875,742.7326049804688,478.79852294921875,1165.3487548828125,902.6162719726562,460.70831298828125,1164.51904296875,654.4586181640625,551.7686157226562,861.4052124023438,705.24365234375,570.7058715820312,600.92919921875,698.3023071289062,513.4458618164062,433.4671630859375,733.9396362304688,495.6470031738281,235.77674865722656,791.6080322265625,395.9742431640625,162.01710510253906,790.1389770507812,664.0527954101562,181.1926727294922,1025.7413330078125,660.074951171875,835.2606811523438,984.6390991210938,690.8255004882812,612.0358276367188,1000.375,650.0438842773438,486.1172790527344,963.8724365234375,597.98779296875,276.359619140625,890.6018676757812,523.2235717773438,215.51223754882812,966.3533325195312,777.7832641601562,189.92083740234375,0.0,0.0,0.0,0.0,0.0,0.0,0.0,0.0,0.0,0.0,0.0,0.0,1.0,0.0,0.0,0.0,0.0,0.0,0.0,0.0,0.0,0.0,0.0,0.0,0.0,1.0,0.0,0.0,0.0,0.0,0.0,0.0,0.0,0.0,0.0,0.0,0.0,0.0,1.0,0.0,0.0,0.0,0.0,0.0,0.0,0.0,0.0,0.0,0.0,0.0,0.0,1.0,0.0,0.0,0.0,0.0,0.0,0.0,0.0,0.0,0.0,0.0,0.0,0.0,1.0,0.0,0.0,0.0,0.0,0.0,0.0,0.0,0.0,0.0,0.0,0.0,0.0,1.0,0.0,0.0,0.0,0.0,0.0,0.0,0.0,0.0,0.0,0.0,0.0,0.0,1.0,0,0,0,0,0,0,0,0,0,0,0,0,0,0,0,0,0,0,0,0,0,0,0,0,0,0,0,0,0,0,0,0,0,0,0,0
1777039354.1397865,7983,1777039345.2181685,,,0,0,,,0,0,944.3634222705917,529.3494105343639,879.301834582824,938.6124895630433,525.0492951747708,883.7057724628368,926.4484652760075,533.4122419844825,855.9907877731945,947.1418004081173,534.5227400415495,832.7609933734278,943.5305194045491,537.0005549516611,817.7185877796716,950.1143549781402,533.6495258939569,874.8978967028112,958.9630617693169,557.8843341511438,856.9982542648756,965.3951149774808,578.0668342214389,834.1867208854669,966.1039458334518,585.4112458172534,820.3660096016197,708.826171875,656.8372802734375,1120.1654052734375,961.4299926757812,662.8115844726562,1127.817626953125,743.3657836914062,477.8909606933594,1165.2919921875,903.3120727539062,460.2482604980469,1164.3419189453125,654.8085327148438,548.8923950195312,861.2830200195312,705.45166015625,565.5615844726562,600.7845458984375,698.8005981445312,507.28143310546875,433.6451416015625,734.4990234375,488.25628662109375,236.04632568359375,791.8826904296875,388.3277282714844,162.28323364257812,790.3834838867188,656.5401611328125,181.0305633544922,1026.0035400390625,659.2132568359375,834.78369140625,984.3610229492188,691.0919189453125,610.3873291015625,1000.494873046875,656.4295654296875,482.32574462890625,964.0391845703125,614.263427734375,270.157958984375,891.6096801757812,541.2012329101562,206.36453247070312,963.3872680664062,797.5819091796875,191.29721069335938,0.0,0.0,0.0,0.0,0.0,0.0,0.0,0.0,0.0,0.0,0.0,0.0,1.0,0.0,0.0,0.0,0.0,0.0,0.0,0.0,0.0,0.0,0.0,0.0,0.0,1.0,0.0,0.0,0.0,0.0,0.0,0.0,0.0,0.0,0.0,0.0,0.0,0.0,1.0,0.0,0.0,0.0,0.0,0.0,0.0,0.0,0.0,0.0,0.0,0.0,0.0,1.0,0.0,0.0,0.0,0.0,0.0,0.0,0.0,0.0,0.0,0.0,0.0,0.0,1.0,0.0,0.0,0.0,0.0,0.0,0.0,0.0,0.0,0.0,0.0,0.0,0.0,1.0,0.0,0.0,0.0,0.0,0.0,0.0,0.0,0.0,0.0,0.0,0.0,0.0,1.0,0,0,0,0,0,0,0,0,0,0,0,0,0,0,0,0,0,0,0,0,0,0,0,0,0,0,0,0,0,0,0,0,0,0,0,0
1777039354.1397865,7984,1777039345.2309039,,,0,0,,,0,0,945.2076029770319,535.5441122868145,878.1196450374046,939.51545900188,531.1436466152394,882.5007735225099,926.983770062342,538.8329798691121,854.7545364987562,947.555258901403,540.5063159867971,831.450363785235,943.9237494664551,542.6832527180567,816.3663335229162,950.8997469521838,539.9445779583897,873.7385165522992,959.7328046563955,563.9120465503861,855.4748837419708,966.4191626362734,584.368589536348,832.9828153909186,966.9906333244064,592.0187132920325,819.3225111835487,708.9588012695312,655.8197021484375,1119.603759765625,961.51806640625,662.5960693359375,1127.2178955078125,744.0639038085938,477.0445251464844,1165.15283203125,904.0772705078125,459.8887023925781,1164.060791015625,655.1912231445312,546.0953979492188,861.1271362304688,705.704833984375,560.4918823242188,600.6300048828125,699.3342895507812,501.1678161621094,433.8320617675781,735.0757446289062,480.857177734375,236.33628845214844,792.1544189453125,380.6684265136719,162.55503845214844,790.6442260742188,649.0023803710938,180.86106872558594,1026.3319091796875,658.2517700195312,834.0753784179688,984.1080932617188,691.0048828125,608.5360717773438,1000.54248046875,662.5650024414062,478.6000671386719,964.0179443359375,630.5075073242188,264.4555969238281,892.4810791015625,559.2972412109375,197.7253875732422,960.0232543945312,817.0361938476562,193.46067810058594,0.0,0.0,0.0,0.0,0.0,0.0,0.0,0.0,0.0,0.0,0.0,0.0,1.0,0.0,0.0,0.0,0.0,0.0,0.0,0.0,0.0,0.0,0.0,0.0,0.0,1.0,0.0,0.0,0.0,0.0,0.0,0.0,0.0,0.0,0.0,0.0,0.0,0.0,1.0,0.0,0.0,0.0,0.0,0.0,0.0,0.0,0.0,0.0,0.0,0.0,0.0,1.0,0.0,0.0,0.0,0.0,0.0,0.0,0.0,0.0,0.0,0.0,0.0,0.0,1.0,0.0,0.0,0.0,0.0,0.0,0.0,0.0,0.0,0.0,0.0,0.0,0.0,1.0,0.0,0.0,0.0,0.0,0.0,0.0,0.0,0.0,0.0,0.0,0.0,0.0,1.0,0,0,0,0,0,0,0,0,0,0,0,0,0,0,0,0,0,0,0,0,0,0,0,0,0,0,0,0,0,0,0,0,0,0,0,0
1777039354.1397865,7985,1777039345.2436721,,,0,0,,,0,0,945.8641005706452,541.7405841468347,876.9549114586343,940.2275502671209,537.2431119039319,881.3093266964968,927.354128785732,544.2451525439742,853.5375930670945,947.7724180074297,546.4777267958051,830.1457194749865,944.1267815097153,548.3521590384039,815.0245184130004,951.5006508741694,546.2380563897376,872.6004962207719,960.2929079109717,569.9121114268727,853.9388222111266,967.2426506904619,590.6250780737104,831.7635034836337,967.6728046330904,598.5715450497788,818.2681889839095,709.1031494140625,654.8643188476562,1119.0079345703125,961.6173095703125,662.4983520507812,1126.5487060546875,744.8253784179688,476.2706298828125,1164.9254150390625,904.9098510742188,459.6373596191406,1163.67333984375,655.603271484375,543.3958129882812,860.9352416992188,706.0023803710938,555.5157470703125,600.4618530273438,699.9017944335938,495.1187744140625,434.0254211425781,735.667236328125,473.4546813964844,236.6480712890625,792.4241333007812,372.9993591308594,162.8310089111328,790.9190673828125,641.4362182617188,180.69020080566406,1026.722412109375,657.2295532226562,833.1419677734375,983.868408203125,690.5855712890625,606.493408203125,1000.5015258789062,668.3973388671875,474.96038818359375,963.7882080078125,646.564453125,259.29095458984375,893.1478881835938,577.390625,189.67086791992188,956.3486938476562,835.9862670898438,196.42774963378906,0.0,0.0,0.0,0.0,0.0,0.0,0.0,0.0,0.0,0.0,0.0,0.0,1.0,0.0,0.0,0.0,0.0,0.0,0.0,0.0,0.0,0.0,0.0,0.0,0.0,1.0,0.0,0.0,0.0,0.0,0.0,0.0,0.0,0.0,0.0,0.0,0.0,0.0,1.0,0.0,0.0,0.0,0.0,0.0,0.0,0.0,0.0,0.0,0.0,0.0,0.0,1.0,0.0,0.0,0.0,0.0,0.0,0.0,0.0,0.0,0.0,0.0,0.0,0.0,1.0,0.0,0.0,0.0,0.0,0.0,0.0,0.0,0.0,0.0,0.0,0.0,0.0,1.0,0.0,0.0,0.0,0.0,0.0,0.0,0.0,0.0,0.0,0.0,0.0,0.0,1.0,0,0,0,0,0,0,0,0,0,0,0,0,0,0,0,0,0,0,0,0,0,0,0,0,0,0,0,0,0,0,0,0,0,0,0,0
1777039354.1397865,7986,1777039345.244672,,,0,0,,,0,0,946.4133593372377,547.8022904321584,875.7779707983105,940.8248283937801,543.2124689409821,880.0977796524987,927.6367130352422,549.5234426087362,852.3080699167066,947.8722227787102,552.2927650527164,828.814971540731,944.2166614465247,553.866577591228,813.6619233753345,952.0018902806953,552.3921119233347,871.4581619441224,960.7020557416539,575.7630836025753,852.3760355881618,967.8865569308844,596.7118592523971,830.4990519268943,968.1747207539357,604.9441952690692,817.1723685967381,709.2610473632812,653.985107421875,1118.3798828125,961.7301635742188,662.52587890625,1125.8111572265625,745.6483154296875,475.580810546875,1164.6044921875,905.8074951171875,459.50146484375,1163.1776123046875,656.040283203125,540.811767578125,860.7055053710938,706.3422241210938,550.6509399414062,600.2769775390625,700.5001831054688,489.1471862792969,434.2238464355469,736.2700805664062,466.0540466308594,236.98330688476562,792.692626953125,365.3221740722656,163.10792541503906,791.2042236328125,633.8413696289062,180.5248260498047,1027.1671142578125,656.187255859375,831.9904174804688,983.6278076171875,689.8640747070312,604.2733154296875,1000.3562622070312,673.873779296875,471.4225769042969,963.3353881835938,662.255859375,254.68545532226562,893.5398559570312,595.3265991210938,182.28515625,952.4833984375,854.2501831054688,200.16677856445312,0.0,0.0,0.0,0.0,0.0,0.0,0.0,0.0,0.0,0.0,0.0,0.0,1.0,0.0,0.0,0.0,0.0,0.0,0.0,0.0,0.0,0.0,0.0,0.0,0.0,1.0,0.0,0.0,0.0,0.0,0.0,0.0,0.0,0.0,0.0,0.0,0.0,0.0,1.0,0.0,0.0,0.0,0.0,0.0,0.0,0.0,0.0,0.0,0.0,0.0,0.0,1.0,0.0,0.0,0.0,0.0,0.0,0.0,0.0,0.0,0.0,0.0,0.0,0.0,1.0,0.0,0.0,0.0,0.0,0.0,0.0,0.0,0.0,0.0,0.0,0.0,0.0,1.0,0.0,0.0,0.0,0.0,0.0,0.0,0.0,0.0,0.0,0.0,0.0,0.0,1.0,0,0,0,0,0,0,0,0,0,0,0,0,0,0,0,0,0,0,0,0,0,0,0,0,0,0,0,0,0,0,0,0,0,0,0,0
1777039354.1397865,7987,1777039345.2544024,,,0,0,,,0,0,946.9918538618198,553.7476636959558,874.6591966556069,941.4521442625776,549.0681606310274,878.9455420202455,927.9761500791179,554.693702302644,851.146736214725,948.0021978207621,557.9611042823943,827.5384290150951,944.337253960766,559.2367047554229,812.3596308677166,952.531563461062,558.4271667608842,870.3728512909684,961.0059537432768,581.5348255380629,850.8730164781565,968.3242558342242,602.7540500275927,829.3031847855224,968.4741074100914,611.2548171278072,816.1438008153019,709.4358520507812,653.1968383789062,1117.721923828125,961.8604125976562,662.685546875,1125.0067138671875,746.5306396484375,474.9866027832031,1164.1851806640625,906.7675170898438,459.48760986328125,1162.572998046875,656.4967041015625,538.3615112304688,860.4365234375,706.721435546875,545.9140625,600.0731201171875,701.1254272460938,483.26434326171875,434.4273376464844,736.8798828125,458.6604309082031,237.3439483642578,792.9609985351562,357.6375732421875,163.3798065185547,791.4948120117188,626.2196655273438,180.37142944335938,1027.654296875,655.1661376953125,830.6288452148438,983.370849609375,688.879150390625,601.8923950195312,1000.0918579101562,678.9431762695312,467.99786376953125,962.6511840820312,677.3843383789062,250.6409149169922,893.593505859375,612.9108276367188,175.6522674560547,948.5682373046875,871.629150390625,204.5907440185547,0.0,0.0,0.0,0.0,0.0,0.0,0.0,0.0,0.0,0.0,0.0,0.0,1.0,0.0,0.0,0.0,0.0,0.0,0.0,0.0,0.0,0.0,0.0,0.0,0.0,1.0,0.0,0.0,0.0,0.0,0.0,0.0,0.0,0.0,0.0,0.0,0.0,0.0,1.0,0.0,0.0,0.0,0.0,0.0,0.0,0.0,0.0,0.0,0.0,0.0,0.0,1.0,0.0,0.0,0.0,0.0,0.0,0.0,0.0,0.0,0.0,0.0,0.0,0.0,1.0,0.0,0.0,0.0,0.0,0.0,0.0,0.0,0.0,0.0,0.0,0.0,0.0,1.0,0.0,0.0,0.0,0.0,0.0,0.0,0.0,0.0,0.0,0.0,0.0,0.0,1.0,0,0,0,0,0,0,0,0,0,0,0,0,0,0,0,0,0,0,0,0,0,0,0,0,0,0,0,0,0,0,0,0,0,0,0,0
1777039354.1397865,7988,1777039345.2683206,,,0,0,,,0,0,947.4997305869091,559.4227733210033,873.5338917180594,942.0018495734342,554.6583691745246,877.7803779660366,928.2674560239645,559.6070425416389,849.9793022983818,948.0641910269228,563.3292896437717,826.2452585549886,944.3930267849734,564.3124556779194,811.0462184234374,952.997611600384,564.187177467482,869.2874054700823,961.1555606399814,587.0339075398598,849.3500652509856,968.5308505733848,608.5379881731567,828.0838881804614,968.5535611752385,617.2898455129878,815.0892985142048,709.6322021484375,652.5145263671875,1117.0362548828125,962.0132446289062,662.9832153320312,1124.136474609375,747.4697875976562,474.4994201660156,1163.6639404296875,907.7869262695312,459.6016540527344,1161.8599853515625,656.9662475585938,536.0634155273438,860.1275024414062,707.1363525390625,541.3201293945312,599.8489990234375,701.7725219726562,477.4798583984375,434.6376037597656,737.4917602539062,451.2786560058594,237.73257446289062,793.2306518554688,349.9455871582031,163.63790893554688,791.7860717773438,618.5751342773438,180.2349090576172,1028.16943359375,654.20751953125,829.0678100585938,983.082763671875,687.6773071289062,599.3702392578125,999.6954956054688,683.5574340820312,464.69287109375,961.7338256835938,691.7396850585938,247.1376953125,893.2611083984375,629.9076538085938,169.844970703125,944.7501220703125,887.9153442382812,209.55316162109375,0.0,0.0,0.0,0.0,0.0,0.0,0.0,0.0,0.0,0.0,0.0,0.0,1.0,0.0,0.0,0.0,0.0,0.0,0.0,0.0,0.0,0.0,0.0,0.0,0.0,1.0,0.0,0.0,0.0,0.0,0.0,0.0,0.0,0.0,0.0,0.0,0.0,0.0,1.0,0.0,0.0,0.0,0.0,0.0,0.0,0.0,0.0,0.0,0.0,0.0,0.0,1.0,0.0,0.0,0.0,0.0,0.0,0.0,0.0,0.0,0.0,0.0,0.0,0.0,1.0,0.0,0.0,0.0,0.0,0.0,0.0,0.0,0.0,0.0,0.0,0.0,0.0,1.0,0.0,0.0,0.0,0.0,0.0,0.0,0.0,0.0,0.0,0.0,0.0,0.0,1.0,0,0,0,0,0,0,0,0,0,0,0,0,0,0,0,0,0,0,0,0,0,0,0,0,0,0,0,0,0,0,0,0,0,0,0,0
1777039354.140788,7989,1777039345.2789202,,,0,0,,,0,0,948.0882955601768,564.6184517558579,872.4160331074237,942.628135357643,559.7764020168389,876.6231809359535,928.6639907578995,564.0758152964996,848.8285689834024,948.2223966194914,568.1822317125162,824.9606663304355,944.5440349474751,568.8841653635247,809.7477827174581,953.5484557627105,569.4605014948769,868.2088852788938,961.2423238733505,592.0804136622028,847.8332451764747,968.5255225871474,613.9174530928348,826.876876261981,968.4355266446227,622.90139202352,814.0419385806902,709.8557739257812,651.9531860351562,1116.3258056640625,962.1947631835938,663.4236450195312,1123.2025146484375,748.4628295898438,474.1300048828125,1163.038330078125,908.8621215820312,459.84844970703125,1161.0411376953125,657.44189453125,533.935791015625,859.7782592773438,707.5834350585938,536.8831176757812,599.6043090820312,702.4359130859375,471.8013610839844,434.85809326171875,738.1007690429688,443.9130859375,238.15252685546875,793.5037841796875,342.24627685546875,163.8719024658203,792.0736083984375,610.9133911132812,180.11764526367188,1028.6951904296875,653.3519287109375,827.3206787109375,982.7506713867188,686.3118286132812,596.7297973632812,999.1575317382812,687.674560546875,461.5093688964844,960.5877685546875,705.1074829101562,244.1343231201172,892.517333984375,646.0436401367188,164.911865234375,941.1650390625,902.9013061523438,214.84852600097656,0.0,0.0,0.0,0.0,0.0,0.0,0.0,0.0,0.0,0.0,0.0,0.0,1.0,0.0,0.0,0.0,0.0,0.0,0.0,0.0,0.0,0.0,0.0,0.0,0.0,1.0,0.0,0.0,0.0,0.0,0.0,0.0,0.0,0.0,0.0,0.0,0.0,0.0,1.0,0.0,0.0,0.0,0.0,0.0,0.0,0.0,0.0,0.0,0.0,0.0,0.0,1.0,0.0,0.0,0.0,0.0,0.0,0.0,0.0,0.0,0.0,0.0,0.0,0.0,1.0,0.0,0.0,0.0,0.0,0.0,0.0,0.0,0.0,0.0,0.0,0.0,0.0,1.0,0.0,0.0,0.0,0.0,0.0,0.0,0.0,0.0,0.0,0.0,0.0,0.0,1.0,0,0,0,0,0,0,0,0,0,0,0,0,0,0,0,0,0,0,0,0,0,0,0,0,0,0,0,0,0,0,0,0,0,0,0,0
1777039354.140788,7990,1777039345.2925813,,,0,0,,,0,0,948.7603563487646,569.2164739015465,871.2940851804851,943.3311181203312,564.306996930744,875.4629334741567,929.166727936824,567.9922501376017,847.6814341972012,948.4882683599487,572.4055499630463,823.675777926058,944.80138911589,572.8402459230966,808.4549749208084,954.189594577198,574.1259508723489,867.1252368868136,961.284737913094,596.5348456860465,846.3040189393329,968.3199215273479,618.7526932474757,825.6656053876372,968.1358696185309,627.9478433868935,812.9821428449796,710.1134643554688,651.5272216796875,1115.593994140625,962.412109375,664.0103149414062,1122.2078857421875,749.5061645507812,473.8883972167969,1162.307861328125,909.9889526367188,460.2317199707031,1160.12060546875,657.9161987304688,531.996826171875,859.3894653320312,708.05908203125,532.6165161132812,599.3397827148438,703.1098022460938,466.2347717285156,435.0939636230469,738.7021484375,436.5677795410156,238.60812377929688,793.783447265625,334.5398864746094,164.07225036621094,792.3533325195312,603.241455078125,180.01890563964844,1029.2132568359375,652.6381225585938,825.4050903320312,982.3654174804688,684.84130859375,593.9968872070312,998.4732666015625,691.2606201171875,458.4444580078125,959.2244873046875,717.2786254882812,241.56906127929688,891.3643188476562,661.0180053710938,160.86512756347656,937.9232788085938,916.389892578125,220.21844482421875,0.0,0.0,0.0,0.0,0.0,0.0,0.0,0.0,0.0,0.0,0.0,0.0,1.0,0.0,0.0,0.0,0.0,0.0,0.0,0.0,0.0,0.0,0.0,0.0,0.0,1.0,0.0,0.0,0.0,0.0,0.0,0.0,0.0,0.0,0.0,0.0,0.0,0.0,1.0,0.0,0.0,0.0,0.0,0.0,0.0,0.0,0.0,0.0,0.0,0.0,0.0,1.0,0.0,0.0,0.0,0.0,0.0,0.0,0.0,0.0,0.0,0.0,0.0,0.0,1.0,0.0,0.0,0.0,0.0,0.0,0.0,0.0,0.0,0.0,0.0,0.0,0.0,1.0,0.0,0.0,0.0,0.0,0.0,0.0,0.0,0.0,0.0,0.0,0.0,0.0,1.0,0,0,0,0,0,0,0,0,0,0,0,0,0,0,0,0,0,0,0,0,0,0,0,0,0,0,0,0,0,0,0,0,0,0,0,0
1777039354.140788,7991,1777039345.2949345,,,0,0,,,0,0,949.4613476680548,573.6106996469452,870.2526426382113,944.0614487517704,568.6364677184915,874.382654306407,929.7266254967252,571.7273654527829,846.6160928342416,948.8151039896288,576.3833551853376,822.4702356095273,945.119296010597,576.5569824092054,807.2463812936246,954.8612465843393,578.584931575399,866.1226309700157,961.2479883568444,600.7792084427738,844.8471439859203,967.87626142363,623.4087008805047,824.5236910105327,967.619766460937,632.7829269251758,811.9732735011389,710.4127807617188,651.2503051757812,1114.844970703125,962.6729736328125,664.745361328125,1121.1571044921875,750.5955200195312,473.7833557128906,1161.4739990234375,911.1627807617188,460.7538757324219,1159.1051025390625,658.3817749023438,530.2645874023438,858.9622192382812,708.5604858398438,528.5341796875,599.056884765625,703.788330078125,460.78485107421875,435.35186767578125,739.2918701171875,429.24652099609375,239.10482788085938,794.0738525390625,326.8274841308594,164.23348999023438,792.6218872070312,595.5679931640625,179.93455505371094,1029.704345703125,652.1023559570312,823.3433837890625,981.9230346679688,683.3279418945312,591.2005004882812,997.643798828125,694.2927856445312,455.49163818359375,957.6636352539062,728.06103515625,239.36386108398438,889.8328247070312,674.51904296875,157.67367553710938,935.0983276367188,928.2052612304688,225.36317443847656,0.0,0.0,0.0,0.0,0.0,0.0,0.0,0.0,0.0,0.0,0.0,0.0,1.0,0.0,0.0,0.0,0.0,0.0,0.0,0.0,0.0,0.0,0.0,0.0,0.0,1.0,0.0,0.0,0.0,0.0,0.0,0.0,0.0,0.0,0.0,0.0,0.0,0.0,1.0,0.0,0.0,0.0,0.0,0.0,0.0,0.0,0.0,0.0,0.0,0.0,0.0,1.0,0.0,0.0,0.0,0.0,0.0,0.0,0.0,0.0,0.0,0.0,0.0,0.0,1.0,0.0,0.0,0.0,0.0,0.0,0.0,0.0,0.0,0.0,0.0,0.0,0.0,1.0,0.0,0.0,0.0,0.0,0.0,0.0,0.0,0.0,0.0,0.0,0.0,0.0,1.0,0,0,0,0,0,0,0,0,0,0,0,0,0,0,0,0,0,0,0,0,0,0,0,0,0,0,0,0,0,0,0,0,0,0,0,0
1777039354.140788,7992,1777039345.305757,,,0,0,,,0,0,950.1287694365657,577.5453306815285,869.2096131661281,944.7526783682515,572.515177004002,873.3027887999397,930.2782816116428,575.0420557068675,845.5515822478264,949.1485585931102,579.8713255138949,821.2686361239802,945.4445476376017,579.7953348968111,806.045975005432,955.5048605048798,582.575484359055,865.1164375323165,961.14940243684,604.5172606649924,843.374304668604,967.2683915856009,627.5527629037188,823.3494630690567,966.9610716694073,637.076564638032,810.9133206503974,710.7619018554688,651.134521484375,1114.0841064453125,962.9854736328125,665.6292114257812,1120.0565185546875,751.7261352539062,473.8222351074219,1160.5404052734375,912.3782348632812,461.41583251953125,1158.0035400390625,658.8316650390625,528.7569580078125,858.4983520507812,709.08544921875,524.651611328125,598.757568359375,704.4658813476562,455.4560241699219,435.6397705078125,739.8662719726562,421.9529724121094,239.64939880371094,794.380126953125,319.1118469238281,164.35812377929688,792.8768920898438,587.902099609375,179.85728454589844,1030.1497802734375,651.7774047851562,821.1633911132812,981.4252319335938,681.8353881835938,588.3726806640625,996.6778564453125,696.760986328125,452.64239501953125,955.9340209960938,737.2913208007812,237.4306182861328,887.9811401367188,686.2459106445312,155.2672119140625,932.7205810546875,938.2042846679688,229.95872497558594,0.0,0.0,0.0,0.0,0.0,0.0,0.0,0.0,0.0,0.0,0.0,0.0,1.0,0.0,0.0,0.0,0.0,0.0,0.0,0.0,0.0,0.0,0.0,0.0,0.0,1.0,0.0,0.0,0.0,0.0,0.0,0.0,0.0,0.0,0.0,0.0,0.0,0.0,1.0,0.0,0.0,0.0,0.0,0.0,0.0,0.0,0.0,0.0,0.0,0.0,0.0,1.0,0.0,0.0,0.0,0.0,0.0,0.0,0.0,0.0,0.0,0.0,0.0,0.0,1.0,0.0,0.0,0.0,0.0,0.0,0.0,0.0,0.0,0.0,0.0,0.0,0.0,1.0,0.0,0.0,0.0,0.0,0.0,0.0,0.0,0.0,0.0,0.0,0.0,0.0,1.0,0,0,0,0,0,0,0,0,0,0,0,0,0,0,0,0,0,0,0,0,0,0,0,0,0,0,0,0,0,0,0,0,0,0,0,0
1777039354.140788,7993,1777039345.3179078,,,0,0,,,0,0,950.7580439869726,580.915874819943,868.1257511566198,945.4006958578201,575.8407884065972,872.1879189133365,930.8156339906134,577.8406155300348,844.4516717924499,949.4921368243447,582.7675744755433,820.03888845808,945.7801881168281,582.4556575429134,804.8211676076215,956.115392116125,585.9909612332889,864.0635833999031,961.0319295581297,607.6488648377805,841.8648083529622,966.5739718018311,631.0615218111042,822.1112280724537,966.2352095043011,640.7043156709412,809.7679444758967,711.1693725585938,651.1901245117188,1113.317626953125,963.3577880859375,666.6605224609375,1118.914794921875,752.8923950195312,474.0103759765625,1159.513427734375,913.6295166015625,462.216796875,1156.8270263671875,659.2599487304688,527.4912719726562,858.0003051757812,709.6328735351562,520.987548828125,598.4436645507812,705.1372680664062,450.25341796875,435.96673583984375,740.422119140625,414.6913146972656,240.24993896484375,794.7073974609375,311.39825439453125,164.4606170654297,793.11669921875,580.2522583007812,179.77764892578125,1030.5321044921875,651.6910400390625,818.898193359375,980.8800659179688,680.4258422851562,585.548095703125,995.5921020507812,698.669189453125,449.8888854980469,954.0753173828125,744.8468017578125,235.6793975830078,885.89306640625,695.9325561523438,153.55111694335938,930.7777709960938,946.28857421875,233.67886352539062,0.0,0.0,0.0,0.0,0.0,0.0,0.0,0.0,0.0,0.0,0.0,0.0,1.0,0.0,0.0,0.0,0.0,0.0,0.0,0.0,0.0,0.0,0.0,0.0,0.0,1.0,0.0,0.0,0.0,0.0,0.0,0.0,0.0,0.0,0.0,0.0,0.0,0.0,1.0,0.0,0.0,0.0,0.0,0.0,0.0,0.0,0.0,0.0,0.0,0.0,0.0,1.0,0.0,0.0,0.0,0.0,0.0,0.0,0.0,0.0,0.0,0.0,0.0,0.0,1.0,0.0,0.0,0.0,0.0,0.0,0.0,0.0,0.0,0.0,0.0,0.0,0.0,1.0,0.0,0.0,0.0,0.0,0.0,0.0,0.0,0.0,0.0,0.0,0.0,0.0,1.0,0,0,0,0,0,0,0,0,0,0,0,0,0,0,0,0,0,0,0,0,0,0,0,0,0,0,0,0,0,0,0,0,0,0,0,0
1777039354.140788,7994,1777039345.3310044,,,0,0,,,0,0,951.2643325686419,584.0070611058916,867.0373114527025,945.9249464111214,578.8920267642118,871.0729362008531,931.2563295345486,580.3902575768426,843.3491246680717,949.766263620646,585.3472252049137,818.8158516548234,946.0481935072589,584.8072758963439,803.6060096885607,956.6037187261624,589.1220954475714,863.001686704552,960.8550358554654,610.4835316730021,840.3822683301171,965.7990037400073,634.2125949822259,820.84872260223,965.4438650097172,643.9362394664666,808.5694922644232,711.6436157226562,651.4249877929688,1112.5531005859375,963.7977905273438,667.8359375,1117.742919921875,754.0882568359375,474.3509216308594,1158.4022216796875,914.9102172851562,463.1542053222656,1155.5894775390625,659.6622924804688,526.4844970703125,857.470703125,710.202392578125,517.5651245117188,598.1167602539062,705.7977905273438,445.1844787597656,436.34246826171875,740.9558715820312,407.46649169921875,240.91612243652344,795.0591430664062,303.6949157714844,164.5707244873047,793.3408203125,572.625244140625,179.68553161621094,1030.8363037109375,651.8654174804688,816.586181640625,980.301513671875,679.1576538085938,582.7637939453125,994.4117431640625,700.0363159179688,447.2265625,952.1384887695312,750.6553344726562,234.027587890625,883.6747436523438,703.3726806640625,152.4251251220703,929.2216186523438,952.4154663085938,236.22276306152344,0.0,0.0,0.0,0.0,0.0,0.0,0.0,0.0,0.0,0.0,0.0,0.0,1.0,0.0,0.0,0.0,0.0,0.0,0.0,0.0,0.0,0.0,0.0,0.0,0.0,1.0,0.0,0.0,0.0,0.0,0.0,0.0,0.0,0.0,0.0,0.0,0.0,0.0,1.0,0.0,0.0,0.0,0.0,0.0,0.0,0.0,0.0,0.0,0.0,0.0,0.0,1.0,0.0,0.0,0.0,0.0,0.0,0.0,0.0,0.0,0.0,0.0,0.0,0.0,1.0,0.0,0.0,0.0,0.0,0.0,0.0,0.0,0.0,0.0,0.0,0.0,0.0,1.0,0.0,0.0,0.0,0.0,0.0,0.0,0.0,0.0,0.0,0.0,0.0,0.0,1.0,0,0,0,0,0,0,0,0,0,0,0,0,0,0,0,0,0,0,0,0,0,0,0,0,0,0,0,0,0,0,0,0,0,0,0,0
1777039354.140788,7995,1777039345.3443167,,,0,0,,,0,0,951.7256990906171,586.5965994636933,865.8409615714633,946.4010407307376,581.4508499144139,869.8569499790941,931.6722661183301,582.4815048957539,842.1437096187337,950.050504209954,587.3881232432842,817.5015479091911,946.3261434842982,586.6322999080413,802.30244426675,957.0503574504967,591.7423490129728,861.8249731638324,960.7456621108479,612.8194537657785,838.8440436514908,965.140903926412,636.7835801856463,819.4669136525642,964.78056723252,646.5528436077047,807.2240980891393,712.19287109375,651.8439331054688,1111.7991943359375,964.3125610351562,669.1499633789062,1116.554443359375,755.3073120117188,474.844482421875,1157.2183837890625,916.2137451171875,464.2234191894531,1154.3067626953125,660.0368041992188,525.7528686523438,856.9124755859375,710.7940673828125,514.4137573242188,597.7774658203125,706.442626953125,440.2607116699219,436.77703857421875,741.462890625,400.285400390625,241.65928649902344,795.434326171875,296.0122375488281,164.73538208007812,793.54931640625,565.0252685546875,179.57180786132812,1031.0511474609375,652.3153686523438,814.2699584960938,979.7092895507812,678.0824584960938,580.058837890625,993.1705932617188,700.8964233398438,444.6572570800781,950.18505859375,754.7030639648438,232.408447265625,881.4495849609375,708.4439086914062,151.79837036132812,927.97998046875,956.60546875,237.3472137451172,0.0,0.0,0.0,0.0,0.0,0.0,0.0,0.0,0.0,0.0,0.0,0.0,1.0,0.0,0.0,0.0,0.0,0.0,0.0,0.0,0.0,0.0,0.0,0.0,0.0,1.0,0.0,0.0,0.0,0.0,0.0,0.0,0.0,0.0,0.0,0.0,0.0,0.0,1.0,0.0,0.0,0.0,0.0,0.0,0.0,0.0,0.0,0.0,0.0,0.0,0.0,1.0,0.0,0.0,0.0,0.0,0.0,0.0,0.0,0.0,0.0,0.0,0.0,0.0,1.0,0.0,0.0,0.0,0.0,0.0,0.0,0.0,0.0,0.0,0.0,0.0,0.0,1.0,0.0,0.0,0.0,0.0,0.0,0.0,0.0,0.0,0.0,0.0,0.0,0.0,1.0,0,0,0,0,0,0,0,0,0,0,0,0,0,0,0,0,0,0,0,0,0,0,0,0,0,0,0,0,0,0,0,0,0,0,0,0
1777039354.140788,7996,1777039345.3453856,,,0,0,,,0,0,952.1196826362124,588.7249562124781,864.532795252366,946.8068775093476,583.5573510363103,868.5363994274529,932.0377737179512,584.1510671585235,840.8318182736085,950.3220059574057,588.9288251277668,816.0945881764248,946.5915860825123,587.9681407876622,800.9085440431342,957.4324877630771,593.892561388646,860.529191077279,960.7237074082485,614.7068507108152,837.2492431433802,964.7027198265379,638.8184152677779,817.9652967767647,964.3408998660456,648.5979580878294,805.7307345937709,712.824462890625,652.4483642578125,1111.0660400390625,964.9080810546875,670.5950927734375,1115.36572265625,756.5426635742188,475.4886474609375,1155.976318359375,917.5331420898438,465.4178466796875,1152.996826171875,660.3844604492188,525.312255859375,856.3284301757812,711.4080810546875,511.5700378417969,597.4253540039062,707.0667724609375,435.4997863769531,437.28076171875,741.936767578125,393.157958984375,242.49282836914062,795.8255615234375,288.3623962402344,165.01754760742188,793.7427978515625,557.4537353515625,179.4298553466797,1031.169677734375,653.0475463867188,811.9954833984375,979.1276245117188,677.2428588867188,577.4734497070312,991.9105224609375,701.2979125976562,442.19097900390625,948.2842407226562,757.037841796875,230.7777557373047,879.3478393554688,711.1275024414062,151.59622192382812,926.97021484375,958.945068359375,236.89918518066406,0.0,0.0,0.0,0.0,0.0,0.0,0.0,0.0,0.0,0.0,0.0,0.0,1.0,0.0,0.0,0.0,0.0,0.0,0.0,0.0,0.0,0.0,0.0,0.0,0.0,1.0,0.0,0.0,0.0,0.0,0.0,0.0,0.0,0.0,0.0,0.0,0.0,0.0,1.0,0.0,0.0,0.0,0.0,0.0,0.0,0.0,0.0,0.0,0.0,0.0,0.0,1.0,0.0,0.0,0.0,0.0,0.0,0.0,0.0,0.0,0.0,0.0,0.0,0.0,1.0,0.0,0.0,0.0,0.0,0.0,0.0,0.0,0.0,0.0,0.0,0.0,0.0,1.0,0.0,0.0,0.0,0.0,0.0,0.0,0.0,0.0,0.0,0.0,0.0,0.0,1.0,0,0,0,0,0,0,0,0,0,0,0,0,0,0,0,0,0,0,0,0,0,0,0,0,0,0,0,0,0,0,0,0,0,0,0,0
1777039354.140788,7997,1777039345.3589084,,,0,0,,,0,0,952.5554140343686,590.3394579612108,863.1250195778521,947.2526256746279,585.1578651803271,867.123821877099,932.4580533270915,585.3525440239763,839.4271529122917,950.6929737183203,589.9084100328486,814.6117859814011,946.9539292148092,588.7550984040233,799.4412783514583,957.8582023941093,595.5210507420944,859.1262172786052,960.8403803074792,616.1494694824858,835.6401001514841,964.4847002672931,640.3380964318908,816.3865308456903,964.121300786859,650.0940771832384,804.1332184910848,713.5445556640625,653.2356567382812,1110.364501953125,965.5888671875,672.1615600585938,1114.1951904296875,757.7876586914062,476.27789306640625,1154.6923828125,918.8617553710938,466.7287292480469,1151.67919921875,660.7094116210938,525.1775512695312,855.7213134765625,712.0438232421875,509.0784912109375,597.0587158203125,707.6646118164062,430.9277648925781,437.8641052246094,742.3690185546875,386.0986328125,243.4324951171875,796.2180786132812,280.7581481933594,165.49127197265625,793.9220581054688,549.9093017578125,179.25697326660156,1031.1905517578125,654.0595092773438,809.810546875,978.5846557617188,676.6704711914062,575.0485229492188,990.6805419921875,701.3024291992188,439.84710693359375,946.509033203125,757.76806640625,229.11761474609375,877.491455078125,711.5204467773438,151.75938415527344,926.1131591796875,959.5828857421875,234.84278869628906,0.0,0.0,0.0,0.0,0.0,0.0,0.0,0.0,0.0,0.0,0.0,0.0,1.0,0.0,0.0,0.0,0.0,0.0,0.0,0.0,0.0,0.0,0.0,0.0,0.0,1.0,0.0,0.0,0.0,0.0,0.0,0.0,0.0,0.0,0.0,0.0,0.0,0.0,1.0,0.0,0.0,0.0,0.0,0.0,0.0,0.0,0.0,0.0,0.0,0.0,0.0,1.0,0.0,0.0,0.0,0.0,0.0,0.0,0.0,0.0,0.0,0.0,0.0,0.0,1.0,0.0,0.0,0.0,0.0,0.0,0.0,0.0,0.0,0.0,0.0,0.0,0.0,1.0,0.0,0.0,0.0,0.0,0.0,0.0,0.0,0.0,0.0,0.0,0.0,0.0,1.0,0,0,0,0,0,0,0,0,0,0,0,0,0,0,0,0,0,0,0,0,0,0,0,0,0,0,0,0,0,0,0,0,0,0,0,0
1777039354.140788,7998,1777039345.3735194,,,0,0,,,0,0,952.9235793466394,591.5053513431999,861.626606664613,947.6290502525104,586.3171161159661,865.627739611902,932.8257576197198,586.1425769527931,837.9355962161073,951.0559034070983,590.391038667837,813.0622564663529,947.3083754620154,589.0553619549585,797.9088117991471,958.2181084407683,596.6935865704337,857.6254737173239,961.0174665776368,617.2064267240341,834.0159475594537,964.4664014607212,641.4037147380558,814.7372864643798,964.0963579469709,651.105930308403,802.4415569582864,714.3576049804688,654.1990966796875,1109.7066650390625,966.357421875,673.8374633789062,1113.0638427734375,759.0359497070312,477.20343017578125,1153.3856201171875,920.1931762695312,468.145263671875,1150.3746337890625,661.0195922851562,525.3623657226562,855.09375,712.6989135742188,506.99163818359375,596.6746215820312,708.2296752929688,426.5809326171875,438.5376892089844,742.7489013671875,379.12823486328125,244.49697875976562,796.5921020507812,273.2120361328125,166.23300170898438,794.0880126953125,542.3883056640625,179.05563354492188,1031.11865234375,655.33935546875,807.7627563476562,978.1107177734375,676.3845825195312,572.8240966796875,989.5353393554688,700.9819946289062,437.6536865234375,944.9300537109375,757.055908203125,227.43650817871094,875.9769897460938,709.8338623046875,152.23736572265625,925.343994140625,958.7186279296875,231.27420043945312,0.0,0.0,0.0,0.0,0.0,0.0,0.0,0.0,0.0,0.0,0.0,0.0,1.0,0.0,0.0,0.0,0.0,0.0,0.0,0.0,0.0,0.0,0.0,0.0,0.0,1.0,0.0,0.0,0.0,0.0,0.0,0.0,0.0,0.0,0.0,0.0,0.0,0.0,1.0,0.0,0.0,0.0,0.0,0.0,0.0,0.0,0.0,0.0,0.0,0.0,0.0,1.0,0.0,0.0,0.0,0.0,0.0,0.0,0.0,0.0,0.0,0.0,0.0,0.0,1.0,0.0,0.0,0.0,0.0,0.0,0.0,0.0,0.0,0.0,0.0,0.0,0.0,1.0,0.0,0.0,0.0,0.0,0.0,0.0,0.0,0.0,0.0,0.0,0.0,0.0,1.0,0,0,0,0,0,0,0,0,0,0,0,0,0,0,0,0,0,0,0,0,0,0,0,0,0,0,0,0,0,0,0,0,0,0,0,0
1777039354.140788,7999,1777039345.374597,,,0,0,,,0,0,953.4441492626646,592.2507124271366,860.0943803463011,948.156808341632,587.0626529871192,864.1052347683902,933.3576210757716,586.5547113707535,836.4150055506836,951.6300468970481,590.390726137833,811.5056876557135,947.8691023034322,588.8829387050753,796.3717272988226,958.7314901836972,597.438771867154,856.083525924212,961.4166469717885,617.9140486302982,832.4281731041677,964.7463605478375,642.0653325948114,813.0710255083335,964.3645925009162,651.6875846179221,800.7129754022421,715.2659301757812,655.3270874023438,1109.10498046875,967.2140502929688,675.6090087890625,1111.993896484375,760.2816162109375,478.2529602050781,1152.076171875,921.5216674804688,469.6545715332031,1149.104248046875,661.326171875,525.8787231445312,854.4484252929688,713.368408203125,505.3692932128906,596.2696533203125,708.754638671875,422.5068359375,439.31280517578125,743.0639038085938,372.27545166015625,245.70838928222656,796.9271240234375,265.7350769042969,167.3109893798828,794.2421264648438,534.8856811523438,178.83425903320312,1030.965087890625,656.865478515625,805.8978271484375,977.7366333007812,676.390869140625,570.8380126953125,988.5323486328125,700.4150390625,435.6456298828125,943.6091918945312,755.1044921875,225.76571655273438,874.8621215820312,706.3741455078125,152.98126220703125,924.619384765625,956.5844116210938,226.4194793701172,0.0,0.0,0.0,0.0,0.0,0.0,0.0,0.0,0.0,0.0,0.0,0.0,1.0,0.0,0.0,0.0,0.0,0.0,0.0,0.0,0.0,0.0,0.0,0.0,0.0,1.0,0.0,0.0,0.0,0.0,0.0,0.0,0.0,0.0,0.0,0.0,0.0,0.0,1.0,0.0,0.0,0.0,0.0,0.0,0.0,0.0,0.0,0.0,0.0,0.0,0.0,1.0,0.0,0.0,0.0,0.0,0.0,0.0,0.0,0.0,0.0,0.0,0.0,0.0,1.0,0.0,0.0,0.0,0.0,0.0,0.0,0.0,0.0,0.0,0.0,0.0,0.0,1.0,0.0,0.0,0.0,0.0,0.0,0.0,0.0,0.0,0.0,0.0,0.0,0.0,1.0,0,0,0,0,0,0,0,0,0,0,0,0,0,0,0,0,0,0,0,0,0,0,0,0,0,0,0,0,0,0,0,0,0,0,0,0
1777039354.1417868,8000,1777039345.3855696,,,0,0,,,0,0,954.1784640733051,592.4762369850288,858.5168050071591,948.8971164326808,587.292925463444,862.541669816398,934.1149699958656,586.4921014597513,834.8492598421752,952.4736629840904,589.8070521866632,809.9285823609702,948.6931710372521,588.1390754164723,794.8163152445985,959.4598117139294,597.6595485066135,854.4919401979201,962.0811063601999,618.1816639500058,830.8700364928781,965.3442947792568,642.2394973695932,811.3856087317889,964.9408942939241,651.7643092861356,798.9529859487435,716.26953125,656.6033325195312,1108.572509765625,968.156494140625,677.4605102539062,1111.0091552734375,761.5198364257812,479.41082763671875,1150.785400390625,922.84228515625,471.2420349121094,1147.8892822265625,661.6434326171875,526.7359619140625,853.7883911132812,714.0440673828125,504.27667236328125,595.8399047851562,709.2316284179688,418.76446533203125,440.2015380859375,743.3005981445312,365.5780944824219,247.0926055908203,797.2073364257812,258.3365173339844,168.77670288085938,794.3859252929688,527.396728515625,178.60714721679688,1030.747314453125,658.607177734375,804.2572021484375,977.4911499023438,676.6812744140625,569.1240844726562,987.7280883789062,699.6809692382812,433.86114501953125,942.5936889648438,752.1397705078125,224.1524658203125,874.1605834960938,701.505615234375,153.93865966796875,923.9198608398438,953.419921875,220.61289978027344,0.0,0.0,0.0,0.0,0.0,0.0,0.0,0.0,0.0,0.0,0.0,0.0,1.0,0.0,0.0,0.0,0.0,0.0,0.0,0.0,0.0,0.0,0.0,0.0,0.0,1.0,0.0,0.0,0.0,0.0,0.0,0.0,0.0,0.0,0.0,0.0,0.0,0.0,1.0,0.0,0.0,0.0,0.0,0.0,0.0,0.0,0.0,0.0,0.0,0.0,0.0,1.0,0.0,0.0,0.0,0.0,0.0,0.0,0.0,0.0,0.0,0.0,0.0,0.0,1.0,0.0,0.0,0.0,0.0,0.0,0.0,0.0,0.0,0.0,0.0,0.0,0.0,1.0,0.0,0.0,0.0,0.0,0.0,0.0,0.0,0.0,0.0,0.0,0.0,0.0,1.0,0,0,0,0,0,0,0,0,0,0,0,0,0,0,0,0,0,0,0,0,0,0,0,0,0,0,0,0,0,0,0,0,0,0,0,0
