Timestamp,Vicon_Frame_Num,Vicon_Recv_Timestamp,IMU_Recv_Timestamp,Planter_Recv_Timestamp,Vicon_Gap_Flag,Vicon_Gap_Size,IMU_Stale_ms,Planter_Stale_ms,IMU_Matched_Flag,Planter_Matched_Flag,Vicon_Root_X,Vicon_Root_Y,Vicon_Root_Z,Vicon_L_Femur_X,Vicon_L_Femur_Y,Vicon_L_Femur_Z,Vicon_L_Tibia_X,Vicon_L_Tibia_Y,Vicon_L_Tibia_Z,Vicon_L_Foot_X,Vicon_L_Foot_Y,Vicon_L_Foot_Z,Vicon_L_Toe_X,Vicon_L_Toe_Y,Vicon_L_Toe_Z,Vicon_R_Femur_X,Vicon_R_Femur_Y,Vicon_R_Femur_Z,Vicon_R_Tibia_X,Vicon_R_Tibia_Y,Vicon_R_Tibia_Z,Vicon_R_Foot_X,Vicon_R_Foot_Y,Vicon_R_Foot_Z,Vicon_R_Toe_X,Vicon_R_Toe_Y,Vicon_R_Toe_Z,Vicon_LASI_X,Vicon_LASI_Y,Vicon_LASI_Z,Vicon_RASI_X,Vicon_RASI_Y,Vicon_RASI_Z,Vicon_LPSI_X,Vicon_LPSI_Y,Vicon_LPSI_Z,Vicon_RPSI_X,Vicon_RPSI_Y,Vicon_RPSI_Z,Vicon_LTHI_X,Vicon_LTHI_Y,Vicon_LTHI_Z,Vicon_LKNE_X,Vicon_LKNE_Y,Vicon_LKNE_Z,Vicon_LTIB_X,Vicon_LTIB_Y,Vicon_LTIB_Z,Vicon_LANK_X,Vicon_LANK_Y,Vicon_LANK_Z,Vicon_LHEE_X,Vicon_LHEE_Y,Vicon_LHEE_Z,Vicon_LTOE_X,Vicon_LTOE_Y,Vicon_LTOE_Z,Vicon_RTHI_X,Vicon_RTHI_Y,Vicon_RTHI_Z,Vicon_RKNE_X,Vicon_RKNE_Y,Vicon_RKNE_Z,Vicon_RTIB_X,Vicon_RTIB_Y,Vicon_RTIB_Z,Vicon_RANK_X,Vicon_RANK_Y,Vicon_RANK_Z,Vicon_RHEE_X,Vicon_RHEE_Y,Vicon_RHEE_Z,Vicon_RTOE_X,Vicon_RTOE_Y,Vicon_RTOE_Z,IMU_Trunk_Acc_X,IMU_Trunk_Acc_Y,IMU_Trunk_Acc_Z,IMU_Trunk_Gyro_X,IMU_Trunk_Gyro_Y,IMU_Trunk_Gyro_Z,IMU_Trunk_Roll,IMU_Trunk_Pitch,IMU_Trunk_Yaw,IMU_Trunk_Quat_x,IMU_Trunk_Quat_y,IMU_Trunk_Quat_z,IMU_Trunk_Quat_w,IMU_L_Femur_Acc_X,IMU_L_Femur_Acc_Y,IMU_L_Femur_Acc_Z,IMU_L_Femur_Gyro_X,IMU_L_Femur_Gyro_Y,IMU_L_Femur_Gyro_Z,IMU_L_Femur_Roll,IMU_L_Femur_Pitch,IMU_L_Femur_Yaw,IMU_L_Femur_Quat_x,IMU_L_Femur_Quat_y,IMU_L_Femur_Quat_z,IMU_L_Femur_Quat_w,IMU_L_Tibia_Acc_X,IMU_L_Tibia_Acc_Y,IMU_L_Tibia_Acc_Z,IMU_L_Tibia_Gyro_X,IMU_L_Tibia_Gyro_Y,IMU_L_Tibia_Gyro_Z,IMU_L_Tibia_Roll,IMU_L_Tibia_Pitch,IMU_L_Tibia_Yaw,IMU_L_Tibia_Quat_x,IMU_L_Tibia_Quat_y,IMU_L_Tibia_Quat_z,IMU_L_Tibia_Quat_w,IMU_L_Foot_Acc_X,IMU_L_Foot_Acc_Y,IMU_L_Foot_Acc_Z,IMU_L_Foot_Gyro_X,IMU_L_Foot_Gyro_Y,IMU_L_Foot_Gyro_Z,IMU_L_Foot_Roll,IMU_L_Foot_Pitch,IMU_L_Foot_Yaw,IMU_L_Foot_Quat_x,IMU_L_Foot_Quat_y,IMU_L_Foot_Quat_z,IMU_L_Foot_Quat_w,IMU_R_Femur_Acc_X,IMU_R_Femur_Acc_Y,IMU_R_Femur_Acc_Z,IMU_R_Femur_Gyro_X,IMU_R_Femur_Gyro_Y,IMU_R_Femur_Gyro_Z,IMU_R_Femur_Roll,IMU_R_Femur_Pitch,IMU_R_Femur_Yaw,IMU_R_Femur_Quat_x,IMU_R_Femur_Quat_y,IMU_R_Femur_Quat_z,IMU_R_Femur_Quat_w,IMU_R_Tibia_Acc_X,IMU_R_Tibia_Acc_Y,IMU_R_Tibia_Acc_Z,IMU_R_Tibia_Gyro_X,IMU_R_Tibia_Gyro_Y,IMU_R_Tibia_Gyro_Z,IMU_R_Tibia_Roll,IMU_R_Tibia_Pitch,IMU_R_Tibia_Yaw,IMU_R_Tibia_Quat_x,IMU_R_Tibia_Quat_y,IMU_R_Tibia_Quat_z,IMU_R_Tibia_Quat_w,IMU_R_Foot_Acc_X,IMU_R_Foot_Acc_Y,IMU_R_Foot_Acc_Z,IMU_R_Foot_Gyro_X,IMU_R_Foot_Gyro_Y,IMU_R_Foot_Gyro_Z,IMU_R_Foot_Roll,IMU_R_Foot_Pitch,IMU_R_Foot_Yaw,IMU_R_Foot_Quat_x,IMU_R_Foot_Quat_y,IMU_R_Foot_Quat_z,IMU_R_Foot_Quat_w,Planter_Left_0,Planter_Left_1,Planter_Left_2,Planter_Left_3,Planter_Left_4,Planter_Left_5,Planter_Left_6,Planter_Left_7,Planter_Left_8,Planter_Left_9,Planter_Left_10,Planter_Left_11,Planter_Left_12,Planter_Left_13,Planter_Left_14,Planter_Left_15,Planter_Left_16,Planter_Left_17,Planter_Right_0,Planter_Right_1,Planter_Right_2,Planter_Right_3,Planter_Right_4,Planter_Right_5,Planter_Right_6,Planter_Right_7,Planter_Right_8,Planter_Right_9,Planter_Right_10,Planter_Right_11,Planter_Right_12,Planter_Right_13,Planter_Right_14,Planter_Right_15,Planter_Right_16,Planter_Right_17
1777287896.1894932,202229,1777287875.4268837,1777287894.244485,1777287876.6952665,0,0,-18817.601203918457,-1268.3827877044678,1,1,0.0,0.0,0.0,0.0,0.0,0.0,0.0,0.0,0.0,0.0,0.0,0.0,0.0,0.0,0.0,0.0,0.0,0.0,0.0,0.0,0.0,0.0,0.0,0.0,0.0,0.0,0.0,0.0,0.0,0.0,0.0,0.0,0.0,0.0,0.0,0.0,0.0,0.0,0.0,0.0,0.0,0.0,0.0,0.0,0.0,0.0,0.0,0.0,0.0,0.0,0.0,0.0,0.0,0.0,0.0,0.0,0.0,0.0,0.0,0.0,0.0,0.0,0.0,0.0,0.0,0.0,0.0,0.0,0.0,0.0,0.0,0.0,0.0,0.0,0.0,-0.5551,9.5272,0.6364,-1.5869,-12.207,-2.7466,87.3688,1.4282,-28.6633,0.6669,0.1797,-0.1707,0.7027,0.8757,9.3263,-2.517,-3.54,-13.3057,1.0986,107.287,-6.9159,-23.1702,0.7947,0.1264,-0.1664,0.5699,1.8901,9.1875,-2.1629,-0.7324,-6.7139,0.7935,105.1721,-11.1621,-22.0605,0.7872,0.0932,-0.1915,0.5787,-0.8326,0.4689,9.9675,-0.4272,-0.7324,0.3052,3.2794,4.9823,-140.4987,-0.0312,0.0416,-0.9395,0.3386,-1.4547,9.1062,-2.4452,-2.5024,-11.2305,2.1362,104.6448,7.1851,-28.4875,0.7562,0.2315,-0.102,0.6035,-0.4833,9.4985,-1.7849,-2.8076,-8.4229,-0.6104,99.0527,3.2574,-15.8643,0.7506,0.1232,-0.0681,0.6456,0.9092,0.4881,9.9723,-0.5493,0.0,-0.061,4.5374,-5.3668,-88.83,0.061,-0.0057,-0.6999,0.7116,48897,0,23050,58112,0,0,0,0,51468,40193,0,0,38400,0,0,0,0,0,0,0,29202,44548,0,0,0,0,19215,32515,0,0,0,0,38657,0,7168,0
1777287896.1894932,202230,1777287875.4288788,1777287894.244485,1777287876.6952665,0,0,-18815.606117248535,-1266.387701034546,1,1,0.0,0.0,0.0,0.0,0.0,0.0,0.0,0.0,0.0,0.0,0.0,0.0,0.0,0.0,0.0,0.0,0.0,0.0,0.0,0.0,0.0,0.0,0.0,0.0,0.0,0.0,0.0,0.0,0.0,0.0,0.0,0.0,0.0,0.0,0.0,0.0,0.0,0.0,0.0,0.0,0.0,0.0,0.0,0.0,0.0,0.0,0.0,0.0,0.0,0.0,0.0,0.0,0.0,0.0,0.0,0.0,0.0,0.0,0.0,0.0,0.0,0.0,0.0,0.0,0.0,0.0,0.0,0.0,0.0,0.0,0.0,0.0,0.0,0.0,0.0,-0.5551,9.5272,0.6364,-1.5869,-12.207,-2.7466,87.3688,1.4282,-28.6633,0.6669,0.1797,-0.1707,0.7027,0.8757,9.3263,-2.517,-3.54,-13.3057,1.0986,107.287,-6.9159,-23.1702,0.7947,0.1264,-0.1664,0.5699,1.8901,9.1875,-2.1629,-0.7324,-6.7139,0.7935,105.1721,-11.1621,-22.0605,0.7872,0.0932,-0.1915,0.5787,-0.8326,0.4689,9.9675,-0.4272,-0.7324,0.3052,3.2794,4.9823,-140.4987,-0.0312,0.0416,-0.9395,0.3386,-1.4547,9.1062,-2.4452,-2.5024,-11.2305,2.1362,104.6448,7.1851,-28.4875,0.7562,0.2315,-0.102,0.6035,-0.4833,9.4985,-1.7849,-2.8076,-8.4229,-0.6104,99.0527,3.2574,-15.8643,0.7506,0.1232,-0.0681,0.6456,0.9092,0.4881,9.9723,-0.5493,0.0,-0.061,4.5374,-5.3668,-88.83,0.061,-0.0057,-0.6999,0.7116,48897,0,23050,58112,0,0,0,0,51468,40193,0,0,38400,0,0,0,0,0,0,0,29202,44548,0,0,0,0,19215,32515,0,0,0,0,38657,0,7168,0
1777287896.1894932,202231,1777287875.4406762,1777287894.244485,1777287876.6952665,0,0,-18803.80868911743,-1254.5902729034424,1,1,0.0,0.0,0.0,0.0,0.0,0.0,0.0,0.0,0.0,0.0,0.0,0.0,0.0,0.0,0.0,0.0,0.0,0.0,0.0,0.0,0.0,0.0,0.0,0.0,0.0,0.0,0.0,0.0,0.0,0.0,0.0,0.0,0.0,0.0,0.0,0.0,0.0,0.0,0.0,0.0,0.0,0.0,0.0,0.0,0.0,0.0,0.0,0.0,0.0,0.0,0.0,0.0,0.0,0.0,0.0,0.0,0.0,0.0,0.0,0.0,0.0,0.0,0.0,0.0,0.0,0.0,0.0,0.0,0.0,0.0,0.0,0.0,0.0,0.0,0.0,-0.5551,9.5272,0.6364,-1.5869,-12.207,-2.7466,87.3688,1.4282,-28.6633,0.6669,0.1797,-0.1707,0.7027,0.8757,9.3263,-2.517,-3.54,-13.3057,1.0986,107.287,-6.9159,-23.1702,0.7947,0.1264,-0.1664,0.5699,1.8901,9.1875,-2.1629,-0.7324,-6.7139,0.7935,105.1721,-11.1621,-22.0605,0.7872,0.0932,-0.1915,0.5787,-0.8326,0.4689,9.9675,-0.4272,-0.7324,0.3052,3.2794,4.9823,-140.4987,-0.0312,0.0416,-0.9395,0.3386,-1.4547,9.1062,-2.4452,-2.5024,-11.2305,2.1362,104.6448,7.1851,-28.4875,0.7562,0.2315,-0.102,0.6035,-0.4833,9.4985,-1.7849,-2.8076,-8.4229,-0.6104,99.0527,3.2574,-15.8643,0.7506,0.1232,-0.0681,0.6456,0.9092,0.4881,9.9723,-0.5493,0.0,-0.061,4.5374,-5.3668,-88.83,0.061,-0.0057,-0.6999,0.7116,48897,0,23050,58112,0,0,0,0,51468,40193,0,0,38400,0,0,0,0,0,0,0,29202,44548,0,0,0,0,19215,32515,0,0,0,0,38657,0,7168,0
1777287896.1904943,202232,1777287875.448686,1777287894.244485,1777287876.6952665,0,0,-18795.799016952515,-1246.5806007385254,1,1,0.0,0.0,0.0,0.0,0.0,0.0,0.0,0.0,0.0,0.0,0.0,0.0,0.0,0.0,0.0,0.0,0.0,0.0,0.0,0.0,0.0,0.0,0.0,0.0,0.0,0.0,0.0,0.0,0.0,0.0,0.0,0.0,0.0,0.0,0.0,0.0,0.0,0.0,0.0,0.0,0.0,0.0,0.0,0.0,0.0,0.0,0.0,0.0,0.0,0.0,0.0,0.0,0.0,0.0,0.0,0.0,0.0,0.0,0.0,0.0,0.0,0.0,0.0,0.0,0.0,0.0,0.0,0.0,0.0,0.0,0.0,0.0,0.0,0.0,0.0,-0.5551,9.5272,0.6364,-1.5869,-12.207,-2.7466,87.3688,1.4282,-28.6633,0.6669,0.1797,-0.1707,0.7027,0.8757,9.3263,-2.517,-3.54,-13.3057,1.0986,107.287,-6.9159,-23.1702,0.7947,0.1264,-0.1664,0.5699,1.8901,9.1875,-2.1629,-0.7324,-6.7139,0.7935,105.1721,-11.1621,-22.0605,0.7872,0.0932,-0.1915,0.5787,-0.8326,0.4689,9.9675,-0.4272,-0.7324,0.3052,3.2794,4.9823,-140.4987,-0.0312,0.0416,-0.9395,0.3386,-1.4547,9.1062,-2.4452,-2.5024,-11.2305,2.1362,104.6448,7.1851,-28.4875,0.7562,0.2315,-0.102,0.6035,-0.4833,9.4985,-1.7849,-2.8076,-8.4229,-0.6104,99.0527,3.2574,-15.8643,0.7506,0.1232,-0.0681,0.6456,0.9092,0.4881,9.9723,-0.5493,0.0,-0.061,4.5374,-5.3668,-88.83,0.061,-0.0057,-0.6999,0.7116,48897,0,23050,58112,0,0,0,0,51468,40193,0,0,38400,0,0,0,0,0,0,0,29202,44548,0,0,0,0,19215,32515,0,0,0,0,38657,0,7168,0
1777287896.1904943,202233,1777287875.459682,1777287894.244485,1777287876.6952665,0,0,-18784.80291366577,-1235.5844974517822,1,1,0.0,0.0,0.0,0.0,0.0,0.0,0.0,0.0,0.0,0.0,0.0,0.0,0.0,0.0,0.0,0.0,0.0,0.0,0.0,0.0,0.0,0.0,0.0,0.0,0.0,0.0,0.0,0.0,0.0,0.0,0.0,0.0,0.0,0.0,0.0,0.0,0.0,0.0,0.0,0.0,0.0,0.0,0.0,0.0,0.0,0.0,0.0,0.0,0.0,0.0,0.0,0.0,0.0,0.0,0.0,0.0,0.0,0.0,0.0,0.0,0.0,0.0,0.0,0.0,0.0,0.0,0.0,0.0,0.0,0.0,0.0,0.0,0.0,0.0,0.0,-0.5551,9.5272,0.6364,-1.5869,-12.207,-2.7466,87.3688,1.4282,-28.6633,0.6669,0.1797,-0.1707,0.7027,0.8757,9.3263,-2.517,-3.54,-13.3057,1.0986,107.287,-6.9159,-23.1702,0.7947,0.1264,-0.1664,0.5699,1.8901,9.1875,-2.1629,-0.7324,-6.7139,0.7935,105.1721,-11.1621,-22.0605,0.7872,0.0932,-0.1915,0.5787,-0.8326,0.4689,9.9675,-0.4272,-0.7324,0.3052,3.2794,4.9823,-140.4987,-0.0312,0.0416,-0.9395,0.3386,-1.4547,9.1062,-2.4452,-2.5024,-11.2305,2.1362,104.6448,7.1851,-28.4875,0.7562,0.2315,-0.102,0.6035,-0.4833,9.4985,-1.7849,-2.8076,-8.4229,-0.6104,99.0527,3.2574,-15.8643,0.7506,0.1232,-0.0681,0.6456,0.9092,0.4881,9.9723,-0.5493,0.0,-0.061,4.5374,-5.3668,-88.83,0.061,-0.0057,-0.6999,0.7116,48897,0,23050,58112,0,0,0,0,51468,40193,0,0,38400,0,0,0,0,0,0,0,29202,44548,0,0,0,0,19215,32515,0,0,0,0,38657,0,7168,0
1777287896.1904943,202234,1777287875.4700189,1777287894.244485,1777287876.6952665,0,0,-18774.466037750244,-1225.2476215362549,1,1,0.0,0.0,0.0,0.0,0.0,0.0,0.0,0.0,0.0,0.0,0.0,0.0,0.0,0.0,0.0,0.0,0.0,0.0,0.0,0.0,0.0,0.0,0.0,0.0,0.0,0.0,0.0,0.0,0.0,0.0,0.0,0.0,0.0,0.0,0.0,0.0,0.0,0.0,0.0,0.0,0.0,0.0,0.0,0.0,0.0,0.0,0.0,0.0,0.0,0.0,0.0,0.0,0.0,0.0,0.0,0.0,0.0,0.0,0.0,0.0,0.0,0.0,0.0,0.0,0.0,0.0,0.0,0.0,0.0,0.0,0.0,0.0,0.0,0.0,0.0,-0.5551,9.5272,0.6364,-1.5869,-12.207,-2.7466,87.3688,1.4282,-28.6633,0.6669,0.1797,-0.1707,0.7027,0.8757,9.3263,-2.517,-3.54,-13.3057,1.0986,107.287,-6.9159,-23.1702,0.7947,0.1264,-0.1664,0.5699,1.8901,9.1875,-2.1629,-0.7324,-6.7139,0.7935,105.1721,-11.1621,-22.0605,0.7872,0.0932,-0.1915,0.5787,-0.8326,0.4689,9.9675,-0.4272,-0.7324,0.3052,3.2794,4.9823,-140.4987,-0.0312,0.0416,-0.9395,0.3386,-1.4547,9.1062,-2.4452,-2.5024,-11.2305,2.1362,104.6448,7.1851,-28.4875,0.7562,0.2315,-0.102,0.6035,-0.4833,9.4985,-1.7849,-2.8076,-8.4229,-0.6104,99.0527,3.2574,-15.8643,0.7506,0.1232,-0.0681,0.6456,0.9092,0.4881,9.9723,-0.5493,0.0,-0.061,4.5374,-5.3668,-88.83,0.061,-0.0057,-0.6999,0.7116,48897,0,23050,58112,0,0,0,0,51468,40193,0,0,38400,0,0,0,0,0,0,0,29202,44548,0,0,0,0,19215,32515,0,0,0,0,38657,0,7168,0
1777287896.1904943,202235,1777287875.4791613,1777287894.244485,1777287876.6952665,0,0,-18765.323638916016,-1216.1052227020264,1,1,0.0,0.0,0.0,0.0,0.0,0.0,0.0,0.0,0.0,0.0,0.0,0.0,0.0,0.0,0.0,0.0,0.0,0.0,0.0,0.0,0.0,0.0,0.0,0.0,0.0,0.0,0.0,0.0,0.0,0.0,0.0,0.0,0.0,0.0,0.0,0.0,0.0,0.0,0.0,0.0,0.0,0.0,0.0,0.0,0.0,0.0,0.0,0.0,0.0,0.0,0.0,0.0,0.0,0.0,0.0,0.0,0.0,0.0,0.0,0.0,0.0,0.0,0.0,0.0,0.0,0.0,0.0,0.0,0.0,0.0,0.0,0.0,0.0,0.0,0.0,-0.5551,9.5272,0.6364,-1.5869,-12.207,-2.7466,87.3688,1.4282,-28.6633,0.6669,0.1797,-0.1707,0.7027,0.8757,9.3263,-2.517,-3.54,-13.3057,1.0986,107.287,-6.9159,-23.1702,0.7947,0.1264,-0.1664,0.5699,1.8901,9.1875,-2.1629,-0.7324,-6.7139,0.7935,105.1721,-11.1621,-22.0605,0.7872,0.0932,-0.1915,0.5787,-0.8326,0.4689,9.9675,-0.4272,-0.7324,0.3052,3.2794,4.9823,-140.4987,-0.0312,0.0416,-0.9395,0.3386,-1.4547,9.1062,-2.4452,-2.5024,-11.2305,2.1362,104.6448,7.1851,-28.4875,0.7562,0.2315,-0.102,0.6035,-0.4833,9.4985,-1.7849,-2.8076,-8.4229,-0.6104,99.0527,3.2574,-15.8643,0.7506,0.1232,-0.0681,0.6456,0.9092,0.4881,9.9723,-0.5493,0.0,-0.061,4.5374,-5.3668,-88.83,0.061,-0.0057,-0.6999,0.7116,48897,0,23050,58112,0,0,0,0,51468,40193,0,0,38400,0,0,0,0,0,0,0,29202,44548,0,0,0,0,19215,32515,0,0,0,0,38657,0,7168,0
1777287896.1914937,202236,1777287875.4891613,1777287894.244485,1777287876.6952665,0,0,-18755.32364845276,-1206.1052322387695,1,1,0.0,0.0,0.0,0.0,0.0,0.0,0.0,0.0,0.0,0.0,0.0,0.0,0.0,0.0,0.0,0.0,0.0,0.0,0.0,0.0,0.0,0.0,0.0,0.0,0.0,0.0,0.0,0.0,0.0,0.0,0.0,0.0,0.0,0.0,0.0,0.0,0.0,0.0,0.0,0.0,0.0,0.0,0.0,0.0,0.0,0.0,0.0,0.0,0.0,0.0,0.0,0.0,0.0,0.0,0.0,0.0,0.0,0.0,0.0,0.0,0.0,0.0,0.0,0.0,0.0,0.0,0.0,0.0,0.0,0.0,0.0,0.0,0.0,0.0,0.0,-0.5551,9.5272,0.6364,-1.5869,-12.207,-2.7466,87.3688,1.4282,-28.6633,0.6669,0.1797,-0.1707,0.7027,0.8757,9.3263,-2.517,-3.54,-13.3057,1.0986,107.287,-6.9159,-23.1702,0.7947,0.1264,-0.1664,0.5699,1.8901,9.1875,-2.1629,-0.7324,-6.7139,0.7935,105.1721,-11.1621,-22.0605,0.7872,0.0932,-0.1915,0.5787,-0.8326,0.4689,9.9675,-0.4272,-0.7324,0.3052,3.2794,4.9823,-140.4987,-0.0312,0.0416,-0.9395,0.3386,-1.4547,9.1062,-2.4452,-2.5024,-11.2305,2.1362,104.6448,7.1851,-28.4875,0.7562,0.2315,-0.102,0.6035,-0.4833,9.4985,-1.7849,-2.8076,-8.4229,-0.6104,99.0527,3.2574,-15.8643,0.7506,0.1232,-0.0681,0.6456,0.9092,0.4881,9.9723,-0.5493,0.0,-0.061,4.5374,-5.3668,-88.83,0.061,-0.0057,-0.6999,0.7116,48897,0,23050,58112,0,0,0,0,51468,40193,0,0,38400,0,0,0,0,0,0,0,29202,44548,0,0,0,0,19215,32515,0,0,0,0,38657,0,7168,0
1777287896.1914937,202237,1777287875.499191,1777287894.244485,1777287876.6952665,0,0,-18745.293855667114,-1196.075439453125,1,1,0.0,0.0,0.0,0.0,0.0,0.0,0.0,0.0,0.0,0.0,0.0,0.0,0.0,0.0,0.0,0.0,0.0,0.0,0.0,0.0,0.0,0.0,0.0,0.0,0.0,0.0,0.0,0.0,0.0,0.0,0.0,0.0,0.0,0.0,0.0,0.0,0.0,0.0,0.0,0.0,0.0,0.0,0.0,0.0,0.0,0.0,0.0,0.0,0.0,0.0,0.0,0.0,0.0,0.0,0.0,0.0,0.0,0.0,0.0,0.0,0.0,0.0,0.0,0.0,0.0,0.0,0.0,0.0,0.0,0.0,0.0,0.0,0.0,0.0,0.0,-0.5551,9.5272,0.6364,-1.5869,-12.207,-2.7466,87.3688,1.4282,-28.6633,0.6669,0.1797,-0.1707,0.7027,0.8757,9.3263,-2.517,-3.54,-13.3057,1.0986,107.287,-6.9159,-23.1702,0.7947,0.1264,-0.1664,0.5699,1.8901,9.1875,-2.1629,-0.7324,-6.7139,0.7935,105.1721,-11.1621,-22.0605,0.7872,0.0932,-0.1915,0.5787,-0.8326,0.4689,9.9675,-0.4272,-0.7324,0.3052,3.2794,4.9823,-140.4987,-0.0312,0.0416,-0.9395,0.3386,-1.4547,9.1062,-2.4452,-2.5024,-11.2305,2.1362,104.6448,7.1851,-28.4875,0.7562,0.2315,-0.102,0.6035,-0.4833,9.4985,-1.7849,-2.8076,-8.4229,-0.6104,99.0527,3.2574,-15.8643,0.7506,0.1232,-0.0681,0.6456,0.9092,0.4881,9.9723,-0.5493,0.0,-0.061,4.5374,-5.3668,-88.83,0.061,-0.0057,-0.6999,0.7116,48897,0,23050,58112,0,0,0,0,51468,40193,0,0,38400,0,0,0,0,0,0,0,29202,44548,0,0,0,0,19215,32515,0,0,0,0,38657,0,7168,0
1777287896.1914937,202238,1777287875.5093336,1777287894.244485,1777287876.6952665,0,0,-18735.151290893555,-1185.9328746795654,1,1,0.0,0.0,0.0,0.0,0.0,0.0,0.0,0.0,0.0,0.0,0.0,0.0,0.0,0.0,0.0,0.0,0.0,0.0,0.0,0.0,0.0,0.0,0.0,0.0,0.0,0.0,0.0,0.0,0.0,0.0,0.0,0.0,0.0,0.0,0.0,0.0,0.0,0.0,0.0,0.0,0.0,0.0,0.0,0.0,0.0,0.0,0.0,0.0,0.0,0.0,0.0,0.0,0.0,0.0,0.0,0.0,0.0,0.0,0.0,0.0,0.0,0.0,0.0,0.0,0.0,0.0,0.0,0.0,0.0,0.0,0.0,0.0,0.0,0.0,0.0,-0.5551,9.5272,0.6364,-1.5869,-12.207,-2.7466,87.3688,1.4282,-28.6633,0.6669,0.1797,-0.1707,0.7027,0.8757,9.3263,-2.517,-3.54,-13.3057,1.0986,107.287,-6.9159,-23.1702,0.7947,0.1264,-0.1664,0.5699,1.8901,9.1875,-2.1629,-0.7324,-6.7139,0.7935,105.1721,-11.1621,-22.0605,0.7872,0.0932,-0.1915,0.5787,-0.8326,0.4689,9.9675,-0.4272,-0.7324,0.3052,3.2794,4.9823,-140.4987,-0.0312,0.0416,-0.9395,0.3386,-1.4547,9.1062,-2.4452,-2.5024,-11.2305,2.1362,104.6448,7.1851,-28.4875,0.7562,0.2315,-0.102,0.6035,-0.4833,9.4985,-1.7849,-2.8076,-8.4229,-0.6104,99.0527,3.2574,-15.8643,0.7506,0.1232,-0.0681,0.6456,0.9092,0.4881,9.9723,-0.5493,0.0,-0.061,4.5374,-5.3668,-88.83,0.061,-0.0057,-0.6999,0.7116,48897,0,23050,58112,0,0,0,0,51468,40193,0,0,38400,0,0,0,0,0,0,0,29202,44548,0,0,0,0,19215,32515,0,0,0,0,38657,0,7168,0
1777287896.1914937,202239,1777287875.520367,1777287894.244485,1777287876.6952665,0,0,-18724.11799430847,-1174.8995780944824,1,1,0.0,0.0,0.0,0.0,0.0,0.0,0.0,0.0,0.0,0.0,0.0,0.0,0.0,0.0,0.0,0.0,0.0,0.0,0.0,0.0,0.0,0.0,0.0,0.0,0.0,0.0,0.0,0.0,0.0,0.0,0.0,0.0,0.0,0.0,0.0,0.0,0.0,0.0,0.0,0.0,0.0,0.0,0.0,0.0,0.0,0.0,0.0,0.0,0.0,0.0,0.0,0.0,0.0,0.0,0.0,0.0,0.0,0.0,0.0,0.0,0.0,0.0,0.0,0.0,0.0,0.0,0.0,0.0,0.0,0.0,0.0,0.0,0.0,0.0,0.0,-0.5551,9.5272,0.6364,-1.5869,-12.207,-2.7466,87.3688,1.4282,-28.6633,0.6669,0.1797,-0.1707,0.7027,0.8757,9.3263,-2.517,-3.54,-13.3057,1.0986,107.287,-6.9159,-23.1702,0.7947,0.1264,-0.1664,0.5699,1.8901,9.1875,-2.1629,-0.7324,-6.7139,0.7935,105.1721,-11.1621,-22.0605,0.7872,0.0932,-0.1915,0.5787,-0.8326,0.4689,9.9675,-0.4272,-0.7324,0.3052,3.2794,4.9823,-140.4987,-0.0312,0.0416,-0.9395,0.3386,-1.4547,9.1062,-2.4452,-2.5024,-11.2305,2.1362,104.6448,7.1851,-28.4875,0.7562,0.2315,-0.102,0.6035,-0.4833,9.4985,-1.7849,-2.8076,-8.4229,-0.6104,99.0527,3.2574,-15.8643,0.7506,0.1232,-0.0681,0.6456,0.9092,0.4881,9.9723,-0.5493,0.0,-0.061,4.5374,-5.3668,-88.83,0.061,-0.0057,-0.6999,0.7116,48897,0,23050,58112,0,0,0,0,51468,40193,0,0,38400,0,0,0,0,0,0,0,29202,44548,0,0,0,0,19215,32515,0,0,0,0,38657,0,7168,0
1777287896.1914937,202240,1777287875.5346916,1777287894.244485,1777287876.6952665,0,0,-18709.79332923889,-1160.5749130249023,1,1,0.0,0.0,0.0,0.0,0.0,0.0,0.0,0.0,0.0,0.0,0.0,0.0,0.0,0.0,0.0,0.0,0.0,0.0,0.0,0.0,0.0,0.0,0.0,0.0,0.0,0.0,0.0,0.0,0.0,0.0,0.0,0.0,0.0,0.0,0.0,0.0,0.0,0.0,0.0,0.0,0.0,0.0,0.0,0.0,0.0,0.0,0.0,0.0,0.0,0.0,0.0,0.0,0.0,0.0,0.0,0.0,0.0,0.0,0.0,0.0,0.0,0.0,0.0,0.0,0.0,0.0,0.0,0.0,0.0,0.0,0.0,0.0,0.0,0.0,0.0,-0.5551,9.5272,0.6364,-1.5869,-12.207,-2.7466,87.3688,1.4282,-28.6633,0.6669,0.1797,-0.1707,0.7027,0.8757,9.3263,-2.517,-3.54,-13.3057,1.0986,107.287,-6.9159,-23.1702,0.7947,0.1264,-0.1664,0.5699,1.8901,9.1875,-2.1629,-0.7324,-6.7139,0.7935,105.1721,-11.1621,-22.0605,0.7872,0.0932,-0.1915,0.5787,-0.8326,0.4689,9.9675,-0.4272,-0.7324,0.3052,3.2794,4.9823,-140.4987,-0.0312,0.0416,-0.9395,0.3386,-1.4547,9.1062,-2.4452,-2.5024,-11.2305,2.1362,104.6448,7.1851,-28.4875,0.7562,0.2315,-0.102,0.6035,-0.4833,9.4985,-1.7849,-2.8076,-8.4229,-0.6104,99.0527,3.2574,-15.8643,0.7506,0.1232,-0.0681,0.6456,0.9092,0.4881,9.9723,-0.5493,0.0,-0.061,4.5374,-5.3668,-88.83,0.061,-0.0057,-0.6999,0.7116,48897,0,23050,58112,0,0,0,0,51468,40193,0,0,38400,0,0,0,0,0,0,0,29202,44548,0,0,0,0,19215,32515,0,0,0,0,38657,0,7168,0
1777287896.1914937,202241,1777287875.539483,1777287894.244485,1777287876.6952665,0,0,-18705.001831054688,-1155.7834148406982,1,1,0.0,0.0,0.0,0.0,0.0,0.0,0.0,0.0,0.0,0.0,0.0,0.0,0.0,0.0,0.0,0.0,0.0,0.0,0.0,0.0,0.0,0.0,0.0,0.0,0.0,0.0,0.0,0.0,0.0,0.0,0.0,0.0,0.0,0.0,0.0,0.0,0.0,0.0,0.0,0.0,0.0,0.0,0.0,0.0,0.0,0.0,0.0,0.0,0.0,0.0,0.0,0.0,0.0,0.0,0.0,0.0,0.0,0.0,0.0,0.0,0.0,0.0,0.0,0.0,0.0,0.0,0.0,0.0,0.0,0.0,0.0,0.0,0.0,0.0,0.0,-0.5551,9.5272,0.6364,-1.5869,-12.207,-2.7466,87.3688,1.4282,-28.6633,0.6669,0.1797,-0.1707,0.7027,0.8757,9.3263,-2.517,-3.54,-13.3057,1.0986,107.287,-6.9159,-23.1702,0.7947,0.1264,-0.1664,0.5699,1.8901,9.1875,-2.1629,-0.7324,-6.7139,0.7935,105.1721,-11.1621,-22.0605,0.7872,0.0932,-0.1915,0.5787,-0.8326,0.4689,9.9675,-0.4272,-0.7324,0.3052,3.2794,4.9823,-140.4987,-0.0312,0.0416,-0.9395,0.3386,-1.4547,9.1062,-2.4452,-2.5024,-11.2305,2.1362,104.6448,7.1851,-28.4875,0.7562,0.2315,-0.102,0.6035,-0.4833,9.4985,-1.7849,-2.8076,-8.4229,-0.6104,99.0527,3.2574,-15.8643,0.7506,0.1232,-0.0681,0.6456,0.9092,0.4881,9.9723,-0.5493,0.0,-0.061,4.5374,-5.3668,-88.83,0.061,-0.0057,-0.6999,0.7116,48897,0,23050,58112,0,0,0,0,51468,40193,0,0,38400,0,0,0,0,0,0,0,29202,44548,0,0,0,0,19215,32515,0,0,0,0,38657,0,7168,0
1777287896.1914937,202242,1777287875.5497363,1777287894.244485,1777287876.6952665,0,0,-18694.748640060425,-1145.5302238464355,1,1,0.0,0.0,0.0,0.0,0.0,0.0,0.0,0.0,0.0,0.0,0.0,0.0,0.0,0.0,0.0,0.0,0.0,0.0,0.0,0.0,0.0,0.0,0.0,0.0,0.0,0.0,0.0,0.0,0.0,0.0,0.0,0.0,0.0,0.0,0.0,0.0,0.0,0.0,0.0,0.0,0.0,0.0,0.0,0.0,0.0,0.0,0.0,0.0,0.0,0.0,0.0,0.0,0.0,0.0,0.0,0.0,0.0,0.0,0.0,0.0,0.0,0.0,0.0,0.0,0.0,0.0,0.0,0.0,0.0,0.0,0.0,0.0,0.0,0.0,0.0,-0.5551,9.5272,0.6364,-1.5869,-12.207,-2.7466,87.3688,1.4282,-28.6633,0.6669,0.1797,-0.1707,0.7027,0.8757,9.3263,-2.517,-3.54,-13.3057,1.0986,107.287,-6.9159,-23.1702,0.7947,0.1264,-0.1664,0.5699,1.8901,9.1875,-2.1629,-0.7324,-6.7139,0.7935,105.1721,-11.1621,-22.0605,0.7872,0.0932,-0.1915,0.5787,-0.8326,0.4689,9.9675,-0.4272,-0.7324,0.3052,3.2794,4.9823,-140.4987,-0.0312,0.0416,-0.9395,0.3386,-1.4547,9.1062,-2.4452,-2.5024,-11.2305,2.1362,104.6448,7.1851,-28.4875,0.7562,0.2315,-0.102,0.6035,-0.4833,9.4985,-1.7849,-2.8076,-8.4229,-0.6104,99.0527,3.2574,-15.8643,0.7506,0.1232,-0.0681,0.6456,0.9092,0.4881,9.9723,-0.5493,0.0,-0.061,4.5374,-5.3668,-88.83,0.061,-0.0057,-0.6999,0.7116,48897,0,23050,58112,0,0,0,0,51468,40193,0,0,38400,0,0,0,0,0,0,0,29202,44548,0,0,0,0,19215,32515,0,0,0,0,38657,0,7168,0
1777287896.1914937,202243,1777287875.5607142,1777287894.244485,1777287876.6952665,0,0,-18683.770656585693,-1134.552240371704,1,1,0.0,0.0,0.0,0.0,0.0,0.0,0.0,0.0,0.0,0.0,0.0,0.0,0.0,0.0,0.0,0.0,0.0,0.0,0.0,0.0,0.0,0.0,0.0,0.0,0.0,0.0,0.0,0.0,0.0,0.0,0.0,0.0,0.0,0.0,0.0,0.0,0.0,0.0,0.0,0.0,0.0,0.0,0.0,0.0,0.0,0.0,0.0,0.0,0.0,0.0,0.0,0.0,0.0,0.0,0.0,0.0,0.0,0.0,0.0,0.0,0.0,0.0,0.0,0.0,0.0,0.0,0.0,0.0,0.0,0.0,0.0,0.0,0.0,0.0,0.0,-0.5551,9.5272,0.6364,-1.5869,-12.207,-2.7466,87.3688,1.4282,-28.6633,0.6669,0.1797,-0.1707,0.7027,0.8757,9.3263,-2.517,-3.54,-13.3057,1.0986,107.287,-6.9159,-23.1702,0.7947,0.1264,-0.1664,0.5699,1.8901,9.1875,-2.1629,-0.7324,-6.7139,0.7935,105.1721,-11.1621,-22.0605,0.7872,0.0932,-0.1915,0.5787,-0.8326,0.4689,9.9675,-0.4272,-0.7324,0.3052,3.2794,4.9823,-140.4987,-0.0312,0.0416,-0.9395,0.3386,-1.4547,9.1062,-2.4452,-2.5024,-11.2305,2.1362,104.6448,7.1851,-28.4875,0.7562,0.2315,-0.102,0.6035,-0.4833,9.4985,-1.7849,-2.8076,-8.4229,-0.6104,99.0527,3.2574,-15.8643,0.7506,0.1232,-0.0681,0.6456,0.9092,0.4881,9.9723,-0.5493,0.0,-0.061,4.5374,-5.3668,-88.83,0.061,-0.0057,-0.6999,0.7116,48897,0,23050,58112,0,0,0,0,51468,40193,0,0,38400,0,0,0,0,0,0,0,29202,44548,0,0,0,0,19215,32515,0,0,0,0,38657,0,7168,0
1777287896.1924927,202244,1777287875.5699222,1777287894.244485,1777287876.6952665,0,0,-18674.562692642212,-1125.3442764282227,1,1,0.0,0.0,0.0,0.0,0.0,0.0,0.0,0.0,0.0,0.0,0.0,0.0,0.0,0.0,0.0,0.0,0.0,0.0,0.0,0.0,0.0,0.0,0.0,0.0,0.0,0.0,0.0,0.0,0.0,0.0,0.0,0.0,0.0,0.0,0.0,0.0,0.0,0.0,0.0,0.0,0.0,0.0,0.0,0.0,0.0,0.0,0.0,0.0,0.0,0.0,0.0,0.0,0.0,0.0,0.0,0.0,0.0,0.0,0.0,0.0,0.0,0.0,0.0,0.0,0.0,0.0,0.0,0.0,0.0,0.0,0.0,0.0,0.0,0.0,0.0,-0.5551,9.5272,0.6364,-1.5869,-12.207,-2.7466,87.3688,1.4282,-28.6633,0.6669,0.1797,-0.1707,0.7027,0.8757,9.3263,-2.517,-3.54,-13.3057,1.0986,107.287,-6.9159,-23.1702,0.7947,0.1264,-0.1664,0.5699,1.8901,9.1875,-2.1629,-0.7324,-6.7139,0.7935,105.1721,-11.1621,-22.0605,0.7872,0.0932,-0.1915,0.5787,-0.8326,0.4689,9.9675,-0.4272,-0.7324,0.3052,3.2794,4.9823,-140.4987,-0.0312,0.0416,-0.9395,0.3386,-1.4547,9.1062,-2.4452,-2.5024,-11.2305,2.1362,104.6448,7.1851,-28.4875,0.7562,0.2315,-0.102,0.6035,-0.4833,9.4985,-1.7849,-2.8076,-8.4229,-0.6104,99.0527,3.2574,-15.8643,0.7506,0.1232,-0.0681,0.6456,0.9092,0.4881,9.9723,-0.5493,0.0,-0.061,4.5374,-5.3668,-88.83,0.061,-0.0057,-0.6999,0.7116,48897,0,23050,58112,0,0,0,0,51468,40193,0,0,38400,0,0,0,0,0,0,0,29202,44548,0,0,0,0,19215,32515,0,0,0,0,38657,0,7168,0
1777287896.1924927,202245,1777287875.579167,1777287894.244485,1777287876.6952665,0,0,-18665.31801223755,-1116.0995960235596,1,1,0.0,0.0,0.0,0.0,0.0,0.0,0.0,0.0,0.0,0.0,0.0,0.0,0.0,0.0,0.0,0.0,0.0,0.0,0.0,0.0,0.0,0.0,0.0,0.0,0.0,0.0,0.0,0.0,0.0,0.0,0.0,0.0,0.0,0.0,0.0,0.0,0.0,0.0,0.0,0.0,0.0,0.0,0.0,0.0,0.0,0.0,0.0,0.0,0.0,0.0,0.0,0.0,0.0,0.0,0.0,0.0,0.0,0.0,0.0,0.0,0.0,0.0,0.0,0.0,0.0,0.0,0.0,0.0,0.0,0.0,0.0,0.0,0.0,0.0,0.0,-0.5551,9.5272,0.6364,-1.5869,-12.207,-2.7466,87.3688,1.4282,-28.6633,0.6669,0.1797,-0.1707,0.7027,0.8757,9.3263,-2.517,-3.54,-13.3057,1.0986,107.287,-6.9159,-23.1702,0.7947,0.1264,-0.1664,0.5699,1.8901,9.1875,-2.1629,-0.7324,-6.7139,0.7935,105.1721,-11.1621,-22.0605,0.7872,0.0932,-0.1915,0.5787,-0.8326,0.4689,9.9675,-0.4272,-0.7324,0.3052,3.2794,4.9823,-140.4987,-0.0312,0.0416,-0.9395,0.3386,-1.4547,9.1062,-2.4452,-2.5024,-11.2305,2.1362,104.6448,7.1851,-28.4875,0.7562,0.2315,-0.102,0.6035,-0.4833,9.4985,-1.7849,-2.8076,-8.4229,-0.6104,99.0527,3.2574,-15.8643,0.7506,0.1232,-0.0681,0.6456,0.9092,0.4881,9.9723,-0.5493,0.0,-0.061,4.5374,-5.3668,-88.83,0.061,-0.0057,-0.6999,0.7116,48897,0,23050,58112,0,0,0,0,51468,40193,0,0,38400,0,0,0,0,0,0,0,29202,44548,0,0,0,0,19215,32515,0,0,0,0,38657,0,7168,0
1777287896.1924927,202246,1777287875.5891774,1777287894.244485,1777287876.6952665,0,0,-18655.30753135681,-1106.0891151428223,1,1,0.0,0.0,0.0,0.0,0.0,0.0,0.0,0.0,0.0,0.0,0.0,0.0,0.0,0.0,0.0,0.0,0.0,0.0,0.0,0.0,0.0,0.0,0.0,0.0,0.0,0.0,0.0,0.0,0.0,0.0,0.0,0.0,0.0,0.0,0.0,0.0,0.0,0.0,0.0,0.0,0.0,0.0,0.0,0.0,0.0,0.0,0.0,0.0,0.0,0.0,0.0,0.0,0.0,0.0,0.0,0.0,0.0,0.0,0.0,0.0,0.0,0.0,0.0,0.0,0.0,0.0,0.0,0.0,0.0,0.0,0.0,0.0,0.0,0.0,0.0,-0.5551,9.5272,0.6364,-1.5869,-12.207,-2.7466,87.3688,1.4282,-28.6633,0.6669,0.1797,-0.1707,0.7027,0.8757,9.3263,-2.517,-3.54,-13.3057,1.0986,107.287,-6.9159,-23.1702,0.7947,0.1264,-0.1664,0.5699,1.8901,9.1875,-2.1629,-0.7324,-6.7139,0.7935,105.1721,-11.1621,-22.0605,0.7872,0.0932,-0.1915,0.5787,-0.8326,0.4689,9.9675,-0.4272,-0.7324,0.3052,3.2794,4.9823,-140.4987,-0.0312,0.0416,-0.9395,0.3386,-1.4547,9.1062,-2.4452,-2.5024,-11.2305,2.1362,104.6448,7.1851,-28.4875,0.7562,0.2315,-0.102,0.6035,-0.4833,9.4985,-1.7849,-2.8076,-8.4229,-0.6104,99.0527,3.2574,-15.8643,0.7506,0.1232,-0.0681,0.6456,0.9092,0.4881,9.9723,-0.5493,0.0,-0.061,4.5374,-5.3668,-88.83,0.061,-0.0057,-0.6999,0.7116,48897,0,23050,58112,0,0,0,0,51468,40193,0,0,38400,0,0,0,0,0,0,0,29202,44548,0,0,0,0,19215,32515,0,0,0,0,38657,0,7168,0
1777287896.1924927,202247,1777287875.6052768,1777287894.244485,1777287876.6952665,0,0,-18639.2080783844,-1089.9896621704102,1,1,0.0,0.0,0.0,0.0,0.0,0.0,0.0,0.0,0.0,0.0,0.0,0.0,0.0,0.0,0.0,0.0,0.0,0.0,0.0,0.0,0.0,0.0,0.0,0.0,0.0,0.0,0.0,0.0,0.0,0.0,0.0,0.0,0.0,0.0,0.0,0.0,0.0,0.0,0.0,0.0,0.0,0.0,0.0,0.0,0.0,0.0,0.0,0.0,0.0,0.0,0.0,0.0,0.0,0.0,0.0,0.0,0.0,0.0,0.0,0.0,0.0,0.0,0.0,0.0,0.0,0.0,0.0,0.0,0.0,0.0,0.0,0.0,0.0,0.0,0.0,-0.5551,9.5272,0.6364,-1.5869,-12.207,-2.7466,87.3688,1.4282,-28.6633,0.6669,0.1797,-0.1707,0.7027,0.8757,9.3263,-2.517,-3.54,-13.3057,1.0986,107.287,-6.9159,-23.1702,0.7947,0.1264,-0.1664,0.5699,1.8901,9.1875,-2.1629,-0.7324,-6.7139,0.7935,105.1721,-11.1621,-22.0605,0.7872,0.0932,-0.1915,0.5787,-0.8326,0.4689,9.9675,-0.4272,-0.7324,0.3052,3.2794,4.9823,-140.4987,-0.0312,0.0416,-0.9395,0.3386,-1.4547,9.1062,-2.4452,-2.5024,-11.2305,2.1362,104.6448,7.1851,-28.4875,0.7562,0.2315,-0.102,0.6035,-0.4833,9.4985,-1.7849,-2.8076,-8.4229,-0.6104,99.0527,3.2574,-15.8643,0.7506,0.1232,-0.0681,0.6456,0.9092,0.4881,9.9723,-0.5493,0.0,-0.061,4.5374,-5.3668,-88.83,0.061,-0.0057,-0.6999,0.7116,48897,0,23050,58112,0,0,0,0,51468,40193,0,0,38400,0,0,0,0,0,0,0,29202,44548,0,0,0,0,19215,32515,0,0,0,0,38657,0,7168,0
1777287896.1924927,202248,1777287875.6078238,1777287894.244485,1777287876.6952665,0,0,-18636.661052703857,-1087.4426364898682,1,1,0.0,0.0,0.0,0.0,0.0,0.0,0.0,0.0,0.0,0.0,0.0,0.0,0.0,0.0,0.0,0.0,0.0,0.0,0.0,0.0,0.0,0.0,0.0,0.0,0.0,0.0,0.0,0.0,0.0,0.0,0.0,0.0,0.0,0.0,0.0,0.0,0.0,0.0,0.0,0.0,0.0,0.0,0.0,0.0,0.0,0.0,0.0,0.0,0.0,0.0,0.0,0.0,0.0,0.0,0.0,0.0,0.0,0.0,0.0,0.0,0.0,0.0,0.0,0.0,0.0,0.0,0.0,0.0,0.0,0.0,0.0,0.0,0.0,0.0,0.0,-0.5551,9.5272,0.6364,-1.5869,-12.207,-2.7466,87.3688,1.4282,-28.6633,0.6669,0.1797,-0.1707,0.7027,0.8757,9.3263,-2.517,-3.54,-13.3057,1.0986,107.287,-6.9159,-23.1702,0.7947,0.1264,-0.1664,0.5699,1.8901,9.1875,-2.1629,-0.7324,-6.7139,0.7935,105.1721,-11.1621,-22.0605,0.7872,0.0932,-0.1915,0.5787,-0.8326,0.4689,9.9675,-0.4272,-0.7324,0.3052,3.2794,4.9823,-140.4987,-0.0312,0.0416,-0.9395,0.3386,-1.4547,9.1062,-2.4452,-2.5024,-11.2305,2.1362,104.6448,7.1851,-28.4875,0.7562,0.2315,-0.102,0.6035,-0.4833,9.4985,-1.7849,-2.8076,-8.4229,-0.6104,99.0527,3.2574,-15.8643,0.7506,0.1232,-0.0681,0.6456,0.9092,0.4881,9.9723,-0.5493,0.0,-0.061,4.5374,-5.3668,-88.83,0.061,-0.0057,-0.6999,0.7116,48897,0,23050,58112,0,0,0,0,51468,40193,0,0,38400,0,0,0,0,0,0,0,29202,44548,0,0,0,0,19215,32515,0,0,0,0,38657,0,7168,0
1777287896.1924927,202249,1777287875.6195226,1777287894.244485,1777287876.6952665,0,0,-18624.962329864502,-1075.7439136505127,1,1,0.0,0.0,0.0,0.0,0.0,0.0,0.0,0.0,0.0,0.0,0.0,0.0,0.0,0.0,0.0,0.0,0.0,0.0,0.0,0.0,0.0,0.0,0.0,0.0,0.0,0.0,0.0,0.0,0.0,0.0,0.0,0.0,0.0,0.0,0.0,0.0,0.0,0.0,0.0,0.0,0.0,0.0,0.0,0.0,0.0,0.0,0.0,0.0,0.0,0.0,0.0,0.0,0.0,0.0,0.0,0.0,0.0,0.0,0.0,0.0,0.0,0.0,0.0,0.0,0.0,0.0,0.0,0.0,0.0,0.0,0.0,0.0,0.0,0.0,0.0,-0.5551,9.5272,0.6364,-1.5869,-12.207,-2.7466,87.3688,1.4282,-28.6633,0.6669,0.1797,-0.1707,0.7027,0.8757,9.3263,-2.517,-3.54,-13.3057,1.0986,107.287,-6.9159,-23.1702,0.7947,0.1264,-0.1664,0.5699,1.8901,9.1875,-2.1629,-0.7324,-6.7139,0.7935,105.1721,-11.1621,-22.0605,0.7872,0.0932,-0.1915,0.5787,-0.8326,0.4689,9.9675,-0.4272,-0.7324,0.3052,3.2794,4.9823,-140.4987,-0.0312,0.0416,-0.9395,0.3386,-1.4547,9.1062,-2.4452,-2.5024,-11.2305,2.1362,104.6448,7.1851,-28.4875,0.7562,0.2315,-0.102,0.6035,-0.4833,9.4985,-1.7849,-2.8076,-8.4229,-0.6104,99.0527,3.2574,-15.8643,0.7506,0.1232,-0.0681,0.6456,0.9092,0.4881,9.9723,-0.5493,0.0,-0.061,4.5374,-5.3668,-88.83,0.061,-0.0057,-0.6999,0.7116,48897,0,23050,58112,0,0,0,0,51468,40193,0,0,38400,0,0,0,0,0,0,0,29202,44548,0,0,0,0,19215,32515,0,0,0,0,38657,0,7168,0
1777287896.1924927,202250,1777287875.633657,1777287894.244485,1777287876.6952665,0,0,-18610.827922821045,-1061.6095066070557,1,1,0.0,0.0,0.0,0.0,0.0,0.0,0.0,0.0,0.0,0.0,0.0,0.0,0.0,0.0,0.0,0.0,0.0,0.0,0.0,0.0,0.0,0.0,0.0,0.0,0.0,0.0,0.0,0.0,0.0,0.0,0.0,0.0,0.0,0.0,0.0,0.0,0.0,0.0,0.0,0.0,0.0,0.0,0.0,0.0,0.0,0.0,0.0,0.0,0.0,0.0,0.0,0.0,0.0,0.0,0.0,0.0,0.0,0.0,0.0,0.0,0.0,0.0,0.0,0.0,0.0,0.0,0.0,0.0,0.0,0.0,0.0,0.0,0.0,0.0,0.0,-0.5551,9.5272,0.6364,-1.5869,-12.207,-2.7466,87.3688,1.4282,-28.6633,0.6669,0.1797,-0.1707,0.7027,0.8757,9.3263,-2.517,-3.54,-13.3057,1.0986,107.287,-6.9159,-23.1702,0.7947,0.1264,-0.1664,0.5699,1.8901,9.1875,-2.1629,-0.7324,-6.7139,0.7935,105.1721,-11.1621,-22.0605,0.7872,0.0932,-0.1915,0.5787,-0.8326,0.4689,9.9675,-0.4272,-0.7324,0.3052,3.2794,4.9823,-140.4987,-0.0312,0.0416,-0.9395,0.3386,-1.4547,9.1062,-2.4452,-2.5024,-11.2305,2.1362,104.6448,7.1851,-28.4875,0.7562,0.2315,-0.102,0.6035,-0.4833,9.4985,-1.7849,-2.8076,-8.4229,-0.6104,99.0527,3.2574,-15.8643,0.7506,0.1232,-0.0681,0.6456,0.9092,0.4881,9.9723,-0.5493,0.0,-0.061,4.5374,-5.3668,-88.83,0.061,-0.0057,-0.6999,0.7116,48897,0,23050,58112,0,0,0,0,51468,40193,0,0,38400,0,0,0,0,0,0,0,29202,44548,0,0,0,0,19215,32515,0,0,0,0,38657,0,7168,0
1777287896.1924927,202251,1777287875.6384978,1777287894.244485,1777287876.6952665,0,0,-18605.987071990967,-1056.7686557769775,1,1,0.0,0.0,0.0,0.0,0.0,0.0,0.0,0.0,0.0,0.0,0.0,0.0,0.0,0.0,0.0,0.0,0.0,0.0,0.0,0.0,0.0,0.0,0.0,0.0,0.0,0.0,0.0,0.0,0.0,0.0,0.0,0.0,0.0,0.0,0.0,0.0,0.0,0.0,0.0,0.0,0.0,0.0,0.0,0.0,0.0,0.0,0.0,0.0,0.0,0.0,0.0,0.0,0.0,0.0,0.0,0.0,0.0,0.0,0.0,0.0,0.0,0.0,0.0,0.0,0.0,0.0,0.0,0.0,0.0,0.0,0.0,0.0,0.0,0.0,0.0,-0.5551,9.5272,0.6364,-1.5869,-12.207,-2.7466,87.3688,1.4282,-28.6633,0.6669,0.1797,-0.1707,0.7027,0.8757,9.3263,-2.517,-3.54,-13.3057,1.0986,107.287,-6.9159,-23.1702,0.7947,0.1264,-0.1664,0.5699,1.8901,9.1875,-2.1629,-0.7324,-6.7139,0.7935,105.1721,-11.1621,-22.0605,0.7872,0.0932,-0.1915,0.5787,-0.8326,0.4689,9.9675,-0.4272,-0.7324,0.3052,3.2794,4.9823,-140.4987,-0.0312,0.0416,-0.9395,0.3386,-1.4547,9.1062,-2.4452,-2.5024,-11.2305,2.1362,104.6448,7.1851,-28.4875,0.7562,0.2315,-0.102,0.6035,-0.4833,9.4985,-1.7849,-2.8076,-8.4229,-0.6104,99.0527,3.2574,-15.8643,0.7506,0.1232,-0.0681,0.6456,0.9092,0.4881,9.9723,-0.5493,0.0,-0.061,4.5374,-5.3668,-88.83,0.061,-0.0057,-0.6999,0.7116,48897,0,23050,58112,0,0,0,0,51468,40193,0,0,38400,0,0,0,0,0,0,0,29202,44548,0,0,0,0,19215,32515,0,0,0,0,38657,0,7168,0
1777287896.1924927,202252,1777287875.649183,1777287894.244485,1777287876.6952665,0,0,-18595.301866531372,-1046.0834503173828,1,1,0.0,0.0,0.0,0.0,0.0,0.0,0.0,0.0,0.0,0.0,0.0,0.0,0.0,0.0,0.0,0.0,0.0,0.0,0.0,0.0,0.0,0.0,0.0,0.0,0.0,0.0,0.0,0.0,0.0,0.0,0.0,0.0,0.0,0.0,0.0,0.0,0.0,0.0,0.0,0.0,0.0,0.0,0.0,0.0,0.0,0.0,0.0,0.0,0.0,0.0,0.0,0.0,0.0,0.0,0.0,0.0,0.0,0.0,0.0,0.0,0.0,0.0,0.0,0.0,0.0,0.0,0.0,0.0,0.0,0.0,0.0,0.0,0.0,0.0,0.0,-0.5551,9.5272,0.6364,-1.5869,-12.207,-2.7466,87.3688,1.4282,-28.6633,0.6669,0.1797,-0.1707,0.7027,0.8757,9.3263,-2.517,-3.54,-13.3057,1.0986,107.287,-6.9159,-23.1702,0.7947,0.1264,-0.1664,0.5699,1.8901,9.1875,-2.1629,-0.7324,-6.7139,0.7935,105.1721,-11.1621,-22.0605,0.7872,0.0932,-0.1915,0.5787,-0.8326,0.4689,9.9675,-0.4272,-0.7324,0.3052,3.2794,4.9823,-140.4987,-0.0312,0.0416,-0.9395,0.3386,-1.4547,9.1062,-2.4452,-2.5024,-11.2305,2.1362,104.6448,7.1851,-28.4875,0.7562,0.2315,-0.102,0.6035,-0.4833,9.4985,-1.7849,-2.8076,-8.4229,-0.6104,99.0527,3.2574,-15.8643,0.7506,0.1232,-0.0681,0.6456,0.9092,0.4881,9.9723,-0.5493,0.0,-0.061,4.5374,-5.3668,-88.83,0.061,-0.0057,-0.6999,0.7116,48897,0,23050,58112,0,0,0,0,51468,40193,0,0,38400,0,0,0,0,0,0,0,29202,44548,0,0,0,0,19215,32515,0,0,0,0,38657,0,7168,0
1777287896.1934924,202253,1777287875.6587906,1777287894.244485,1777287876.6952665,0,0,-18585.694313049316,-1036.4758968353271,1,1,0.0,0.0,0.0,0.0,0.0,0.0,0.0,0.0,0.0,0.0,0.0,0.0,0.0,0.0,0.0,0.0,0.0,0.0,0.0,0.0,0.0,0.0,0.0,0.0,0.0,0.0,0.0,0.0,0.0,0.0,0.0,0.0,0.0,0.0,0.0,0.0,0.0,0.0,0.0,0.0,0.0,0.0,0.0,0.0,0.0,0.0,0.0,0.0,0.0,0.0,0.0,0.0,0.0,0.0,0.0,0.0,0.0,0.0,0.0,0.0,0.0,0.0,0.0,0.0,0.0,0.0,0.0,0.0,0.0,0.0,0.0,0.0,0.0,0.0,0.0,-0.5551,9.5272,0.6364,-1.5869,-12.207,-2.7466,87.3688,1.4282,-28.6633,0.6669,0.1797,-0.1707,0.7027,0.8757,9.3263,-2.517,-3.54,-13.3057,1.0986,107.287,-6.9159,-23.1702,0.7947,0.1264,-0.1664,0.5699,1.8901,9.1875,-2.1629,-0.7324,-6.7139,0.7935,105.1721,-11.1621,-22.0605,0.7872,0.0932,-0.1915,0.5787,-0.8326,0.4689,9.9675,-0.4272,-0.7324,0.3052,3.2794,4.9823,-140.4987,-0.0312,0.0416,-0.9395,0.3386,-1.4547,9.1062,-2.4452,-2.5024,-11.2305,2.1362,104.6448,7.1851,-28.4875,0.7562,0.2315,-0.102,0.6035,-0.4833,9.4985,-1.7849,-2.8076,-8.4229,-0.6104,99.0527,3.2574,-15.8643,0.7506,0.1232,-0.0681,0.6456,0.9092,0.4881,9.9723,-0.5493,0.0,-0.061,4.5374,-5.3668,-88.83,0.061,-0.0057,-0.6999,0.7116,48897,0,23050,58112,0,0,0,0,51468,40193,0,0,38400,0,0,0,0,0,0,0,29202,44548,0,0,0,0,19215,32515,0,0,0,0,38657,0,7168,0
1777287896.1934924,202254,1777287875.6694376,1777287894.244485,1777287876.6952665,0,0,-18575.047254562378,-1025.8288383483887,1,1,0.0,0.0,0.0,0.0,0.0,0.0,0.0,0.0,0.0,0.0,0.0,0.0,0.0,0.0,0.0,0.0,0.0,0.0,0.0,0.0,0.0,0.0,0.0,0.0,0.0,0.0,0.0,0.0,0.0,0.0,0.0,0.0,0.0,0.0,0.0,0.0,0.0,0.0,0.0,0.0,0.0,0.0,0.0,0.0,0.0,0.0,0.0,0.0,0.0,0.0,0.0,0.0,0.0,0.0,0.0,0.0,0.0,0.0,0.0,0.0,0.0,0.0,0.0,0.0,0.0,0.0,0.0,0.0,0.0,0.0,0.0,0.0,0.0,0.0,0.0,-0.5551,9.5272,0.6364,-1.5869,-12.207,-2.7466,87.3688,1.4282,-28.6633,0.6669,0.1797,-0.1707,0.7027,0.8757,9.3263,-2.517,-3.54,-13.3057,1.0986,107.287,-6.9159,-23.1702,0.7947,0.1264,-0.1664,0.5699,1.8901,9.1875,-2.1629,-0.7324,-6.7139,0.7935,105.1721,-11.1621,-22.0605,0.7872,0.0932,-0.1915,0.5787,-0.8326,0.4689,9.9675,-0.4272,-0.7324,0.3052,3.2794,4.9823,-140.4987,-0.0312,0.0416,-0.9395,0.3386,-1.4547,9.1062,-2.4452,-2.5024,-11.2305,2.1362,104.6448,7.1851,-28.4875,0.7562,0.2315,-0.102,0.6035,-0.4833,9.4985,-1.7849,-2.8076,-8.4229,-0.6104,99.0527,3.2574,-15.8643,0.7506,0.1232,-0.0681,0.6456,0.9092,0.4881,9.9723,-0.5493,0.0,-0.061,4.5374,-5.3668,-88.83,0.061,-0.0057,-0.6999,0.7116,48897,0,23050,58112,0,0,0,0,51468,40193,0,0,38400,0,0,0,0,0,0,0,29202,44548,0,0,0,0,19215,32515,0,0,0,0,38657,0,7168,0
1777287896.1934924,202255,1777287875.6784387,1777287894.244485,1777287876.6952665,0,0,-18566.046237945557,-1016.8278217315674,1,1,0.0,0.0,0.0,0.0,0.0,0.0,0.0,0.0,0.0,0.0,0.0,0.0,0.0,0.0,0.0,0.0,0.0,0.0,0.0,0.0,0.0,0.0,0.0,0.0,0.0,0.0,0.0,0.0,0.0,0.0,0.0,0.0,0.0,0.0,0.0,0.0,0.0,0.0,0.0,0.0,0.0,0.0,0.0,0.0,0.0,0.0,0.0,0.0,0.0,0.0,0.0,0.0,0.0,0.0,0.0,0.0,0.0,0.0,0.0,0.0,0.0,0.0,0.0,0.0,0.0,0.0,0.0,0.0,0.0,0.0,0.0,0.0,0.0,0.0,0.0,-0.5551,9.5272,0.6364,-1.5869,-12.207,-2.7466,87.3688,1.4282,-28.6633,0.6669,0.1797,-0.1707,0.7027,0.8757,9.3263,-2.517,-3.54,-13.3057,1.0986,107.287,-6.9159,-23.1702,0.7947,0.1264,-0.1664,0.5699,1.8901,9.1875,-2.1629,-0.7324,-6.7139,0.7935,105.1721,-11.1621,-22.0605,0.7872,0.0932,-0.1915,0.5787,-0.8326,0.4689,9.9675,-0.4272,-0.7324,0.3052,3.2794,4.9823,-140.4987,-0.0312,0.0416,-0.9395,0.3386,-1.4547,9.1062,-2.4452,-2.5024,-11.2305,2.1362,104.6448,7.1851,-28.4875,0.7562,0.2315,-0.102,0.6035,-0.4833,9.4985,-1.7849,-2.8076,-8.4229,-0.6104,99.0527,3.2574,-15.8643,0.7506,0.1232,-0.0681,0.6456,0.9092,0.4881,9.9723,-0.5493,0.0,-0.061,4.5374,-5.3668,-88.83,0.061,-0.0057,-0.6999,0.7116,48897,0,23050,58112,0,0,0,0,51468,40193,0,0,38400,0,0,0,0,0,0,0,29202,44548,0,0,0,0,19215,32515,0,0,0,0,38657,0,7168,0
1777287896.1934924,202256,1777287875.689215,1777287894.244485,1777287876.6952665,0,0,-18555.269956588745,-1006.0515403747559,1,1,0.0,0.0,0.0,0.0,0.0,0.0,0.0,0.0,0.0,0.0,0.0,0.0,0.0,0.0,0.0,0.0,0.0,0.0,0.0,0.0,0.0,0.0,0.0,0.0,0.0,0.0,0.0,0.0,0.0,0.0,0.0,0.0,0.0,0.0,0.0,0.0,0.0,0.0,0.0,0.0,0.0,0.0,0.0,0.0,0.0,0.0,0.0,0.0,0.0,0.0,0.0,0.0,0.0,0.0,0.0,0.0,0.0,0.0,0.0,0.0,0.0,0.0,0.0,0.0,0.0,0.0,0.0,0.0,0.0,0.0,0.0,0.0,0.0,0.0,0.0,-0.5551,9.5272,0.6364,-1.5869,-12.207,-2.7466,87.3688,1.4282,-28.6633,0.6669,0.1797,-0.1707,0.7027,0.8757,9.3263,-2.517,-3.54,-13.3057,1.0986,107.287,-6.9159,-23.1702,0.7947,0.1264,-0.1664,0.5699,1.8901,9.1875,-2.1629,-0.7324,-6.7139,0.7935,105.1721,-11.1621,-22.0605,0.7872,0.0932,-0.1915,0.5787,-0.8326,0.4689,9.9675,-0.4272,-0.7324,0.3052,3.2794,4.9823,-140.4987,-0.0312,0.0416,-0.9395,0.3386,-1.4547,9.1062,-2.4452,-2.5024,-11.2305,2.1362,104.6448,7.1851,-28.4875,0.7562,0.2315,-0.102,0.6035,-0.4833,9.4985,-1.7849,-2.8076,-8.4229,-0.6104,99.0527,3.2574,-15.8643,0.7506,0.1232,-0.0681,0.6456,0.9092,0.4881,9.9723,-0.5493,0.0,-0.061,4.5374,-5.3668,-88.83,0.061,-0.0057,-0.6999,0.7116,48897,0,23050,58112,0,0,0,0,51468,40193,0,0,38400,0,0,0,0,0,0,0,29202,44548,0,0,0,0,19215,32515,0,0,0,0,38657,0,7168,0
1777287896.1934924,202257,1777287875.699813,1777287894.244485,1777287876.6952665,0,0,-18544.6720123291,-995.4535961151123,1,1,0.0,0.0,0.0,0.0,0.0,0.0,0.0,0.0,0.0,0.0,0.0,0.0,0.0,0.0,0.0,0.0,0.0,0.0,0.0,0.0,0.0,0.0,0.0,0.0,0.0,0.0,0.0,0.0,0.0,0.0,0.0,0.0,0.0,0.0,0.0,0.0,0.0,0.0,0.0,0.0,0.0,0.0,0.0,0.0,0.0,0.0,0.0,0.0,0.0,0.0,0.0,0.0,0.0,0.0,0.0,0.0,0.0,0.0,0.0,0.0,0.0,0.0,0.0,0.0,0.0,0.0,0.0,0.0,0.0,0.0,0.0,0.0,0.0,0.0,0.0,-0.5551,9.5272,0.6364,-1.5869,-12.207,-2.7466,87.3688,1.4282,-28.6633,0.6669,0.1797,-0.1707,0.7027,0.8757,9.3263,-2.517,-3.54,-13.3057,1.0986,107.287,-6.9159,-23.1702,0.7947,0.1264,-0.1664,0.5699,1.8901,9.1875,-2.1629,-0.7324,-6.7139,0.7935,105.1721,-11.1621,-22.0605,0.7872,0.0932,-0.1915,0.5787,-0.8326,0.4689,9.9675,-0.4272,-0.7324,0.3052,3.2794,4.9823,-140.4987,-0.0312,0.0416,-0.9395,0.3386,-1.4547,9.1062,-2.4452,-2.5024,-11.2305,2.1362,104.6448,7.1851,-28.4875,0.7562,0.2315,-0.102,0.6035,-0.4833,9.4985,-1.7849,-2.8076,-8.4229,-0.6104,99.0527,3.2574,-15.8643,0.7506,0.1232,-0.0681,0.6456,0.9092,0.4881,9.9723,-0.5493,0.0,-0.061,4.5374,-5.3668,-88.83,0.061,-0.0057,-0.6999,0.7116,48897,0,23050,58112,0,0,0,0,51468,40193,0,0,38400,0,0,0,0,0,0,0,29202,44548,0,0,0,0,19215,32515,0,0,0,0,38657,0,7168,0
1777287896.1934924,202258,1777287875.7093294,1777287894.244485,1777287876.6952665,0,0,-18535.155534744263,-985.9371185302734,1,1,0.0,0.0,0.0,0.0,0.0,0.0,0.0,0.0,0.0,0.0,0.0,0.0,0.0,0.0,0.0,0.0,0.0,0.0,0.0,0.0,0.0,0.0,0.0,0.0,0.0,0.0,0.0,0.0,0.0,0.0,0.0,0.0,0.0,0.0,0.0,0.0,0.0,0.0,0.0,0.0,0.0,0.0,0.0,0.0,0.0,0.0,0.0,0.0,0.0,0.0,0.0,0.0,0.0,0.0,0.0,0.0,0.0,0.0,0.0,0.0,0.0,0.0,0.0,0.0,0.0,0.0,0.0,0.0,0.0,0.0,0.0,0.0,0.0,0.0,0.0,-0.5551,9.5272,0.6364,-1.5869,-12.207,-2.7466,87.3688,1.4282,-28.6633,0.6669,0.1797,-0.1707,0.7027,0.8757,9.3263,-2.517,-3.54,-13.3057,1.0986,107.287,-6.9159,-23.1702,0.7947,0.1264,-0.1664,0.5699,1.8901,9.1875,-2.1629,-0.7324,-6.7139,0.7935,105.1721,-11.1621,-22.0605,0.7872,0.0932,-0.1915,0.5787,-0.8326,0.4689,9.9675,-0.4272,-0.7324,0.3052,3.2794,4.9823,-140.4987,-0.0312,0.0416,-0.9395,0.3386,-1.4547,9.1062,-2.4452,-2.5024,-11.2305,2.1362,104.6448,7.1851,-28.4875,0.7562,0.2315,-0.102,0.6035,-0.4833,9.4985,-1.7849,-2.8076,-8.4229,-0.6104,99.0527,3.2574,-15.8643,0.7506,0.1232,-0.0681,0.6456,0.9092,0.4881,9.9723,-0.5493,0.0,-0.061,4.5374,-5.3668,-88.83,0.061,-0.0057,-0.6999,0.7116,48897,0,23050,58112,0,0,0,0,51468,40193,0,0,38400,0,0,0,0,0,0,0,29202,44548,0,0,0,0,19215,32515,0,0,0,0,38657,0,7168,0
1777287896.1934924,202259,1777287875.724579,1777287894.244485,1777287876.6952665,0,0,-18519.90580558777,-970.6873893737793,1,1,0.0,0.0,0.0,0.0,0.0,0.0,0.0,0.0,0.0,0.0,0.0,0.0,0.0,0.0,0.0,0.0,0.0,0.0,0.0,0.0,0.0,0.0,0.0,0.0,0.0,0.0,0.0,0.0,0.0,0.0,0.0,0.0,0.0,0.0,0.0,0.0,0.0,0.0,0.0,0.0,0.0,0.0,0.0,0.0,0.0,0.0,0.0,0.0,0.0,0.0,0.0,0.0,0.0,0.0,0.0,0.0,0.0,0.0,0.0,0.0,0.0,0.0,0.0,0.0,0.0,0.0,0.0,0.0,0.0,0.0,0.0,0.0,0.0,0.0,0.0,-0.5551,9.5272,0.6364,-1.5869,-12.207,-2.7466,87.3688,1.4282,-28.6633,0.6669,0.1797,-0.1707,0.7027,0.8757,9.3263,-2.517,-3.54,-13.3057,1.0986,107.287,-6.9159,-23.1702,0.7947,0.1264,-0.1664,0.5699,1.8901,9.1875,-2.1629,-0.7324,-6.7139,0.7935,105.1721,-11.1621,-22.0605,0.7872,0.0932,-0.1915,0.5787,-0.8326,0.4689,9.9675,-0.4272,-0.7324,0.3052,3.2794,4.9823,-140.4987,-0.0312,0.0416,-0.9395,0.3386,-1.4547,9.1062,-2.4452,-2.5024,-11.2305,2.1362,104.6448,7.1851,-28.4875,0.7562,0.2315,-0.102,0.6035,-0.4833,9.4985,-1.7849,-2.8076,-8.4229,-0.6104,99.0527,3.2574,-15.8643,0.7506,0.1232,-0.0681,0.6456,0.9092,0.4881,9.9723,-0.5493,0.0,-0.061,4.5374,-5.3668,-88.83,0.061,-0.0057,-0.6999,0.7116,48897,0,23050,58112,0,0,0,0,51468,40193,0,0,38400,0,0,0,0,0,0,0,29202,44548,0,0,0,0,19215,32515,0,0,0,0,38657,0,7168,0
1777287896.1934924,202260,1777287875.7286334,1777287894.244485,1777287876.6952665,0,0,-18515.851497650146,-966.6330814361572,1,1,0.0,0.0,0.0,0.0,0.0,0.0,0.0,0.0,0.0,0.0,0.0,0.0,0.0,0.0,0.0,0.0,0.0,0.0,0.0,0.0,0.0,0.0,0.0,0.0,0.0,0.0,0.0,0.0,0.0,0.0,0.0,0.0,0.0,0.0,0.0,0.0,0.0,0.0,0.0,0.0,0.0,0.0,0.0,0.0,0.0,0.0,0.0,0.0,0.0,0.0,0.0,0.0,0.0,0.0,0.0,0.0,0.0,0.0,0.0,0.0,0.0,0.0,0.0,0.0,0.0,0.0,0.0,0.0,0.0,0.0,0.0,0.0,0.0,0.0,0.0,-0.5551,9.5272,0.6364,-1.5869,-12.207,-2.7466,87.3688,1.4282,-28.6633,0.6669,0.1797,-0.1707,0.7027,0.8757,9.3263,-2.517,-3.54,-13.3057,1.0986,107.287,-6.9159,-23.1702,0.7947,0.1264,-0.1664,0.5699,1.8901,9.1875,-2.1629,-0.7324,-6.7139,0.7935,105.1721,-11.1621,-22.0605,0.7872,0.0932,-0.1915,0.5787,-0.8326,0.4689,9.9675,-0.4272,-0.7324,0.3052,3.2794,4.9823,-140.4987,-0.0312,0.0416,-0.9395,0.3386,-1.4547,9.1062,-2.4452,-2.5024,-11.2305,2.1362,104.6448,7.1851,-28.4875,0.7562,0.2315,-0.102,0.6035,-0.4833,9.4985,-1.7849,-2.8076,-8.4229,-0.6104,99.0527,3.2574,-15.8643,0.7506,0.1232,-0.0681,0.6456,0.9092,0.4881,9.9723,-0.5493,0.0,-0.061,4.5374,-5.3668,-88.83,0.061,-0.0057,-0.6999,0.7116,48897,0,23050,58112,0,0,0,0,51468,40193,0,0,38400,0,0,0,0,0,0,0,29202,44548,0,0,0,0,19215,32515,0,0,0,0,38657,0,7168,0
1777287896.1934924,202261,1777287875.7393818,1777287894.244485,1777287876.6952665,0,0,-18505.10311126709,-955.8846950531006,1,1,0.0,0.0,0.0,0.0,0.0,0.0,0.0,0.0,0.0,0.0,0.0,0.0,0.0,0.0,0.0,0.0,0.0,0.0,0.0,0.0,0.0,0.0,0.0,0.0,0.0,0.0,0.0,0.0,0.0,0.0,0.0,0.0,0.0,0.0,0.0,0.0,0.0,0.0,0.0,0.0,0.0,0.0,0.0,0.0,0.0,0.0,0.0,0.0,0.0,0.0,0.0,0.0,0.0,0.0,0.0,0.0,0.0,0.0,0.0,0.0,0.0,0.0,0.0,0.0,0.0,0.0,0.0,0.0,0.0,0.0,0.0,0.0,0.0,0.0,0.0,-0.5551,9.5272,0.6364,-1.5869,-12.207,-2.7466,87.3688,1.4282,-28.6633,0.6669,0.1797,-0.1707,0.7027,0.8757,9.3263,-2.517,-3.54,-13.3057,1.0986,107.287,-6.9159,-23.1702,0.7947,0.1264,-0.1664,0.5699,1.8901,9.1875,-2.1629,-0.7324,-6.7139,0.7935,105.1721,-11.1621,-22.0605,0.7872,0.0932,-0.1915,0.5787,-0.8326,0.4689,9.9675,-0.4272,-0.7324,0.3052,3.2794,4.9823,-140.4987,-0.0312,0.0416,-0.9395,0.3386,-1.4547,9.1062,-2.4452,-2.5024,-11.2305,2.1362,104.6448,7.1851,-28.4875,0.7562,0.2315,-0.102,0.6035,-0.4833,9.4985,-1.7849,-2.8076,-8.4229,-0.6104,99.0527,3.2574,-15.8643,0.7506,0.1232,-0.0681,0.6456,0.9092,0.4881,9.9723,-0.5493,0.0,-0.061,4.5374,-5.3668,-88.83,0.061,-0.0057,-0.6999,0.7116,48897,0,23050,58112,0,0,0,0,51468,40193,0,0,38400,0,0,0,0,0,0,0,29202,44548,0,0,0,0,19215,32515,0,0,0,0,38657,0,7168,0
1777287896.1944916,202262,1777287875.748661,1777287894.244485,1777287876.6952665,0,0,-18495.823860168457,-946.6054439544678,1,1,0.0,0.0,0.0,0.0,0.0,0.0,0.0,0.0,0.0,0.0,0.0,0.0,0.0,0.0,0.0,0.0,0.0,0.0,0.0,0.0,0.0,0.0,0.0,0.0,0.0,0.0,0.0,0.0,0.0,0.0,0.0,0.0,0.0,0.0,0.0,0.0,0.0,0.0,0.0,0.0,0.0,0.0,0.0,0.0,0.0,0.0,0.0,0.0,0.0,0.0,0.0,0.0,0.0,0.0,0.0,0.0,0.0,0.0,0.0,0.0,0.0,0.0,0.0,0.0,0.0,0.0,0.0,0.0,0.0,0.0,0.0,0.0,0.0,0.0,0.0,-0.5551,9.5272,0.6364,-1.5869,-12.207,-2.7466,87.3688,1.4282,-28.6633,0.6669,0.1797,-0.1707,0.7027,0.8757,9.3263,-2.517,-3.54,-13.3057,1.0986,107.287,-6.9159,-23.1702,0.7947,0.1264,-0.1664,0.5699,1.8901,9.1875,-2.1629,-0.7324,-6.7139,0.7935,105.1721,-11.1621,-22.0605,0.7872,0.0932,-0.1915,0.5787,-0.8326,0.4689,9.9675,-0.4272,-0.7324,0.3052,3.2794,4.9823,-140.4987,-0.0312,0.0416,-0.9395,0.3386,-1.4547,9.1062,-2.4452,-2.5024,-11.2305,2.1362,104.6448,7.1851,-28.4875,0.7562,0.2315,-0.102,0.6035,-0.4833,9.4985,-1.7849,-2.8076,-8.4229,-0.6104,99.0527,3.2574,-15.8643,0.7506,0.1232,-0.0681,0.6456,0.9092,0.4881,9.9723,-0.5493,0.0,-0.061,4.5374,-5.3668,-88.83,0.061,-0.0057,-0.6999,0.7116,48897,0,23050,58112,0,0,0,0,51468,40193,0,0,38400,0,0,0,0,0,0,0,29202,44548,0,0,0,0,19215,32515,0,0,0,0,38657,0,7168,0
1777287896.1944916,202263,1777287875.758896,1777287894.244485,1777287876.6952665,0,0,-18485.588788986206,-936.3703727722168,1,1,0.0,0.0,0.0,0.0,0.0,0.0,0.0,0.0,0.0,0.0,0.0,0.0,0.0,0.0,0.0,0.0,0.0,0.0,0.0,0.0,0.0,0.0,0.0,0.0,0.0,0.0,0.0,0.0,0.0,0.0,0.0,0.0,0.0,0.0,0.0,0.0,0.0,0.0,0.0,0.0,0.0,0.0,0.0,0.0,0.0,0.0,0.0,0.0,0.0,0.0,0.0,0.0,0.0,0.0,0.0,0.0,0.0,0.0,0.0,0.0,0.0,0.0,0.0,0.0,0.0,0.0,0.0,0.0,0.0,0.0,0.0,0.0,0.0,0.0,0.0,-0.5551,9.5272,0.6364,-1.5869,-12.207,-2.7466,87.3688,1.4282,-28.6633,0.6669,0.1797,-0.1707,0.7027,0.8757,9.3263,-2.517,-3.54,-13.3057,1.0986,107.287,-6.9159,-23.1702,0.7947,0.1264,-0.1664,0.5699,1.8901,9.1875,-2.1629,-0.7324,-6.7139,0.7935,105.1721,-11.1621,-22.0605,0.7872,0.0932,-0.1915,0.5787,-0.8326,0.4689,9.9675,-0.4272,-0.7324,0.3052,3.2794,4.9823,-140.4987,-0.0312,0.0416,-0.9395,0.3386,-1.4547,9.1062,-2.4452,-2.5024,-11.2305,2.1362,104.6448,7.1851,-28.4875,0.7562,0.2315,-0.102,0.6035,-0.4833,9.4985,-1.7849,-2.8076,-8.4229,-0.6104,99.0527,3.2574,-15.8643,0.7506,0.1232,-0.0681,0.6456,0.9092,0.4881,9.9723,-0.5493,0.0,-0.061,4.5374,-5.3668,-88.83,0.061,-0.0057,-0.6999,0.7116,48897,0,23050,58112,0,0,0,0,51468,40193,0,0,38400,0,0,0,0,0,0,0,29202,44548,0,0,0,0,19215,32515,0,0,0,0,38657,0,7168,0
1777287896.1944916,202264,1777287875.7765386,1777287894.244485,1777287876.6952665,0,0,-18467.94629096985,-918.7278747558594,1,1,0.0,0.0,0.0,0.0,0.0,0.0,0.0,0.0,0.0,0.0,0.0,0.0,0.0,0.0,0.0,0.0,0.0,0.0,0.0,0.0,0.0,0.0,0.0,0.0,0.0,0.0,0.0,0.0,0.0,0.0,0.0,0.0,0.0,0.0,0.0,0.0,0.0,0.0,0.0,0.0,0.0,0.0,0.0,0.0,0.0,0.0,0.0,0.0,0.0,0.0,0.0,0.0,0.0,0.0,0.0,0.0,0.0,0.0,0.0,0.0,0.0,0.0,0.0,0.0,0.0,0.0,0.0,0.0,0.0,0.0,0.0,0.0,0.0,0.0,0.0,-0.5551,9.5272,0.6364,-1.5869,-12.207,-2.7466,87.3688,1.4282,-28.6633,0.6669,0.1797,-0.1707,0.7027,0.8757,9.3263,-2.517,-3.54,-13.3057,1.0986,107.287,-6.9159,-23.1702,0.7947,0.1264,-0.1664,0.5699,1.8901,9.1875,-2.1629,-0.7324,-6.7139,0.7935,105.1721,-11.1621,-22.0605,0.7872,0.0932,-0.1915,0.5787,-0.8326,0.4689,9.9675,-0.4272,-0.7324,0.3052,3.2794,4.9823,-140.4987,-0.0312,0.0416,-0.9395,0.3386,-1.4547,9.1062,-2.4452,-2.5024,-11.2305,2.1362,104.6448,7.1851,-28.4875,0.7562,0.2315,-0.102,0.6035,-0.4833,9.4985,-1.7849,-2.8076,-8.4229,-0.6104,99.0527,3.2574,-15.8643,0.7506,0.1232,-0.0681,0.6456,0.9092,0.4881,9.9723,-0.5493,0.0,-0.061,4.5374,-5.3668,-88.83,0.061,-0.0057,-0.6999,0.7116,48897,0,23050,58112,0,0,0,0,51468,40193,0,0,38400,0,0,0,0,0,0,0,29202,44548,0,0,0,0,19215,32515,0,0,0,0,38657,0,7168,0
1777287896.1944916,202265,1777287875.779306,1777287894.244485,1777287876.6952665,0,0,-18465.178966522217,-915.9605503082275,1,1,0.0,0.0,0.0,0.0,0.0,0.0,0.0,0.0,0.0,0.0,0.0,0.0,0.0,0.0,0.0,0.0,0.0,0.0,0.0,0.0,0.0,0.0,0.0,0.0,0.0,0.0,0.0,0.0,0.0,0.0,0.0,0.0,0.0,0.0,0.0,0.0,0.0,0.0,0.0,0.0,0.0,0.0,0.0,0.0,0.0,0.0,0.0,0.0,0.0,0.0,0.0,0.0,0.0,0.0,0.0,0.0,0.0,0.0,0.0,0.0,0.0,0.0,0.0,0.0,0.0,0.0,0.0,0.0,0.0,0.0,0.0,0.0,0.0,0.0,0.0,-0.5551,9.5272,0.6364,-1.5869,-12.207,-2.7466,87.3688,1.4282,-28.6633,0.6669,0.1797,-0.1707,0.7027,0.8757,9.3263,-2.517,-3.54,-13.3057,1.0986,107.287,-6.9159,-23.1702,0.7947,0.1264,-0.1664,0.5699,1.8901,9.1875,-2.1629,-0.7324,-6.7139,0.7935,105.1721,-11.1621,-22.0605,0.7872,0.0932,-0.1915,0.5787,-0.8326,0.4689,9.9675,-0.4272,-0.7324,0.3052,3.2794,4.9823,-140.4987,-0.0312,0.0416,-0.9395,0.3386,-1.4547,9.1062,-2.4452,-2.5024,-11.2305,2.1362,104.6448,7.1851,-28.4875,0.7562,0.2315,-0.102,0.6035,-0.4833,9.4985,-1.7849,-2.8076,-8.4229,-0.6104,99.0527,3.2574,-15.8643,0.7506,0.1232,-0.0681,0.6456,0.9092,0.4881,9.9723,-0.5493,0.0,-0.061,4.5374,-5.3668,-88.83,0.061,-0.0057,-0.6999,0.7116,48897,0,23050,58112,0,0,0,0,51468,40193,0,0,38400,0,0,0,0,0,0,0,29202,44548,0,0,0,0,19215,32515,0,0,0,0,38657,0,7168,0
1777287896.1944916,202266,1777287875.7890396,1777287894.244485,1777287876.6952665,0,0,-18455.445289611816,-906.2268733978271,1,1,0.0,0.0,0.0,0.0,0.0,0.0,0.0,0.0,0.0,0.0,0.0,0.0,0.0,0.0,0.0,0.0,0.0,0.0,0.0,0.0,0.0,0.0,0.0,0.0,0.0,0.0,0.0,0.0,0.0,0.0,0.0,0.0,0.0,0.0,0.0,0.0,0.0,0.0,0.0,0.0,0.0,0.0,0.0,0.0,0.0,0.0,0.0,0.0,0.0,0.0,0.0,0.0,0.0,0.0,0.0,0.0,0.0,0.0,0.0,0.0,0.0,0.0,0.0,0.0,0.0,0.0,0.0,0.0,0.0,0.0,0.0,0.0,0.0,0.0,0.0,-0.5551,9.5272,0.6364,-1.5869,-12.207,-2.7466,87.3688,1.4282,-28.6633,0.6669,0.1797,-0.1707,0.7027,0.8757,9.3263,-2.517,-3.54,-13.3057,1.0986,107.287,-6.9159,-23.1702,0.7947,0.1264,-0.1664,0.5699,1.8901,9.1875,-2.1629,-0.7324,-6.7139,0.7935,105.1721,-11.1621,-22.0605,0.7872,0.0932,-0.1915,0.5787,-0.8326,0.4689,9.9675,-0.4272,-0.7324,0.3052,3.2794,4.9823,-140.4987,-0.0312,0.0416,-0.9395,0.3386,-1.4547,9.1062,-2.4452,-2.5024,-11.2305,2.1362,104.6448,7.1851,-28.4875,0.7562,0.2315,-0.102,0.6035,-0.4833,9.4985,-1.7849,-2.8076,-8.4229,-0.6104,99.0527,3.2574,-15.8643,0.7506,0.1232,-0.0681,0.6456,0.9092,0.4881,9.9723,-0.5493,0.0,-0.061,4.5374,-5.3668,-88.83,0.061,-0.0057,-0.6999,0.7116,48897,0,23050,58112,0,0,0,0,51468,40193,0,0,38400,0,0,0,0,0,0,0,29202,44548,0,0,0,0,19215,32515,0,0,0,0,38657,0,7168,0
1777287896.1944916,202267,1777287875.7991755,1777287894.244485,1777287876.6952665,0,0,-18445.30940055847,-896.0909843444824,1,1,0.0,0.0,0.0,0.0,0.0,0.0,0.0,0.0,0.0,0.0,0.0,0.0,0.0,0.0,0.0,0.0,0.0,0.0,0.0,0.0,0.0,0.0,0.0,0.0,0.0,0.0,0.0,0.0,0.0,0.0,0.0,0.0,0.0,0.0,0.0,0.0,0.0,0.0,0.0,0.0,0.0,0.0,0.0,0.0,0.0,0.0,0.0,0.0,0.0,0.0,0.0,0.0,0.0,0.0,0.0,0.0,0.0,0.0,0.0,0.0,0.0,0.0,0.0,0.0,0.0,0.0,0.0,0.0,0.0,0.0,0.0,0.0,0.0,0.0,0.0,-0.5551,9.5272,0.6364,-1.5869,-12.207,-2.7466,87.3688,1.4282,-28.6633,0.6669,0.1797,-0.1707,0.7027,0.8757,9.3263,-2.517,-3.54,-13.3057,1.0986,107.287,-6.9159,-23.1702,0.7947,0.1264,-0.1664,0.5699,1.8901,9.1875,-2.1629,-0.7324,-6.7139,0.7935,105.1721,-11.1621,-22.0605,0.7872,0.0932,-0.1915,0.5787,-0.8326,0.4689,9.9675,-0.4272,-0.7324,0.3052,3.2794,4.9823,-140.4987,-0.0312,0.0416,-0.9395,0.3386,-1.4547,9.1062,-2.4452,-2.5024,-11.2305,2.1362,104.6448,7.1851,-28.4875,0.7562,0.2315,-0.102,0.6035,-0.4833,9.4985,-1.7849,-2.8076,-8.4229,-0.6104,99.0527,3.2574,-15.8643,0.7506,0.1232,-0.0681,0.6456,0.9092,0.4881,9.9723,-0.5493,0.0,-0.061,4.5374,-5.3668,-88.83,0.061,-0.0057,-0.6999,0.7116,48897,0,23050,58112,0,0,0,0,51468,40193,0,0,38400,0,0,0,0,0,0,0,29202,44548,0,0,0,0,19215,32515,0,0,0,0,38657,0,7168,0
1777287896.1944916,202268,1777287875.8141637,1777287894.244485,1777287876.6952665,0,0,-18430.321216583252,-881.1028003692627,1,1,0.0,0.0,0.0,0.0,0.0,0.0,0.0,0.0,0.0,0.0,0.0,0.0,0.0,0.0,0.0,0.0,0.0,0.0,0.0,0.0,0.0,0.0,0.0,0.0,0.0,0.0,0.0,0.0,0.0,0.0,0.0,0.0,0.0,0.0,0.0,0.0,0.0,0.0,0.0,0.0,0.0,0.0,0.0,0.0,0.0,0.0,0.0,0.0,0.0,0.0,0.0,0.0,0.0,0.0,0.0,0.0,0.0,0.0,0.0,0.0,0.0,0.0,0.0,0.0,0.0,0.0,0.0,0.0,0.0,0.0,0.0,0.0,0.0,0.0,0.0,-0.5551,9.5272,0.6364,-1.5869,-12.207,-2.7466,87.3688,1.4282,-28.6633,0.6669,0.1797,-0.1707,0.7027,0.8757,9.3263,-2.517,-3.54,-13.3057,1.0986,107.287,-6.9159,-23.1702,0.7947,0.1264,-0.1664,0.5699,1.8901,9.1875,-2.1629,-0.7324,-6.7139,0.7935,105.1721,-11.1621,-22.0605,0.7872,0.0932,-0.1915,0.5787,-0.8326,0.4689,9.9675,-0.4272,-0.7324,0.3052,3.2794,4.9823,-140.4987,-0.0312,0.0416,-0.9395,0.3386,-1.4547,9.1062,-2.4452,-2.5024,-11.2305,2.1362,104.6448,7.1851,-28.4875,0.7562,0.2315,-0.102,0.6035,-0.4833,9.4985,-1.7849,-2.8076,-8.4229,-0.6104,99.0527,3.2574,-15.8643,0.7506,0.1232,-0.0681,0.6456,0.9092,0.4881,9.9723,-0.5493,0.0,-0.061,4.5374,-5.3668,-88.83,0.061,-0.0057,-0.6999,0.7116,48897,0,23050,58112,0,0,0,0,51468,40193,0,0,38400,0,0,0,0,0,0,0,29202,44548,0,0,0,0,19215,32515,0,0,0,0,38657,0,7168,0
1777287896.1944916,202269,1777287875.8184512,1777287894.244485,1777287876.6952665,0,0,-18426.03373527527,-876.8153190612793,1,1,0.0,0.0,0.0,0.0,0.0,0.0,0.0,0.0,0.0,0.0,0.0,0.0,0.0,0.0,0.0,0.0,0.0,0.0,0.0,0.0,0.0,0.0,0.0,0.0,0.0,0.0,0.0,0.0,0.0,0.0,0.0,0.0,0.0,0.0,0.0,0.0,0.0,0.0,0.0,0.0,0.0,0.0,0.0,0.0,0.0,0.0,0.0,0.0,0.0,0.0,0.0,0.0,0.0,0.0,0.0,0.0,0.0,0.0,0.0,0.0,0.0,0.0,0.0,0.0,0.0,0.0,0.0,0.0,0.0,0.0,0.0,0.0,0.0,0.0,0.0,-0.5551,9.5272,0.6364,-1.5869,-12.207,-2.7466,87.3688,1.4282,-28.6633,0.6669,0.1797,-0.1707,0.7027,0.8757,9.3263,-2.517,-3.54,-13.3057,1.0986,107.287,-6.9159,-23.1702,0.7947,0.1264,-0.1664,0.5699,1.8901,9.1875,-2.1629,-0.7324,-6.7139,0.7935,105.1721,-11.1621,-22.0605,0.7872,0.0932,-0.1915,0.5787,-0.8326,0.4689,9.9675,-0.4272,-0.7324,0.3052,3.2794,4.9823,-140.4987,-0.0312,0.0416,-0.9395,0.3386,-1.4547,9.1062,-2.4452,-2.5024,-11.2305,2.1362,104.6448,7.1851,-28.4875,0.7562,0.2315,-0.102,0.6035,-0.4833,9.4985,-1.7849,-2.8076,-8.4229,-0.6104,99.0527,3.2574,-15.8643,0.7506,0.1232,-0.0681,0.6456,0.9092,0.4881,9.9723,-0.5493,0.0,-0.061,4.5374,-5.3668,-88.83,0.061,-0.0057,-0.6999,0.7116,48897,0,23050,58112,0,0,0,0,51468,40193,0,0,38400,0,0,0,0,0,0,0,29202,44548,0,0,0,0,19215,32515,0,0,0,0,38657,0,7168,0
1777287896.195492,202270,1777287875.8292658,1777287894.244485,1777287876.6952665,0,0,-18415.21906852722,-866.0006523132324,1,1,0.0,0.0,0.0,0.0,0.0,0.0,0.0,0.0,0.0,0.0,0.0,0.0,0.0,0.0,0.0,0.0,0.0,0.0,0.0,0.0,0.0,0.0,0.0,0.0,0.0,0.0,0.0,0.0,0.0,0.0,0.0,0.0,0.0,0.0,0.0,0.0,0.0,0.0,0.0,0.0,0.0,0.0,0.0,0.0,0.0,0.0,0.0,0.0,0.0,0.0,0.0,0.0,0.0,0.0,0.0,0.0,0.0,0.0,0.0,0.0,0.0,0.0,0.0,0.0,0.0,0.0,0.0,0.0,0.0,0.0,0.0,0.0,0.0,0.0,0.0,-0.5551,9.5272,0.6364,-1.5869,-12.207,-2.7466,87.3688,1.4282,-28.6633,0.6669,0.1797,-0.1707,0.7027,0.8757,9.3263,-2.517,-3.54,-13.3057,1.0986,107.287,-6.9159,-23.1702,0.7947,0.1264,-0.1664,0.5699,1.8901,9.1875,-2.1629,-0.7324,-6.7139,0.7935,105.1721,-11.1621,-22.0605,0.7872,0.0932,-0.1915,0.5787,-0.8326,0.4689,9.9675,-0.4272,-0.7324,0.3052,3.2794,4.9823,-140.4987,-0.0312,0.0416,-0.9395,0.3386,-1.4547,9.1062,-2.4452,-2.5024,-11.2305,2.1362,104.6448,7.1851,-28.4875,0.7562,0.2315,-0.102,0.6035,-0.4833,9.4985,-1.7849,-2.8076,-8.4229,-0.6104,99.0527,3.2574,-15.8643,0.7506,0.1232,-0.0681,0.6456,0.9092,0.4881,9.9723,-0.5493,0.0,-0.061,4.5374,-5.3668,-88.83,0.061,-0.0057,-0.6999,0.7116,48897,0,23050,58112,0,0,0,0,51468,40193,0,0,38400,0,0,0,0,0,0,0,29202,44548,0,0,0,0,19215,32515,0,0,0,0,38657,0,7168,0
1777287896.195492,202271,1777287875.8394737,1777287894.244485,1777287876.6952665,0,0,-18405.01117706299,-855.792760848999,1,1,0.0,0.0,0.0,0.0,0.0,0.0,0.0,0.0,0.0,0.0,0.0,0.0,0.0,0.0,0.0,0.0,0.0,0.0,0.0,0.0,0.0,0.0,0.0,0.0,0.0,0.0,0.0,0.0,0.0,0.0,0.0,0.0,0.0,0.0,0.0,0.0,0.0,0.0,0.0,0.0,0.0,0.0,0.0,0.0,0.0,0.0,0.0,0.0,0.0,0.0,0.0,0.0,0.0,0.0,0.0,0.0,0.0,0.0,0.0,0.0,0.0,0.0,0.0,0.0,0.0,0.0,0.0,0.0,0.0,0.0,0.0,0.0,0.0,0.0,0.0,-0.5551,9.5272,0.6364,-1.5869,-12.207,-2.7466,87.3688,1.4282,-28.6633,0.6669,0.1797,-0.1707,0.7027,0.8757,9.3263,-2.517,-3.54,-13.3057,1.0986,107.287,-6.9159,-23.1702,0.7947,0.1264,-0.1664,0.5699,1.8901,9.1875,-2.1629,-0.7324,-6.7139,0.7935,105.1721,-11.1621,-22.0605,0.7872,0.0932,-0.1915,0.5787,-0.8326,0.4689,9.9675,-0.4272,-0.7324,0.3052,3.2794,4.9823,-140.4987,-0.0312,0.0416,-0.9395,0.3386,-1.4547,9.1062,-2.4452,-2.5024,-11.2305,2.1362,104.6448,7.1851,-28.4875,0.7562,0.2315,-0.102,0.6035,-0.4833,9.4985,-1.7849,-2.8076,-8.4229,-0.6104,99.0527,3.2574,-15.8643,0.7506,0.1232,-0.0681,0.6456,0.9092,0.4881,9.9723,-0.5493,0.0,-0.061,4.5374,-5.3668,-88.83,0.061,-0.0057,-0.6999,0.7116,48897,0,23050,58112,0,0,0,0,51468,40193,0,0,38400,0,0,0,0,0,0,0,29202,44548,0,0,0,0,19215,32515,0,0,0,0,38657,0,7168,0
1777287896.195492,202272,1777287875.8486497,1777287894.244485,1777287876.6952665,0,0,-18395.835161209106,-846.6167449951172,1,1,0.0,0.0,0.0,0.0,0.0,0.0,0.0,0.0,0.0,0.0,0.0,0.0,0.0,0.0,0.0,0.0,0.0,0.0,0.0,0.0,0.0,0.0,0.0,0.0,0.0,0.0,0.0,0.0,0.0,0.0,0.0,0.0,0.0,0.0,0.0,0.0,0.0,0.0,0.0,0.0,0.0,0.0,0.0,0.0,0.0,0.0,0.0,0.0,0.0,0.0,0.0,0.0,0.0,0.0,0.0,0.0,0.0,0.0,0.0,0.0,0.0,0.0,0.0,0.0,0.0,0.0,0.0,0.0,0.0,0.0,0.0,0.0,0.0,0.0,0.0,-0.5551,9.5272,0.6364,-1.5869,-12.207,-2.7466,87.3688,1.4282,-28.6633,0.6669,0.1797,-0.1707,0.7027,0.8757,9.3263,-2.517,-3.54,-13.3057,1.0986,107.287,-6.9159,-23.1702,0.7947,0.1264,-0.1664,0.5699,1.8901,9.1875,-2.1629,-0.7324,-6.7139,0.7935,105.1721,-11.1621,-22.0605,0.7872,0.0932,-0.1915,0.5787,-0.8326,0.4689,9.9675,-0.4272,-0.7324,0.3052,3.2794,4.9823,-140.4987,-0.0312,0.0416,-0.9395,0.3386,-1.4547,9.1062,-2.4452,-2.5024,-11.2305,2.1362,104.6448,7.1851,-28.4875,0.7562,0.2315,-0.102,0.6035,-0.4833,9.4985,-1.7849,-2.8076,-8.4229,-0.6104,99.0527,3.2574,-15.8643,0.7506,0.1232,-0.0681,0.6456,0.9092,0.4881,9.9723,-0.5493,0.0,-0.061,4.5374,-5.3668,-88.83,0.061,-0.0057,-0.6999,0.7116,48897,0,23050,58112,0,0,0,0,51468,40193,0,0,38400,0,0,0,0,0,0,0,29202,44548,0,0,0,0,19215,32515,0,0,0,0,38657,0,7168,0
1777287896.195492,202273,1777287875.8591435,1777287894.244485,1777287876.6952665,0,0,-18385.34140586853,-836.122989654541,1,1,0.0,0.0,0.0,0.0,0.0,0.0,0.0,0.0,0.0,0.0,0.0,0.0,0.0,0.0,0.0,0.0,0.0,0.0,0.0,0.0,0.0,0.0,0.0,0.0,0.0,0.0,0.0,0.0,0.0,0.0,0.0,0.0,0.0,0.0,0.0,0.0,0.0,0.0,0.0,0.0,0.0,0.0,0.0,0.0,0.0,0.0,0.0,0.0,0.0,0.0,0.0,0.0,0.0,0.0,0.0,0.0,0.0,0.0,0.0,0.0,0.0,0.0,0.0,0.0,0.0,0.0,0.0,0.0,0.0,0.0,0.0,0.0,0.0,0.0,0.0,-0.5551,9.5272,0.6364,-1.5869,-12.207,-2.7466,87.3688,1.4282,-28.6633,0.6669,0.1797,-0.1707,0.7027,0.8757,9.3263,-2.517,-3.54,-13.3057,1.0986,107.287,-6.9159,-23.1702,0.7947,0.1264,-0.1664,0.5699,1.8901,9.1875,-2.1629,-0.7324,-6.7139,0.7935,105.1721,-11.1621,-22.0605,0.7872,0.0932,-0.1915,0.5787,-0.8326,0.4689,9.9675,-0.4272,-0.7324,0.3052,3.2794,4.9823,-140.4987,-0.0312,0.0416,-0.9395,0.3386,-1.4547,9.1062,-2.4452,-2.5024,-11.2305,2.1362,104.6448,7.1851,-28.4875,0.7562,0.2315,-0.102,0.6035,-0.4833,9.4985,-1.7849,-2.8076,-8.4229,-0.6104,99.0527,3.2574,-15.8643,0.7506,0.1232,-0.0681,0.6456,0.9092,0.4881,9.9723,-0.5493,0.0,-0.061,4.5374,-5.3668,-88.83,0.061,-0.0057,-0.6999,0.7116,48897,0,23050,58112,0,0,0,0,51468,40193,0,0,38400,0,0,0,0,0,0,0,29202,44548,0,0,0,0,19215,32515,0,0,0,0,38657,0,7168,0
1777287896.195492,202274,1777287875.8688426,1777287894.244485,1777287876.6952665,0,0,-18375.6422996521,-826.4238834381104,1,1,0.0,0.0,0.0,0.0,0.0,0.0,0.0,0.0,0.0,0.0,0.0,0.0,0.0,0.0,0.0,0.0,0.0,0.0,0.0,0.0,0.0,0.0,0.0,0.0,0.0,0.0,0.0,0.0,0.0,0.0,0.0,0.0,0.0,0.0,0.0,0.0,0.0,0.0,0.0,0.0,0.0,0.0,0.0,0.0,0.0,0.0,0.0,0.0,0.0,0.0,0.0,0.0,0.0,0.0,0.0,0.0,0.0,0.0,0.0,0.0,0.0,0.0,0.0,0.0,0.0,0.0,0.0,0.0,0.0,0.0,0.0,0.0,0.0,0.0,0.0,-0.5551,9.5272,0.6364,-1.5869,-12.207,-2.7466,87.3688,1.4282,-28.6633,0.6669,0.1797,-0.1707,0.7027,0.8757,9.3263,-2.517,-3.54,-13.3057,1.0986,107.287,-6.9159,-23.1702,0.7947,0.1264,-0.1664,0.5699,1.8901,9.1875,-2.1629,-0.7324,-6.7139,0.7935,105.1721,-11.1621,-22.0605,0.7872,0.0932,-0.1915,0.5787,-0.8326,0.4689,9.9675,-0.4272,-0.7324,0.3052,3.2794,4.9823,-140.4987,-0.0312,0.0416,-0.9395,0.3386,-1.4547,9.1062,-2.4452,-2.5024,-11.2305,2.1362,104.6448,7.1851,-28.4875,0.7562,0.2315,-0.102,0.6035,-0.4833,9.4985,-1.7849,-2.8076,-8.4229,-0.6104,99.0527,3.2574,-15.8643,0.7506,0.1232,-0.0681,0.6456,0.9092,0.4881,9.9723,-0.5493,0.0,-0.061,4.5374,-5.3668,-88.83,0.061,-0.0057,-0.6999,0.7116,48897,0,23050,58112,0,0,0,0,51468,40193,0,0,38400,0,0,0,0,0,0,0,29202,44548,0,0,0,0,19215,32515,0,0,0,0,38657,0,7168,0
1777287896.195492,202275,1777287875.8789573,1777287894.244485,1777287876.6952665,0,0,-18365.527629852295,-816.3092136383057,1,1,0.0,0.0,0.0,0.0,0.0,0.0,0.0,0.0,0.0,0.0,0.0,0.0,0.0,0.0,0.0,0.0,0.0,0.0,0.0,0.0,0.0,0.0,0.0,0.0,0.0,0.0,0.0,0.0,0.0,0.0,0.0,0.0,0.0,0.0,0.0,0.0,0.0,0.0,0.0,0.0,0.0,0.0,0.0,0.0,0.0,0.0,0.0,0.0,0.0,0.0,0.0,0.0,0.0,0.0,0.0,0.0,0.0,0.0,0.0,0.0,0.0,0.0,0.0,0.0,0.0,0.0,0.0,0.0,0.0,0.0,0.0,0.0,0.0,0.0,0.0,-0.5551,9.5272,0.6364,-1.5869,-12.207,-2.7466,87.3688,1.4282,-28.6633,0.6669,0.1797,-0.1707,0.7027,0.8757,9.3263,-2.517,-3.54,-13.3057,1.0986,107.287,-6.9159,-23.1702,0.7947,0.1264,-0.1664,0.5699,1.8901,9.1875,-2.1629,-0.7324,-6.7139,0.7935,105.1721,-11.1621,-22.0605,0.7872,0.0932,-0.1915,0.5787,-0.8326,0.4689,9.9675,-0.4272,-0.7324,0.3052,3.2794,4.9823,-140.4987,-0.0312,0.0416,-0.9395,0.3386,-1.4547,9.1062,-2.4452,-2.5024,-11.2305,2.1362,104.6448,7.1851,-28.4875,0.7562,0.2315,-0.102,0.6035,-0.4833,9.4985,-1.7849,-2.8076,-8.4229,-0.6104,99.0527,3.2574,-15.8643,0.7506,0.1232,-0.0681,0.6456,0.9092,0.4881,9.9723,-0.5493,0.0,-0.061,4.5374,-5.3668,-88.83,0.061,-0.0057,-0.6999,0.7116,48897,0,23050,58112,0,0,0,0,51468,40193,0,0,38400,0,0,0,0,0,0,0,29202,44548,0,0,0,0,19215,32515,0,0,0,0,38657,0,7168,0
1777287896.195492,202276,1777287875.8930748,1777287894.244485,1777287876.6952665,0,0,-18351.410150527954,-802.1917343139648,1,1,0.0,0.0,0.0,0.0,0.0,0.0,0.0,0.0,0.0,0.0,0.0,0.0,0.0,0.0,0.0,0.0,0.0,0.0,0.0,0.0,0.0,0.0,0.0,0.0,0.0,0.0,0.0,0.0,0.0,0.0,0.0,0.0,0.0,0.0,0.0,0.0,0.0,0.0,0.0,0.0,0.0,0.0,0.0,0.0,0.0,0.0,0.0,0.0,0.0,0.0,0.0,0.0,0.0,0.0,0.0,0.0,0.0,0.0,0.0,0.0,0.0,0.0,0.0,0.0,0.0,0.0,0.0,0.0,0.0,0.0,0.0,0.0,0.0,0.0,0.0,-0.5551,9.5272,0.6364,-1.5869,-12.207,-2.7466,87.3688,1.4282,-28.6633,0.6669,0.1797,-0.1707,0.7027,0.8757,9.3263,-2.517,-3.54,-13.3057,1.0986,107.287,-6.9159,-23.1702,0.7947,0.1264,-0.1664,0.5699,1.8901,9.1875,-2.1629,-0.7324,-6.7139,0.7935,105.1721,-11.1621,-22.0605,0.7872,0.0932,-0.1915,0.5787,-0.8326,0.4689,9.9675,-0.4272,-0.7324,0.3052,3.2794,4.9823,-140.4987,-0.0312,0.0416,-0.9395,0.3386,-1.4547,9.1062,-2.4452,-2.5024,-11.2305,2.1362,104.6448,7.1851,-28.4875,0.7562,0.2315,-0.102,0.6035,-0.4833,9.4985,-1.7849,-2.8076,-8.4229,-0.6104,99.0527,3.2574,-15.8643,0.7506,0.1232,-0.0681,0.6456,0.9092,0.4881,9.9723,-0.5493,0.0,-0.061,4.5374,-5.3668,-88.83,0.061,-0.0057,-0.6999,0.7116,48897,0,23050,58112,0,0,0,0,51468,40193,0,0,38400,0,0,0,0,0,0,0,29202,44548,0,0,0,0,19215,32515,0,0,0,0,38657,0,7168,0
1777287896.195492,202277,1777287875.8988004,1777287894.244485,1777287876.6952665,0,0,-18345.68452835083,-796.4661121368408,1,1,0.0,0.0,0.0,0.0,0.0,0.0,0.0,0.0,0.0,0.0,0.0,0.0,0.0,0.0,0.0,0.0,0.0,0.0,0.0,0.0,0.0,0.0,0.0,0.0,0.0,0.0,0.0,0.0,0.0,0.0,0.0,0.0,0.0,0.0,0.0,0.0,0.0,0.0,0.0,0.0,0.0,0.0,0.0,0.0,0.0,0.0,0.0,0.0,0.0,0.0,0.0,0.0,0.0,0.0,0.0,0.0,0.0,0.0,0.0,0.0,0.0,0.0,0.0,0.0,0.0,0.0,0.0,0.0,0.0,0.0,0.0,0.0,0.0,0.0,0.0,-0.5551,9.5272,0.6364,-1.5869,-12.207,-2.7466,87.3688,1.4282,-28.6633,0.6669,0.1797,-0.1707,0.7027,0.8757,9.3263,-2.517,-3.54,-13.3057,1.0986,107.287,-6.9159,-23.1702,0.7947,0.1264,-0.1664,0.5699,1.8901,9.1875,-2.1629,-0.7324,-6.7139,0.7935,105.1721,-11.1621,-22.0605,0.7872,0.0932,-0.1915,0.5787,-0.8326,0.4689,9.9675,-0.4272,-0.7324,0.3052,3.2794,4.9823,-140.4987,-0.0312,0.0416,-0.9395,0.3386,-1.4547,9.1062,-2.4452,-2.5024,-11.2305,2.1362,104.6448,7.1851,-28.4875,0.7562,0.2315,-0.102,0.6035,-0.4833,9.4985,-1.7849,-2.8076,-8.4229,-0.6104,99.0527,3.2574,-15.8643,0.7506,0.1232,-0.0681,0.6456,0.9092,0.4881,9.9723,-0.5493,0.0,-0.061,4.5374,-5.3668,-88.83,0.061,-0.0057,-0.6999,0.7116,48897,0,23050,58112,0,0,0,0,51468,40193,0,0,38400,0,0,0,0,0,0,0,29202,44548,0,0,0,0,19215,32515,0,0,0,0,38657,0,7168,0
1777287896.1964939,202278,1777287875.9089205,1777287894.244485,1777287876.6952665,0,0,-18335.564374923706,-786.3459587097168,1,1,0.0,0.0,0.0,0.0,0.0,0.0,0.0,0.0,0.0,0.0,0.0,0.0,0.0,0.0,0.0,0.0,0.0,0.0,0.0,0.0,0.0,0.0,0.0,0.0,0.0,0.0,0.0,0.0,0.0,0.0,0.0,0.0,0.0,0.0,0.0,0.0,0.0,0.0,0.0,0.0,0.0,0.0,0.0,0.0,0.0,0.0,0.0,0.0,0.0,0.0,0.0,0.0,0.0,0.0,0.0,0.0,0.0,0.0,0.0,0.0,0.0,0.0,0.0,0.0,0.0,0.0,0.0,0.0,0.0,0.0,0.0,0.0,0.0,0.0,0.0,-0.5551,9.5272,0.6364,-1.5869,-12.207,-2.7466,87.3688,1.4282,-28.6633,0.6669,0.1797,-0.1707,0.7027,0.8757,9.3263,-2.517,-3.54,-13.3057,1.0986,107.287,-6.9159,-23.1702,0.7947,0.1264,-0.1664,0.5699,1.8901,9.1875,-2.1629,-0.7324,-6.7139,0.7935,105.1721,-11.1621,-22.0605,0.7872,0.0932,-0.1915,0.5787,-0.8326,0.4689,9.9675,-0.4272,-0.7324,0.3052,3.2794,4.9823,-140.4987,-0.0312,0.0416,-0.9395,0.3386,-1.4547,9.1062,-2.4452,-2.5024,-11.2305,2.1362,104.6448,7.1851,-28.4875,0.7562,0.2315,-0.102,0.6035,-0.4833,9.4985,-1.7849,-2.8076,-8.4229,-0.6104,99.0527,3.2574,-15.8643,0.7506,0.1232,-0.0681,0.6456,0.9092,0.4881,9.9723,-0.5493,0.0,-0.061,4.5374,-5.3668,-88.83,0.061,-0.0057,-0.6999,0.7116,48897,0,23050,58112,0,0,0,0,51468,40193,0,0,38400,0,0,0,0,0,0,0,29202,44548,0,0,0,0,19215,32515,0,0,0,0,38657,0,7168,0
1777287896.1964939,202279,1777287875.9189851,1777287894.244485,1777287876.6952665,0,0,-18325.499773025513,-776.2813568115234,1,1,0.0,0.0,0.0,0.0,0.0,0.0,0.0,0.0,0.0,0.0,0.0,0.0,0.0,0.0,0.0,0.0,0.0,0.0,0.0,0.0,0.0,0.0,0.0,0.0,0.0,0.0,0.0,0.0,0.0,0.0,0.0,0.0,0.0,0.0,0.0,0.0,0.0,0.0,0.0,0.0,0.0,0.0,0.0,0.0,0.0,0.0,0.0,0.0,0.0,0.0,0.0,0.0,0.0,0.0,0.0,0.0,0.0,0.0,0.0,0.0,0.0,0.0,0.0,0.0,0.0,0.0,0.0,0.0,0.0,0.0,0.0,0.0,0.0,0.0,0.0,-0.5551,9.5272,0.6364,-1.5869,-12.207,-2.7466,87.3688,1.4282,-28.6633,0.6669,0.1797,-0.1707,0.7027,0.8757,9.3263,-2.517,-3.54,-13.3057,1.0986,107.287,-6.9159,-23.1702,0.7947,0.1264,-0.1664,0.5699,1.8901,9.1875,-2.1629,-0.7324,-6.7139,0.7935,105.1721,-11.1621,-22.0605,0.7872,0.0932,-0.1915,0.5787,-0.8326,0.4689,9.9675,-0.4272,-0.7324,0.3052,3.2794,4.9823,-140.4987,-0.0312,0.0416,-0.9395,0.3386,-1.4547,9.1062,-2.4452,-2.5024,-11.2305,2.1362,104.6448,7.1851,-28.4875,0.7562,0.2315,-0.102,0.6035,-0.4833,9.4985,-1.7849,-2.8076,-8.4229,-0.6104,99.0527,3.2574,-15.8643,0.7506,0.1232,-0.0681,0.6456,0.9092,0.4881,9.9723,-0.5493,0.0,-0.061,4.5374,-5.3668,-88.83,0.061,-0.0057,-0.6999,0.7116,48897,0,23050,58112,0,0,0,0,51468,40193,0,0,38400,0,0,0,0,0,0,0,29202,44548,0,0,0,0,19215,32515,0,0,0,0,38657,0,7168,0
1777287896.1964939,202280,1777287875.9293537,1777287894.244485,1777287876.6952665,0,0,-18315.131187438965,-765.9127712249756,1,1,0.0,0.0,0.0,0.0,0.0,0.0,0.0,0.0,0.0,0.0,0.0,0.0,0.0,0.0,0.0,0.0,0.0,0.0,0.0,0.0,0.0,0.0,0.0,0.0,0.0,0.0,0.0,0.0,0.0,0.0,0.0,0.0,0.0,0.0,0.0,0.0,0.0,0.0,0.0,0.0,0.0,0.0,0.0,0.0,0.0,0.0,0.0,0.0,0.0,0.0,0.0,0.0,0.0,0.0,0.0,0.0,0.0,0.0,0.0,0.0,0.0,0.0,0.0,0.0,0.0,0.0,0.0,0.0,0.0,0.0,0.0,0.0,0.0,0.0,0.0,-0.5551,9.5272,0.6364,-1.5869,-12.207,-2.7466,87.3688,1.4282,-28.6633,0.6669,0.1797,-0.1707,0.7027,0.8757,9.3263,-2.517,-3.54,-13.3057,1.0986,107.287,-6.9159,-23.1702,0.7947,0.1264,-0.1664,0.5699,1.8901,9.1875,-2.1629,-0.7324,-6.7139,0.7935,105.1721,-11.1621,-22.0605,0.7872,0.0932,-0.1915,0.5787,-0.8326,0.4689,9.9675,-0.4272,-0.7324,0.3052,3.2794,4.9823,-140.4987,-0.0312,0.0416,-0.9395,0.3386,-1.4547,9.1062,-2.4452,-2.5024,-11.2305,2.1362,104.6448,7.1851,-28.4875,0.7562,0.2315,-0.102,0.6035,-0.4833,9.4985,-1.7849,-2.8076,-8.4229,-0.6104,99.0527,3.2574,-15.8643,0.7506,0.1232,-0.0681,0.6456,0.9092,0.4881,9.9723,-0.5493,0.0,-0.061,4.5374,-5.3668,-88.83,0.061,-0.0057,-0.6999,0.7116,48897,0,23050,58112,0,0,0,0,51468,40193,0,0,38400,0,0,0,0,0,0,0,29202,44548,0,0,0,0,19215,32515,0,0,0,0,38657,0,7168,0
1777287896.1964939,202281,1777287875.9387143,1777287894.244485,1777287876.6952665,0,0,-18305.77063560486,-756.5522193908691,1,1,0.0,0.0,0.0,0.0,0.0,0.0,0.0,0.0,0.0,0.0,0.0,0.0,0.0,0.0,0.0,0.0,0.0,0.0,0.0,0.0,0.0,0.0,0.0,0.0,0.0,0.0,0.0,0.0,0.0,0.0,0.0,0.0,0.0,0.0,0.0,0.0,0.0,0.0,0.0,0.0,0.0,0.0,0.0,0.0,0.0,0.0,0.0,0.0,0.0,0.0,0.0,0.0,0.0,0.0,0.0,0.0,0.0,0.0,0.0,0.0,0.0,0.0,0.0,0.0,0.0,0.0,0.0,0.0,0.0,0.0,0.0,0.0,0.0,0.0,0.0,-0.5551,9.5272,0.6364,-1.5869,-12.207,-2.7466,87.3688,1.4282,-28.6633,0.6669,0.1797,-0.1707,0.7027,0.8757,9.3263,-2.517,-3.54,-13.3057,1.0986,107.287,-6.9159,-23.1702,0.7947,0.1264,-0.1664,0.5699,1.8901,9.1875,-2.1629,-0.7324,-6.7139,0.7935,105.1721,-11.1621,-22.0605,0.7872,0.0932,-0.1915,0.5787,-0.8326,0.4689,9.9675,-0.4272,-0.7324,0.3052,3.2794,4.9823,-140.4987,-0.0312,0.0416,-0.9395,0.3386,-1.4547,9.1062,-2.4452,-2.5024,-11.2305,2.1362,104.6448,7.1851,-28.4875,0.7562,0.2315,-0.102,0.6035,-0.4833,9.4985,-1.7849,-2.8076,-8.4229,-0.6104,99.0527,3.2574,-15.8643,0.7506,0.1232,-0.0681,0.6456,0.9092,0.4881,9.9723,-0.5493,0.0,-0.061,4.5374,-5.3668,-88.83,0.061,-0.0057,-0.6999,0.7116,48897,0,23050,58112,0,0,0,0,51468,40193,0,0,38400,0,0,0,0,0,0,0,29202,44548,0,0,0,0,19215,32515,0,0,0,0,38657,0,7168,0
1777287896.1964939,202282,1777287875.9493947,1777287894.244485,1777287876.6952665,0,0,-18295.090198516846,-745.8717823028564,1,1,0.0,0.0,0.0,0.0,0.0,0.0,0.0,0.0,0.0,0.0,0.0,0.0,0.0,0.0,0.0,0.0,0.0,0.0,0.0,0.0,0.0,0.0,0.0,0.0,0.0,0.0,0.0,0.0,0.0,0.0,0.0,0.0,0.0,0.0,0.0,0.0,0.0,0.0,0.0,0.0,0.0,0.0,0.0,0.0,0.0,0.0,0.0,0.0,0.0,0.0,0.0,0.0,0.0,0.0,0.0,0.0,0.0,0.0,0.0,0.0,0.0,0.0,0.0,0.0,0.0,0.0,0.0,0.0,0.0,0.0,0.0,0.0,0.0,0.0,0.0,-0.5551,9.5272,0.6364,-1.5869,-12.207,-2.7466,87.3688,1.4282,-28.6633,0.6669,0.1797,-0.1707,0.7027,0.8757,9.3263,-2.517,-3.54,-13.3057,1.0986,107.287,-6.9159,-23.1702,0.7947,0.1264,-0.1664,0.5699,1.8901,9.1875,-2.1629,-0.7324,-6.7139,0.7935,105.1721,-11.1621,-22.0605,0.7872,0.0932,-0.1915,0.5787,-0.8326,0.4689,9.9675,-0.4272,-0.7324,0.3052,3.2794,4.9823,-140.4987,-0.0312,0.0416,-0.9395,0.3386,-1.4547,9.1062,-2.4452,-2.5024,-11.2305,2.1362,104.6448,7.1851,-28.4875,0.7562,0.2315,-0.102,0.6035,-0.4833,9.4985,-1.7849,-2.8076,-8.4229,-0.6104,99.0527,3.2574,-15.8643,0.7506,0.1232,-0.0681,0.6456,0.9092,0.4881,9.9723,-0.5493,0.0,-0.061,4.5374,-5.3668,-88.83,0.061,-0.0057,-0.6999,0.7116,48897,0,23050,58112,0,0,0,0,51468,40193,0,0,38400,0,0,0,0,0,0,0,29202,44548,0,0,0,0,19215,32515,0,0,0,0,38657,0,7168,0
1777287896.1964939,202283,1777287875.958441,1777287894.244485,1777287876.6952665,0,0,-18286.043882369995,-736.8254661560059,1,1,0.0,0.0,0.0,0.0,0.0,0.0,0.0,0.0,0.0,0.0,0.0,0.0,0.0,0.0,0.0,0.0,0.0,0.0,0.0,0.0,0.0,0.0,0.0,0.0,0.0,0.0,0.0,0.0,0.0,0.0,0.0,0.0,0.0,0.0,0.0,0.0,0.0,0.0,0.0,0.0,0.0,0.0,0.0,0.0,0.0,0.0,0.0,0.0,0.0,0.0,0.0,0.0,0.0,0.0,0.0,0.0,0.0,0.0,0.0,0.0,0.0,0.0,0.0,0.0,0.0,0.0,0.0,0.0,0.0,0.0,0.0,0.0,0.0,0.0,0.0,-0.5551,9.5272,0.6364,-1.5869,-12.207,-2.7466,87.3688,1.4282,-28.6633,0.6669,0.1797,-0.1707,0.7027,0.8757,9.3263,-2.517,-3.54,-13.3057,1.0986,107.287,-6.9159,-23.1702,0.7947,0.1264,-0.1664,0.5699,1.8901,9.1875,-2.1629,-0.7324,-6.7139,0.7935,105.1721,-11.1621,-22.0605,0.7872,0.0932,-0.1915,0.5787,-0.8326,0.4689,9.9675,-0.4272,-0.7324,0.3052,3.2794,4.9823,-140.4987,-0.0312,0.0416,-0.9395,0.3386,-1.4547,9.1062,-2.4452,-2.5024,-11.2305,2.1362,104.6448,7.1851,-28.4875,0.7562,0.2315,-0.102,0.6035,-0.4833,9.4985,-1.7849,-2.8076,-8.4229,-0.6104,99.0527,3.2574,-15.8643,0.7506,0.1232,-0.0681,0.6456,0.9092,0.4881,9.9723,-0.5493,0.0,-0.061,4.5374,-5.3668,-88.83,0.061,-0.0057,-0.6999,0.7116,48897,0,23050,58112,0,0,0,0,51468,40193,0,0,38400,0,0,0,0,0,0,0,29202,44548,0,0,0,0,19215,32515,0,0,0,0,38657,0,7168,0
1777287896.1964939,202284,1777287875.9694455,1777287894.244485,1777287876.6952665,0,0,-18275.039434432983,-725.8210182189941,1,1,0.0,0.0,0.0,0.0,0.0,0.0,0.0,0.0,0.0,0.0,0.0,0.0,0.0,0.0,0.0,0.0,0.0,0.0,0.0,0.0,0.0,0.0,0.0,0.0,0.0,0.0,0.0,0.0,0.0,0.0,0.0,0.0,0.0,0.0,0.0,0.0,0.0,0.0,0.0,0.0,0.0,0.0,0.0,0.0,0.0,0.0,0.0,0.0,0.0,0.0,0.0,0.0,0.0,0.0,0.0,0.0,0.0,0.0,0.0,0.0,0.0,0.0,0.0,0.0,0.0,0.0,0.0,0.0,0.0,0.0,0.0,0.0,0.0,0.0,0.0,-0.5551,9.5272,0.6364,-1.5869,-12.207,-2.7466,87.3688,1.4282,-28.6633,0.6669,0.1797,-0.1707,0.7027,0.8757,9.3263,-2.517,-3.54,-13.3057,1.0986,107.287,-6.9159,-23.1702,0.7947,0.1264,-0.1664,0.5699,1.8901,9.1875,-2.1629,-0.7324,-6.7139,0.7935,105.1721,-11.1621,-22.0605,0.7872,0.0932,-0.1915,0.5787,-0.8326,0.4689,9.9675,-0.4272,-0.7324,0.3052,3.2794,4.9823,-140.4987,-0.0312,0.0416,-0.9395,0.3386,-1.4547,9.1062,-2.4452,-2.5024,-11.2305,2.1362,104.6448,7.1851,-28.4875,0.7562,0.2315,-0.102,0.6035,-0.4833,9.4985,-1.7849,-2.8076,-8.4229,-0.6104,99.0527,3.2574,-15.8643,0.7506,0.1232,-0.0681,0.6456,0.9092,0.4881,9.9723,-0.5493,0.0,-0.061,4.5374,-5.3668,-88.83,0.061,-0.0057,-0.6999,0.7116,48897,0,23050,58112,0,0,0,0,51468,40193,0,0,38400,0,0,0,0,0,0,0,29202,44548,0,0,0,0,19215,32515,0,0,0,0,38657,0,7168,0
1777287896.1964939,202285,1777287875.9884534,1777287894.244485,1777287876.6952665,0,0,-18256.03151321411,-706.8130970001221,1,1,0.0,0.0,0.0,0.0,0.0,0.0,0.0,0.0,0.0,0.0,0.0,0.0,0.0,0.0,0.0,0.0,0.0,0.0,0.0,0.0,0.0,0.0,0.0,0.0,0.0,0.0,0.0,0.0,0.0,0.0,0.0,0.0,0.0,0.0,0.0,0.0,0.0,0.0,0.0,0.0,0.0,0.0,0.0,0.0,0.0,0.0,0.0,0.0,0.0,0.0,0.0,0.0,0.0,0.0,0.0,0.0,0.0,0.0,0.0,0.0,0.0,0.0,0.0,0.0,0.0,0.0,0.0,0.0,0.0,0.0,0.0,0.0,0.0,0.0,0.0,-0.5551,9.5272,0.6364,-1.5869,-12.207,-2.7466,87.3688,1.4282,-28.6633,0.6669,0.1797,-0.1707,0.7027,0.8757,9.3263,-2.517,-3.54,-13.3057,1.0986,107.287,-6.9159,-23.1702,0.7947,0.1264,-0.1664,0.5699,1.8901,9.1875,-2.1629,-0.7324,-6.7139,0.7935,105.1721,-11.1621,-22.0605,0.7872,0.0932,-0.1915,0.5787,-0.8326,0.4689,9.9675,-0.4272,-0.7324,0.3052,3.2794,4.9823,-140.4987,-0.0312,0.0416,-0.9395,0.3386,-1.4547,9.1062,-2.4452,-2.5024,-11.2305,2.1362,104.6448,7.1851,-28.4875,0.7562,0.2315,-0.102,0.6035,-0.4833,9.4985,-1.7849,-2.8076,-8.4229,-0.6104,99.0527,3.2574,-15.8643,0.7506,0.1232,-0.0681,0.6456,0.9092,0.4881,9.9723,-0.5493,0.0,-0.061,4.5374,-5.3668,-88.83,0.061,-0.0057,-0.6999,0.7116,48897,0,23050,58112,0,0,0,0,51468,40193,0,0,38400,0,0,0,0,0,0,0,29202,44548,0,0,0,0,19215,32515,0,0,0,0,38657,0,7168,0
1777287896.1974978,202286,1777287875.992844,1777287894.244485,1777287876.6952665,0,0,-18251.640796661377,-702.4223804473877,1,1,0.0,0.0,0.0,0.0,0.0,0.0,0.0,0.0,0.0,0.0,0.0,0.0,0.0,0.0,0.0,0.0,0.0,0.0,0.0,0.0,0.0,0.0,0.0,0.0,0.0,0.0,0.0,0.0,0.0,0.0,0.0,0.0,0.0,0.0,0.0,0.0,0.0,0.0,0.0,0.0,0.0,0.0,0.0,0.0,0.0,0.0,0.0,0.0,0.0,0.0,0.0,0.0,0.0,0.0,0.0,0.0,0.0,0.0,0.0,0.0,0.0,0.0,0.0,0.0,0.0,0.0,0.0,0.0,0.0,0.0,0.0,0.0,0.0,0.0,0.0,-0.5551,9.5272,0.6364,-1.5869,-12.207,-2.7466,87.3688,1.4282,-28.6633,0.6669,0.1797,-0.1707,0.7027,0.8757,9.3263,-2.517,-3.54,-13.3057,1.0986,107.287,-6.9159,-23.1702,0.7947,0.1264,-0.1664,0.5699,1.8901,9.1875,-2.1629,-0.7324,-6.7139,0.7935,105.1721,-11.1621,-22.0605,0.7872,0.0932,-0.1915,0.5787,-0.8326,0.4689,9.9675,-0.4272,-0.7324,0.3052,3.2794,4.9823,-140.4987,-0.0312,0.0416,-0.9395,0.3386,-1.4547,9.1062,-2.4452,-2.5024,-11.2305,2.1362,104.6448,7.1851,-28.4875,0.7562,0.2315,-0.102,0.6035,-0.4833,9.4985,-1.7849,-2.8076,-8.4229,-0.6104,99.0527,3.2574,-15.8643,0.7506,0.1232,-0.0681,0.6456,0.9092,0.4881,9.9723,-0.5493,0.0,-0.061,4.5374,-5.3668,-88.83,0.061,-0.0057,-0.6999,0.7116,48897,0,23050,58112,0,0,0,0,51468,40193,0,0,38400,0,0,0,0,0,0,0,29202,44548,0,0,0,0,19215,32515,0,0,0,0,38657,0,7168,0
1777287896.1974978,202287,1777287875.9983428,1777287894.244485,1777287876.6952665,0,0,-18246.142148971558,-696.9237327575684,1,1,0.0,0.0,0.0,0.0,0.0,0.0,0.0,0.0,0.0,0.0,0.0,0.0,0.0,0.0,0.0,0.0,0.0,0.0,0.0,0.0,0.0,0.0,0.0,0.0,0.0,0.0,0.0,0.0,0.0,0.0,0.0,0.0,0.0,0.0,0.0,0.0,0.0,0.0,0.0,0.0,0.0,0.0,0.0,0.0,0.0,0.0,0.0,0.0,0.0,0.0,0.0,0.0,0.0,0.0,0.0,0.0,0.0,0.0,0.0,0.0,0.0,0.0,0.0,0.0,0.0,0.0,0.0,0.0,0.0,0.0,0.0,0.0,0.0,0.0,0.0,-0.5551,9.5272,0.6364,-1.5869,-12.207,-2.7466,87.3688,1.4282,-28.6633,0.6669,0.1797,-0.1707,0.7027,0.8757,9.3263,-2.517,-3.54,-13.3057,1.0986,107.287,-6.9159,-23.1702,0.7947,0.1264,-0.1664,0.5699,1.8901,9.1875,-2.1629,-0.7324,-6.7139,0.7935,105.1721,-11.1621,-22.0605,0.7872,0.0932,-0.1915,0.5787,-0.8326,0.4689,9.9675,-0.4272,-0.7324,0.3052,3.2794,4.9823,-140.4987,-0.0312,0.0416,-0.9395,0.3386,-1.4547,9.1062,-2.4452,-2.5024,-11.2305,2.1362,104.6448,7.1851,-28.4875,0.7562,0.2315,-0.102,0.6035,-0.4833,9.4985,-1.7849,-2.8076,-8.4229,-0.6104,99.0527,3.2574,-15.8643,0.7506,0.1232,-0.0681,0.6456,0.9092,0.4881,9.9723,-0.5493,0.0,-0.061,4.5374,-5.3668,-88.83,0.061,-0.0057,-0.6999,0.7116,48897,0,23050,58112,0,0,0,0,51468,40193,0,0,38400,0,0,0,0,0,0,0,29202,44548,0,0,0,0,19215,32515,0,0,0,0,38657,0,7168,0
1777287896.1974978,202288,1777287876.0090096,1777287894.244485,1777287876.6952665,0,0,-18235.475301742554,-686.2568855285645,1,1,0.0,0.0,0.0,0.0,0.0,0.0,0.0,0.0,0.0,0.0,0.0,0.0,0.0,0.0,0.0,0.0,0.0,0.0,0.0,0.0,0.0,0.0,0.0,0.0,0.0,0.0,0.0,0.0,0.0,0.0,0.0,0.0,0.0,0.0,0.0,0.0,0.0,0.0,0.0,0.0,0.0,0.0,0.0,0.0,0.0,0.0,0.0,0.0,0.0,0.0,0.0,0.0,0.0,0.0,0.0,0.0,0.0,0.0,0.0,0.0,0.0,0.0,0.0,0.0,0.0,0.0,0.0,0.0,0.0,0.0,0.0,0.0,0.0,0.0,0.0,-0.5551,9.5272,0.6364,-1.5869,-12.207,-2.7466,87.3688,1.4282,-28.6633,0.6669,0.1797,-0.1707,0.7027,0.8757,9.3263,-2.517,-3.54,-13.3057,1.0986,107.287,-6.9159,-23.1702,0.7947,0.1264,-0.1664,0.5699,1.8901,9.1875,-2.1629,-0.7324,-6.7139,0.7935,105.1721,-11.1621,-22.0605,0.7872,0.0932,-0.1915,0.5787,-0.8326,0.4689,9.9675,-0.4272,-0.7324,0.3052,3.2794,4.9823,-140.4987,-0.0312,0.0416,-0.9395,0.3386,-1.4547,9.1062,-2.4452,-2.5024,-11.2305,2.1362,104.6448,7.1851,-28.4875,0.7562,0.2315,-0.102,0.6035,-0.4833,9.4985,-1.7849,-2.8076,-8.4229,-0.6104,99.0527,3.2574,-15.8643,0.7506,0.1232,-0.0681,0.6456,0.9092,0.4881,9.9723,-0.5493,0.0,-0.061,4.5374,-5.3668,-88.83,0.061,-0.0057,-0.6999,0.7116,48897,0,23050,58112,0,0,0,0,51468,40193,0,0,38400,0,0,0,0,0,0,0,29202,44548,0,0,0,0,19215,32515,0,0,0,0,38657,0,7168,0
1777287896.1974978,202289,1777287876.0190024,1777287894.244485,1777287876.6952665,0,0,-18225.48246383667,-676.2640476226807,1,1,0.0,0.0,0.0,0.0,0.0,0.0,0.0,0.0,0.0,0.0,0.0,0.0,0.0,0.0,0.0,0.0,0.0,0.0,0.0,0.0,0.0,0.0,0.0,0.0,0.0,0.0,0.0,0.0,0.0,0.0,0.0,0.0,0.0,0.0,0.0,0.0,0.0,0.0,0.0,0.0,0.0,0.0,0.0,0.0,0.0,0.0,0.0,0.0,0.0,0.0,0.0,0.0,0.0,0.0,0.0,0.0,0.0,0.0,0.0,0.0,0.0,0.0,0.0,0.0,0.0,0.0,0.0,0.0,0.0,0.0,0.0,0.0,0.0,0.0,0.0,-0.5551,9.5272,0.6364,-1.5869,-12.207,-2.7466,87.3688,1.4282,-28.6633,0.6669,0.1797,-0.1707,0.7027,0.8757,9.3263,-2.517,-3.54,-13.3057,1.0986,107.287,-6.9159,-23.1702,0.7947,0.1264,-0.1664,0.5699,1.8901,9.1875,-2.1629,-0.7324,-6.7139,0.7935,105.1721,-11.1621,-22.0605,0.7872,0.0932,-0.1915,0.5787,-0.8326,0.4689,9.9675,-0.4272,-0.7324,0.3052,3.2794,4.9823,-140.4987,-0.0312,0.0416,-0.9395,0.3386,-1.4547,9.1062,-2.4452,-2.5024,-11.2305,2.1362,104.6448,7.1851,-28.4875,0.7562,0.2315,-0.102,0.6035,-0.4833,9.4985,-1.7849,-2.8076,-8.4229,-0.6104,99.0527,3.2574,-15.8643,0.7506,0.1232,-0.0681,0.6456,0.9092,0.4881,9.9723,-0.5493,0.0,-0.061,4.5374,-5.3668,-88.83,0.061,-0.0057,-0.6999,0.7116,48897,0,23050,58112,0,0,0,0,51468,40193,0,0,38400,0,0,0,0,0,0,0,29202,44548,0,0,0,0,19215,32515,0,0,0,0,38657,0,7168,0
1777287896.1974978,202290,1777287876.0292351,1777287894.244485,1777287876.6952665,0,0,-18215.24977684021,-666.0313606262207,1,1,0.0,0.0,0.0,0.0,0.0,0.0,0.0,0.0,0.0,0.0,0.0,0.0,0.0,0.0,0.0,0.0,0.0,0.0,0.0,0.0,0.0,0.0,0.0,0.0,0.0,0.0,0.0,0.0,0.0,0.0,0.0,0.0,0.0,0.0,0.0,0.0,0.0,0.0,0.0,0.0,0.0,0.0,0.0,0.0,0.0,0.0,0.0,0.0,0.0,0.0,0.0,0.0,0.0,0.0,0.0,0.0,0.0,0.0,0.0,0.0,0.0,0.0,0.0,0.0,0.0,0.0,0.0,0.0,0.0,0.0,0.0,0.0,0.0,0.0,0.0,-0.5551,9.5272,0.6364,-1.5869,-12.207,-2.7466,87.3688,1.4282,-28.6633,0.6669,0.1797,-0.1707,0.7027,0.8757,9.3263,-2.517,-3.54,-13.3057,1.0986,107.287,-6.9159,-23.1702,0.7947,0.1264,-0.1664,0.5699,1.8901,9.1875,-2.1629,-0.7324,-6.7139,0.7935,105.1721,-11.1621,-22.0605,0.7872,0.0932,-0.1915,0.5787,-0.8326,0.4689,9.9675,-0.4272,-0.7324,0.3052,3.2794,4.9823,-140.4987,-0.0312,0.0416,-0.9395,0.3386,-1.4547,9.1062,-2.4452,-2.5024,-11.2305,2.1362,104.6448,7.1851,-28.4875,0.7562,0.2315,-0.102,0.6035,-0.4833,9.4985,-1.7849,-2.8076,-8.4229,-0.6104,99.0527,3.2574,-15.8643,0.7506,0.1232,-0.0681,0.6456,0.9092,0.4881,9.9723,-0.5493,0.0,-0.061,4.5374,-5.3668,-88.83,0.061,-0.0057,-0.6999,0.7116,48897,0,23050,58112,0,0,0,0,51468,40193,0,0,38400,0,0,0,0,0,0,0,29202,44548,0,0,0,0,19215,32515,0,0,0,0,38657,0,7168,0
1777287896.1974978,202291,1777287876.039249,1777287894.244485,1777287876.6952665,0,0,-18205.235958099365,-656.017541885376,1,1,0.0,0.0,0.0,0.0,0.0,0.0,0.0,0.0,0.0,0.0,0.0,0.0,0.0,0.0,0.0,0.0,0.0,0.0,0.0,0.0,0.0,0.0,0.0,0.0,0.0,0.0,0.0,0.0,0.0,0.0,0.0,0.0,0.0,0.0,0.0,0.0,0.0,0.0,0.0,0.0,0.0,0.0,0.0,0.0,0.0,0.0,0.0,0.0,0.0,0.0,0.0,0.0,0.0,0.0,0.0,0.0,0.0,0.0,0.0,0.0,0.0,0.0,0.0,0.0,0.0,0.0,0.0,0.0,0.0,0.0,0.0,0.0,0.0,0.0,0.0,-0.5551,9.5272,0.6364,-1.5869,-12.207,-2.7466,87.3688,1.4282,-28.6633,0.6669,0.1797,-0.1707,0.7027,0.8757,9.3263,-2.517,-3.54,-13.3057,1.0986,107.287,-6.9159,-23.1702,0.7947,0.1264,-0.1664,0.5699,1.8901,9.1875,-2.1629,-0.7324,-6.7139,0.7935,105.1721,-11.1621,-22.0605,0.7872,0.0932,-0.1915,0.5787,-0.8326,0.4689,9.9675,-0.4272,-0.7324,0.3052,3.2794,4.9823,-140.4987,-0.0312,0.0416,-0.9395,0.3386,-1.4547,9.1062,-2.4452,-2.5024,-11.2305,2.1362,104.6448,7.1851,-28.4875,0.7562,0.2315,-0.102,0.6035,-0.4833,9.4985,-1.7849,-2.8076,-8.4229,-0.6104,99.0527,3.2574,-15.8643,0.7506,0.1232,-0.0681,0.6456,0.9092,0.4881,9.9723,-0.5493,0.0,-0.061,4.5374,-5.3668,-88.83,0.061,-0.0057,-0.6999,0.7116,48897,0,23050,58112,0,0,0,0,51468,40193,0,0,38400,0,0,0,0,0,0,0,29202,44548,0,0,0,0,19215,32515,0,0,0,0,38657,0,7168,0
1777287896.1974978,202292,1777287876.0487616,1777287894.244485,1777287876.6952665,0,0,-18195.723295211792,-646.5048789978027,1,1,0.0,0.0,0.0,0.0,0.0,0.0,0.0,0.0,0.0,0.0,0.0,0.0,0.0,0.0,0.0,0.0,0.0,0.0,0.0,0.0,0.0,0.0,0.0,0.0,0.0,0.0,0.0,0.0,0.0,0.0,0.0,0.0,0.0,0.0,0.0,0.0,0.0,0.0,0.0,0.0,0.0,0.0,0.0,0.0,0.0,0.0,0.0,0.0,0.0,0.0,0.0,0.0,0.0,0.0,0.0,0.0,0.0,0.0,0.0,0.0,0.0,0.0,0.0,0.0,0.0,0.0,0.0,0.0,0.0,0.0,0.0,0.0,0.0,0.0,0.0,-0.5551,9.5272,0.6364,-1.5869,-12.207,-2.7466,87.3688,1.4282,-28.6633,0.6669,0.1797,-0.1707,0.7027,0.8757,9.3263,-2.517,-3.54,-13.3057,1.0986,107.287,-6.9159,-23.1702,0.7947,0.1264,-0.1664,0.5699,1.8901,9.1875,-2.1629,-0.7324,-6.7139,0.7935,105.1721,-11.1621,-22.0605,0.7872,0.0932,-0.1915,0.5787,-0.8326,0.4689,9.9675,-0.4272,-0.7324,0.3052,3.2794,4.9823,-140.4987,-0.0312,0.0416,-0.9395,0.3386,-1.4547,9.1062,-2.4452,-2.5024,-11.2305,2.1362,104.6448,7.1851,-28.4875,0.7562,0.2315,-0.102,0.6035,-0.4833,9.4985,-1.7849,-2.8076,-8.4229,-0.6104,99.0527,3.2574,-15.8643,0.7506,0.1232,-0.0681,0.6456,0.9092,0.4881,9.9723,-0.5493,0.0,-0.061,4.5374,-5.3668,-88.83,0.061,-0.0057,-0.6999,0.7116,48897,0,23050,58112,0,0,0,0,51468,40193,0,0,38400,0,0,0,0,0,0,0,29202,44548,0,0,0,0,19215,32515,0,0,0,0,38657,0,7168,0
1777287896.1974978,202293,1777287876.0685482,1777287894.244485,1777287876.6952665,0,0,-18175.936698913574,-626.718282699585,1,1,0.0,0.0,0.0,0.0,0.0,0.0,0.0,0.0,0.0,0.0,0.0,0.0,0.0,0.0,0.0,0.0,0.0,0.0,0.0,0.0,0.0,0.0,0.0,0.0,0.0,0.0,0.0,0.0,0.0,0.0,0.0,0.0,0.0,0.0,0.0,0.0,0.0,0.0,0.0,0.0,0.0,0.0,0.0,0.0,0.0,0.0,0.0,0.0,0.0,0.0,0.0,0.0,0.0,0.0,0.0,0.0,0.0,0.0,0.0,0.0,0.0,0.0,0.0,0.0,0.0,0.0,0.0,0.0,0.0,0.0,0.0,0.0,0.0,0.0,0.0,-0.5551,9.5272,0.6364,-1.5869,-12.207,-2.7466,87.3688,1.4282,-28.6633,0.6669,0.1797,-0.1707,0.7027,0.8757,9.3263,-2.517,-3.54,-13.3057,1.0986,107.287,-6.9159,-23.1702,0.7947,0.1264,-0.1664,0.5699,1.8901,9.1875,-2.1629,-0.7324,-6.7139,0.7935,105.1721,-11.1621,-22.0605,0.7872,0.0932,-0.1915,0.5787,-0.8326,0.4689,9.9675,-0.4272,-0.7324,0.3052,3.2794,4.9823,-140.4987,-0.0312,0.0416,-0.9395,0.3386,-1.4547,9.1062,-2.4452,-2.5024,-11.2305,2.1362,104.6448,7.1851,-28.4875,0.7562,0.2315,-0.102,0.6035,-0.4833,9.4985,-1.7849,-2.8076,-8.4229,-0.6104,99.0527,3.2574,-15.8643,0.7506,0.1232,-0.0681,0.6456,0.9092,0.4881,9.9723,-0.5493,0.0,-0.061,4.5374,-5.3668,-88.83,0.061,-0.0057,-0.6999,0.7116,48897,0,23050,58112,0,0,0,0,51468,40193,0,0,38400,0,0,0,0,0,0,0,29202,44548,0,0,0,0,19215,32515,0,0,0,0,38657,0,7168,0
1777287896.1974978,202294,1777287876.0710778,1777287894.244485,1777287876.6952665,0,0,-18173.407077789307,-624.1886615753174,1,1,0.0,0.0,0.0,0.0,0.0,0.0,0.0,0.0,0.0,0.0,0.0,0.0,0.0,0.0,0.0,0.0,0.0,0.0,0.0,0.0,0.0,0.0,0.0,0.0,0.0,0.0,0.0,0.0,0.0,0.0,0.0,0.0,0.0,0.0,0.0,0.0,0.0,0.0,0.0,0.0,0.0,0.0,0.0,0.0,0.0,0.0,0.0,0.0,0.0,0.0,0.0,0.0,0.0,0.0,0.0,0.0,0.0,0.0,0.0,0.0,0.0,0.0,0.0,0.0,0.0,0.0,0.0,0.0,0.0,0.0,0.0,0.0,0.0,0.0,0.0,-0.5551,9.5272,0.6364,-1.5869,-12.207,-2.7466,87.3688,1.4282,-28.6633,0.6669,0.1797,-0.1707,0.7027,0.8757,9.3263,-2.517,-3.54,-13.3057,1.0986,107.287,-6.9159,-23.1702,0.7947,0.1264,-0.1664,0.5699,1.8901,9.1875,-2.1629,-0.7324,-6.7139,0.7935,105.1721,-11.1621,-22.0605,0.7872,0.0932,-0.1915,0.5787,-0.8326,0.4689,9.9675,-0.4272,-0.7324,0.3052,3.2794,4.9823,-140.4987,-0.0312,0.0416,-0.9395,0.3386,-1.4547,9.1062,-2.4452,-2.5024,-11.2305,2.1362,104.6448,7.1851,-28.4875,0.7562,0.2315,-0.102,0.6035,-0.4833,9.4985,-1.7849,-2.8076,-8.4229,-0.6104,99.0527,3.2574,-15.8643,0.7506,0.1232,-0.0681,0.6456,0.9092,0.4881,9.9723,-0.5493,0.0,-0.061,4.5374,-5.3668,-88.83,0.061,-0.0057,-0.6999,0.7116,48897,0,23050,58112,0,0,0,0,51468,40193,0,0,38400,0,0,0,0,0,0,0,29202,44548,0,0,0,0,19215,32515,0,0,0,0,38657,0,7168,0
1777287896.2594283,202295,1777287876.0786843,1777287894.244485,1777287876.6952665,0,0,-18165.80057144165,-616.5821552276611,1,1,0.0,0.0,0.0,0.0,0.0,0.0,0.0,0.0,0.0,0.0,0.0,0.0,0.0,0.0,0.0,0.0,0.0,0.0,0.0,0.0,0.0,0.0,0.0,0.0,0.0,0.0,0.0,0.0,0.0,0.0,0.0,0.0,0.0,0.0,0.0,0.0,0.0,0.0,0.0,0.0,0.0,0.0,0.0,0.0,0.0,0.0,0.0,0.0,0.0,0.0,0.0,0.0,0.0,0.0,0.0,0.0,0.0,0.0,0.0,0.0,0.0,0.0,0.0,0.0,0.0,0.0,0.0,0.0,0.0,0.0,0.0,0.0,0.0,0.0,0.0,-0.5551,9.5272,0.6364,-1.5869,-12.207,-2.7466,87.3688,1.4282,-28.6633,0.6669,0.1797,-0.1707,0.7027,0.8757,9.3263,-2.517,-3.54,-13.3057,1.0986,107.287,-6.9159,-23.1702,0.7947,0.1264,-0.1664,0.5699,1.8901,9.1875,-2.1629,-0.7324,-6.7139,0.7935,105.1721,-11.1621,-22.0605,0.7872,0.0932,-0.1915,0.5787,-0.8087,0.4546,9.9627,0.1221,-0.1831,0.1221,3.2739,4.9768,-140.4987,-0.0312,0.0415,-0.9395,0.3386,-1.4547,9.1062,-2.4452,-2.5024,-11.2305,2.1362,104.6448,7.1851,-28.4875,0.7562,0.2315,-0.102,0.6035,-0.4833,9.4985,-1.7849,-2.8076,-8.4229,-0.6104,99.0527,3.2574,-15.8643,0.7506,0.1232,-0.0681,0.6456,0.9092,0.4881,9.9723,-0.5493,0.0,-0.061,4.5374,-5.3668,-88.83,0.061,-0.0057,-0.6999,0.7116,48897,0,23050,58112,0,0,0,0,51468,40193,0,0,38400,0,0,0,0,0,0,0,29202,44548,0,0,0,0,19215,32515,0,0,0,0,38657,0,7168,0
1777287896.2600586,202296,1777287876.0889997,1777287894.244485,1777287876.6952665,0,0,-18155.485153198242,-606.2667369842529,1,1,0.0,0.0,0.0,0.0,0.0,0.0,0.0,0.0,0.0,0.0,0.0,0.0,0.0,0.0,0.0,0.0,0.0,0.0,0.0,0.0,0.0,0.0,0.0,0.0,0.0,0.0,0.0,0.0,0.0,0.0,0.0,0.0,0.0,0.0,0.0,0.0,0.0,0.0,0.0,0.0,0.0,0.0,0.0,0.0,0.0,0.0,0.0,0.0,0.0,0.0,0.0,0.0,0.0,0.0,0.0,0.0,0.0,0.0,0.0,0.0,0.0,0.0,0.0,0.0,0.0,0.0,0.0,0.0,0.0,0.0,0.0,0.0,0.0,0.0,0.0,-0.5551,9.5272,0.6364,-1.5869,-12.207,-2.7466,87.3688,1.4282,-28.6633,0.6669,0.1797,-0.1707,0.7027,0.8757,9.3263,-2.517,-3.54,-13.3057,1.0986,107.287,-6.9159,-23.1702,0.7947,0.1264,-0.1664,0.5699,1.8901,9.1875,-2.1629,-0.7324,-6.7139,0.7935,105.1721,-11.1621,-22.0605,0.7872,0.0932,-0.1915,0.5787,-0.8087,0.4546,9.9627,0.1221,-0.1831,0.1221,3.2739,4.9768,-140.4987,-0.0312,0.0415,-0.9395,0.3386,-1.4547,9.1062,-2.4452,-2.5024,-11.2305,2.1362,104.6448,7.1851,-28.4875,0.7562,0.2315,-0.102,0.6035,-0.4833,9.4985,-1.7849,-2.8076,-8.4229,-0.6104,99.0527,3.2574,-15.8643,0.7506,0.1232,-0.0681,0.6456,0.9092,0.4881,9.9723,-0.5493,0.0,-0.061,4.5374,-5.3668,-88.83,0.061,-0.0057,-0.6999,0.7116,48897,0,23050,58112,0,0,0,0,51468,40193,0,0,38400,0,0,0,0,0,0,0,29202,44548,0,0,0,0,19215,32515,0,0,0,0,38657,0,7168,0
1777287896.2600586,202297,1777287876.0989594,1777287894.244485,1777287876.6952665,0,0,-18145.525455474854,-596.3070392608643,1,1,0.0,0.0,0.0,0.0,0.0,0.0,0.0,0.0,0.0,0.0,0.0,0.0,0.0,0.0,0.0,0.0,0.0,0.0,0.0,0.0,0.0,0.0,0.0,0.0,0.0,0.0,0.0,0.0,0.0,0.0,0.0,0.0,0.0,0.0,0.0,0.0,0.0,0.0,0.0,0.0,0.0,0.0,0.0,0.0,0.0,0.0,0.0,0.0,0.0,0.0,0.0,0.0,0.0,0.0,0.0,0.0,0.0,0.0,0.0,0.0,0.0,0.0,0.0,0.0,0.0,0.0,0.0,0.0,0.0,0.0,0.0,0.0,0.0,0.0,0.0,-0.5551,9.5272,0.6364,-1.5869,-12.207,-2.7466,87.3688,1.4282,-28.6633,0.6669,0.1797,-0.1707,0.7027,0.8757,9.3263,-2.517,-3.54,-13.3057,1.0986,107.287,-6.9159,-23.1702,0.7947,0.1264,-0.1664,0.5699,1.8901,9.1875,-2.1629,-0.7324,-6.7139,0.7935,105.1721,-11.1621,-22.0605,0.7872,0.0932,-0.1915,0.5787,-0.8087,0.4546,9.9627,0.1221,-0.1831,0.1221,3.2739,4.9768,-140.4987,-0.0312,0.0415,-0.9395,0.3386,-1.4547,9.1062,-2.4452,-2.5024,-11.2305,2.1362,104.6448,7.1851,-28.4875,0.7562,0.2315,-0.102,0.6035,-0.4833,9.4985,-1.7849,-2.8076,-8.4229,-0.6104,99.0527,3.2574,-15.8643,0.7506,0.1232,-0.0681,0.6456,0.9092,0.4881,9.9723,-0.5493,0.0,-0.061,4.5374,-5.3668,-88.83,0.061,-0.0057,-0.6999,0.7116,48897,0,23050,58112,0,0,0,0,51468,40193,0,0,38400,0,0,0,0,0,0,0,29202,44548,0,0,0,0,19215,32515,0,0,0,0,38657,0,7168,0
1777287896.2600586,202298,1777287876.1091473,1777287894.244485,1777287876.6952665,0,0,-18135.337591171265,-586.1191749572754,1,1,0.0,0.0,0.0,0.0,0.0,0.0,0.0,0.0,0.0,0.0,0.0,0.0,0.0,0.0,0.0,0.0,0.0,0.0,0.0,0.0,0.0,0.0,0.0,0.0,0.0,0.0,0.0,0.0,0.0,0.0,0.0,0.0,0.0,0.0,0.0,0.0,0.0,0.0,0.0,0.0,0.0,0.0,0.0,0.0,0.0,0.0,0.0,0.0,0.0,0.0,0.0,0.0,0.0,0.0,0.0,0.0,0.0,0.0,0.0,0.0,0.0,0.0,0.0,0.0,0.0,0.0,0.0,0.0,0.0,0.0,0.0,0.0,0.0,0.0,0.0,-0.5551,9.5272,0.6364,-1.5869,-12.207,-2.7466,87.3688,1.4282,-28.6633,0.6669,0.1797,-0.1707,0.7027,0.8757,9.3263,-2.517,-3.54,-13.3057,1.0986,107.287,-6.9159,-23.1702,0.7947,0.1264,-0.1664,0.5699,1.8901,9.1875,-2.1629,-0.7324,-6.7139,0.7935,105.1721,-11.1621,-22.0605,0.7872,0.0932,-0.1915,0.5787,-0.8087,0.4546,9.9627,0.1221,-0.1831,0.1221,3.2739,4.9768,-140.4987,-0.0312,0.0415,-0.9395,0.3386,-1.4547,9.1062,-2.4452,-2.5024,-11.2305,2.1362,104.6448,7.1851,-28.4875,0.7562,0.2315,-0.102,0.6035,-0.4833,9.4985,-1.7849,-2.8076,-8.4229,-0.6104,99.0527,3.2574,-15.8643,0.7506,0.1232,-0.0681,0.6456,0.9092,0.4881,9.9723,-0.5493,0.0,-0.061,4.5374,-5.3668,-88.83,0.061,-0.0057,-0.6999,0.7116,48897,0,23050,58112,0,0,0,0,51468,40193,0,0,38400,0,0,0,0,0,0,0,29202,44548,0,0,0,0,19215,32515,0,0,0,0,38657,0,7168,0
1777287896.2600586,202299,1777287876.1187131,1777287894.244485,1777287876.6952665,0,0,-18125.77176094055,-576.5533447265625,1,1,0.0,0.0,0.0,0.0,0.0,0.0,0.0,0.0,0.0,0.0,0.0,0.0,0.0,0.0,0.0,0.0,0.0,0.0,0.0,0.0,0.0,0.0,0.0,0.0,0.0,0.0,0.0,0.0,0.0,0.0,0.0,0.0,0.0,0.0,0.0,0.0,0.0,0.0,0.0,0.0,0.0,0.0,0.0,0.0,0.0,0.0,0.0,0.0,0.0,0.0,0.0,0.0,0.0,0.0,0.0,0.0,0.0,0.0,0.0,0.0,0.0,0.0,0.0,0.0,0.0,0.0,0.0,0.0,0.0,0.0,0.0,0.0,0.0,0.0,0.0,-0.5551,9.5272,0.6364,-1.5869,-12.207,-2.7466,87.3688,1.4282,-28.6633,0.6669,0.1797,-0.1707,0.7027,0.8757,9.3263,-2.517,-3.54,-13.3057,1.0986,107.287,-6.9159,-23.1702,0.7947,0.1264,-0.1664,0.5699,1.8901,9.1875,-2.1629,-0.7324,-6.7139,0.7935,105.1721,-11.1621,-22.0605,0.7872,0.0932,-0.1915,0.5787,-0.8087,0.4546,9.9627,0.1221,-0.1831,0.1221,3.2739,4.9768,-140.4987,-0.0312,0.0415,-0.9395,0.3386,-1.4547,9.1062,-2.4452,-2.5024,-11.2305,2.1362,104.6448,7.1851,-28.4875,0.7562,0.2315,-0.102,0.6035,-0.4833,9.4985,-1.7849,-2.8076,-8.4229,-0.6104,99.0527,3.2574,-15.8643,0.7506,0.1232,-0.0681,0.6456,0.9092,0.4881,9.9723,-0.5493,0.0,-0.061,4.5374,-5.3668,-88.83,0.061,-0.0057,-0.6999,0.7116,48897,0,23050,58112,0,0,0,0,51468,40193,0,0,38400,0,0,0,0,0,0,0,29202,44548,0,0,0,0,19215,32515,0,0,0,0,38657,0,7168,0
1777287896.2600586,202300,1777287876.1293998,1777287894.244485,1777287876.6952665,0,0,-18115.085124969482,-565.8667087554932,1,1,0.0,0.0,0.0,0.0,0.0,0.0,0.0,0.0,0.0,0.0,0.0,0.0,0.0,0.0,0.0,0.0,0.0,0.0,0.0,0.0,0.0,0.0,0.0,0.0,0.0,0.0,0.0,0.0,0.0,0.0,0.0,0.0,0.0,0.0,0.0,0.0,0.0,0.0,0.0,0.0,0.0,0.0,0.0,0.0,0.0,0.0,0.0,0.0,0.0,0.0,0.0,0.0,0.0,0.0,0.0,0.0,0.0,0.0,0.0,0.0,0.0,0.0,0.0,0.0,0.0,0.0,0.0,0.0,0.0,0.0,0.0,0.0,0.0,0.0,0.0,-0.5551,9.5272,0.6364,-1.5869,-12.207,-2.7466,87.3688,1.4282,-28.6633,0.6669,0.1797,-0.1707,0.7027,0.8757,9.3263,-2.517,-3.54,-13.3057,1.0986,107.287,-6.9159,-23.1702,0.7947,0.1264,-0.1664,0.5699,1.8901,9.1875,-2.1629,-0.7324,-6.7139,0.7935,105.1721,-11.1621,-22.0605,0.7872,0.0932,-0.1915,0.5787,-0.8087,0.4546,9.9627,0.1221,-0.1831,0.1221,3.2739,4.9768,-140.4987,-0.0312,0.0415,-0.9395,0.3386,-1.4547,9.1062,-2.4452,-2.5024,-11.2305,2.1362,104.6448,7.1851,-28.4875,0.7562,0.2315,-0.102,0.6035,-0.4833,9.4985,-1.7849,-2.8076,-8.4229,-0.6104,99.0527,3.2574,-15.8643,0.7506,0.1232,-0.0681,0.6456,0.9092,0.4881,9.9723,-0.5493,0.0,-0.061,4.5374,-5.3668,-88.83,0.061,-0.0057,-0.6999,0.7116,48897,0,23050,58112,0,0,0,0,51468,40193,0,0,38400,0,0,0,0,0,0,0,29202,44548,0,0,0,0,19215,32515,0,0,0,0,38657,0,7168,0
1777287896.2600586,202301,1777287876.1380658,1777287894.244485,1777287876.6952665,0,0,-18106.4190864563,-557.2006702423096,1,1,0.0,0.0,0.0,0.0,0.0,0.0,0.0,0.0,0.0,0.0,0.0,0.0,0.0,0.0,0.0,0.0,0.0,0.0,0.0,0.0,0.0,0.0,0.0,0.0,0.0,0.0,0.0,0.0,0.0,0.0,0.0,0.0,0.0,0.0,0.0,0.0,0.0,0.0,0.0,0.0,0.0,0.0,0.0,0.0,0.0,0.0,0.0,0.0,0.0,0.0,0.0,0.0,0.0,0.0,0.0,0.0,0.0,0.0,0.0,0.0,0.0,0.0,0.0,0.0,0.0,0.0,0.0,0.0,0.0,0.0,0.0,0.0,0.0,0.0,0.0,-0.5551,9.5272,0.6364,-1.5869,-12.207,-2.7466,87.3688,1.4282,-28.6633,0.6669,0.1797,-0.1707,0.7027,0.8757,9.3263,-2.517,-3.54,-13.3057,1.0986,107.287,-6.9159,-23.1702,0.7947,0.1264,-0.1664,0.5699,1.8901,9.1875,-2.1629,-0.7324,-6.7139,0.7935,105.1721,-11.1621,-22.0605,0.7872,0.0932,-0.1915,0.5787,-0.8087,0.4546,9.9627,0.1221,-0.1831,0.1221,3.2739,4.9768,-140.4987,-0.0312,0.0415,-0.9395,0.3386,-1.4547,9.1062,-2.4452,-2.5024,-11.2305,2.1362,104.6448,7.1851,-28.4875,0.7562,0.2315,-0.102,0.6035,-0.4833,9.4985,-1.7849,-2.8076,-8.4229,-0.6104,99.0527,3.2574,-15.8643,0.7506,0.1232,-0.0681,0.6456,0.9092,0.4881,9.9723,-0.5493,0.0,-0.061,4.5374,-5.3668,-88.83,0.061,-0.0057,-0.6999,0.7116,48897,0,23050,58112,0,0,0,0,51468,40193,0,0,38400,0,0,0,0,0,0,0,29202,44548,0,0,0,0,19215,32515,0,0,0,0,38657,0,7168,0
1777287896.2600586,202302,1777287876.1551578,1777287894.244485,1777287876.6952665,0,0,-18089.327096939087,-540.1086807250977,1,1,0.0,0.0,0.0,0.0,0.0,0.0,0.0,0.0,0.0,0.0,0.0,0.0,0.0,0.0,0.0,0.0,0.0,0.0,0.0,0.0,0.0,0.0,0.0,0.0,0.0,0.0,0.0,0.0,0.0,0.0,0.0,0.0,0.0,0.0,0.0,0.0,0.0,0.0,0.0,0.0,0.0,0.0,0.0,0.0,0.0,0.0,0.0,0.0,0.0,0.0,0.0,0.0,0.0,0.0,0.0,0.0,0.0,0.0,0.0,0.0,0.0,0.0,0.0,0.0,0.0,0.0,0.0,0.0,0.0,0.0,0.0,0.0,0.0,0.0,0.0,-0.5551,9.5272,0.6364,-1.5869,-12.207,-2.7466,87.3688,1.4282,-28.6633,0.6669,0.1797,-0.1707,0.7027,0.8757,9.3263,-2.517,-3.54,-13.3057,1.0986,107.287,-6.9159,-23.1702,0.7947,0.1264,-0.1664,0.5699,1.8901,9.1875,-2.1629,-0.7324,-6.7139,0.7935,105.1721,-11.1621,-22.0605,0.7872,0.0932,-0.1915,0.5787,-0.8087,0.4546,9.9627,0.1221,-0.1831,0.1221,3.2739,4.9768,-140.4987,-0.0312,0.0415,-0.9395,0.3386,-1.4547,9.1062,-2.4452,-2.5024,-11.2305,2.1362,104.6448,7.1851,-28.4875,0.7562,0.2315,-0.102,0.6035,-0.4833,9.4985,-1.7849,-2.8076,-8.4229,-0.6104,99.0527,3.2574,-15.8643,0.7506,0.1232,-0.0681,0.6456,0.9092,0.4881,9.9723,-0.5493,0.0,-0.061,4.5374,-5.3668,-88.83,0.061,-0.0057,-0.6999,0.7116,48897,0,23050,58112,0,0,0,0,51468,40193,0,0,38400,0,0,0,0,0,0,0,29202,44548,0,0,0,0,19215,32515,0,0,0,0,38657,0,7168,0
1777287896.2600586,202303,1777287876.1579018,1777287894.244485,1777287876.6952665,0,0,-18086.583137512207,-537.3647212982178,1,1,0.0,0.0,0.0,0.0,0.0,0.0,0.0,0.0,0.0,0.0,0.0,0.0,0.0,0.0,0.0,0.0,0.0,0.0,0.0,0.0,0.0,0.0,0.0,0.0,0.0,0.0,0.0,0.0,0.0,0.0,0.0,0.0,0.0,0.0,0.0,0.0,0.0,0.0,0.0,0.0,0.0,0.0,0.0,0.0,0.0,0.0,0.0,0.0,0.0,0.0,0.0,0.0,0.0,0.0,0.0,0.0,0.0,0.0,0.0,0.0,0.0,0.0,0.0,0.0,0.0,0.0,0.0,0.0,0.0,0.0,0.0,0.0,0.0,0.0,0.0,-0.5551,9.5272,0.6364,-1.5869,-12.207,-2.7466,87.3688,1.4282,-28.6633,0.6669,0.1797,-0.1707,0.7027,0.8757,9.3263,-2.517,-3.54,-13.3057,1.0986,107.287,-6.9159,-23.1702,0.7947,0.1264,-0.1664,0.5699,1.8901,9.1875,-2.1629,-0.7324,-6.7139,0.7935,105.1721,-11.1621,-22.0605,0.7872,0.0932,-0.1915,0.5787,-0.8087,0.4546,9.9627,0.1221,-0.1831,0.1221,3.2739,4.9768,-140.4987,-0.0312,0.0415,-0.9395,0.3386,-1.4547,9.1062,-2.4452,-2.5024,-11.2305,2.1362,104.6448,7.1851,-28.4875,0.7562,0.2315,-0.102,0.6035,-0.4833,9.4985,-1.7849,-2.8076,-8.4229,-0.6104,99.0527,3.2574,-15.8643,0.7506,0.1232,-0.0681,0.6456,0.9092,0.4881,9.9723,-0.5493,0.0,-0.061,4.5374,-5.3668,-88.83,0.061,-0.0057,-0.6999,0.7116,48897,0,23050,58112,0,0,0,0,51468,40193,0,0,38400,0,0,0,0,0,0,0,29202,44548,0,0,0,0,19215,32515,0,0,0,0,38657,0,7168,0
1777287896.2600586,202304,1777287876.1686811,1777287894.244485,1777287876.6952665,0,0,-18075.803756713867,-526.5853404998779,1,1,0.0,0.0,0.0,0.0,0.0,0.0,0.0,0.0,0.0,0.0,0.0,0.0,0.0,0.0,0.0,0.0,0.0,0.0,0.0,0.0,0.0,0.0,0.0,0.0,0.0,0.0,0.0,0.0,0.0,0.0,0.0,0.0,0.0,0.0,0.0,0.0,0.0,0.0,0.0,0.0,0.0,0.0,0.0,0.0,0.0,0.0,0.0,0.0,0.0,0.0,0.0,0.0,0.0,0.0,0.0,0.0,0.0,0.0,0.0,0.0,0.0,0.0,0.0,0.0,0.0,0.0,0.0,0.0,0.0,0.0,0.0,0.0,0.0,0.0,0.0,-0.5551,9.5272,0.6364,-1.5869,-12.207,-2.7466,87.3688,1.4282,-28.6633,0.6669,0.1797,-0.1707,0.7027,0.8757,9.3263,-2.517,-3.54,-13.3057,1.0986,107.287,-6.9159,-23.1702,0.7947,0.1264,-0.1664,0.5699,1.8901,9.1875,-2.1629,-0.7324,-6.7139,0.7935,105.1721,-11.1621,-22.0605,0.7872,0.0932,-0.1915,0.5787,-0.8087,0.4546,9.9627,0.1221,-0.1831,0.1221,3.2739,4.9768,-140.4987,-0.0312,0.0415,-0.9395,0.3386,-1.4547,9.1062,-2.4452,-2.5024,-11.2305,2.1362,104.6448,7.1851,-28.4875,0.7562,0.2315,-0.102,0.6035,-0.4833,9.4985,-1.7849,-2.8076,-8.4229,-0.6104,99.0527,3.2574,-15.8643,0.7506,0.1232,-0.0681,0.6456,0.9092,0.4881,9.9723,-0.5493,0.0,-0.061,4.5374,-5.3668,-88.83,0.061,-0.0057,-0.6999,0.7116,48897,0,23050,58112,0,0,0,0,51468,40193,0,0,38400,0,0,0,0,0,0,0,29202,44548,0,0,0,0,19215,32515,0,0,0,0,38657,0,7168,0
1777287896.2600586,202305,1777287876.1790392,1777287894.244485,1777287876.6952665,0,0,-18065.4456615448,-516.2272453308105,1,1,0.0,0.0,0.0,0.0,0.0,0.0,0.0,0.0,0.0,0.0,0.0,0.0,0.0,0.0,0.0,0.0,0.0,0.0,0.0,0.0,0.0,0.0,0.0,0.0,0.0,0.0,0.0,0.0,0.0,0.0,0.0,0.0,0.0,0.0,0.0,0.0,0.0,0.0,0.0,0.0,0.0,0.0,0.0,0.0,0.0,0.0,0.0,0.0,0.0,0.0,0.0,0.0,0.0,0.0,0.0,0.0,0.0,0.0,0.0,0.0,0.0,0.0,0.0,0.0,0.0,0.0,0.0,0.0,0.0,0.0,0.0,0.0,0.0,0.0,0.0,-0.5551,9.5272,0.6364,-1.5869,-12.207,-2.7466,87.3688,1.4282,-28.6633,0.6669,0.1797,-0.1707,0.7027,0.8757,9.3263,-2.517,-3.54,-13.3057,1.0986,107.287,-6.9159,-23.1702,0.7947,0.1264,-0.1664,0.5699,1.8901,9.1875,-2.1629,-0.7324,-6.7139,0.7935,105.1721,-11.1621,-22.0605,0.7872,0.0932,-0.1915,0.5787,-0.8087,0.4546,9.9627,0.1221,-0.1831,0.1221,3.2739,4.9768,-140.4987,-0.0312,0.0415,-0.9395,0.3386,-1.4547,9.1062,-2.4452,-2.5024,-11.2305,2.1362,104.6448,7.1851,-28.4875,0.7562,0.2315,-0.102,0.6035,-0.4833,9.4985,-1.7849,-2.8076,-8.4229,-0.6104,99.0527,3.2574,-15.8643,0.7506,0.1232,-0.0681,0.6456,0.9092,0.4881,9.9723,-0.5493,0.0,-0.061,4.5374,-5.3668,-88.83,0.061,-0.0057,-0.6999,0.7116,48897,0,23050,58112,0,0,0,0,51468,40193,0,0,38400,0,0,0,0,0,0,0,29202,44548,0,0,0,0,19215,32515,0,0,0,0,38657,0,7168,0
1777287896.2615714,202306,1777287876.1883402,1777287894.244485,1777287876.6952665,0,0,-18056.14471435547,-506.9262981414795,1,1,0.0,0.0,0.0,0.0,0.0,0.0,0.0,0.0,0.0,0.0,0.0,0.0,0.0,0.0,0.0,0.0,0.0,0.0,0.0,0.0,0.0,0.0,0.0,0.0,0.0,0.0,0.0,0.0,0.0,0.0,0.0,0.0,0.0,0.0,0.0,0.0,0.0,0.0,0.0,0.0,0.0,0.0,0.0,0.0,0.0,0.0,0.0,0.0,0.0,0.0,0.0,0.0,0.0,0.0,0.0,0.0,0.0,0.0,0.0,0.0,0.0,0.0,0.0,0.0,0.0,0.0,0.0,0.0,0.0,0.0,0.0,0.0,0.0,0.0,0.0,-0.5551,9.5272,0.6364,-1.5869,-12.207,-2.7466,87.3688,1.4282,-28.6633,0.6669,0.1797,-0.1707,0.7027,0.8757,9.3263,-2.517,-3.54,-13.3057,1.0986,107.287,-6.9159,-23.1702,0.7947,0.1264,-0.1664,0.5699,1.8901,9.1875,-2.1629,-0.7324,-6.7139,0.7935,105.1721,-11.1621,-22.0605,0.7872,0.0932,-0.1915,0.5787,-0.8087,0.4546,9.9627,0.1221,-0.1831,0.1221,3.2739,4.9768,-140.4987,-0.0312,0.0415,-0.9395,0.3386,-1.4547,9.1062,-2.4452,-2.5024,-11.2305,2.1362,104.6448,7.1851,-28.4875,0.7562,0.2315,-0.102,0.6035,-0.4833,9.4985,-1.7849,-2.8076,-8.4229,-0.6104,99.0527,3.2574,-15.8643,0.7506,0.1232,-0.0681,0.6456,0.9092,0.4881,9.9723,-0.5493,0.0,-0.061,4.5374,-5.3668,-88.83,0.061,-0.0057,-0.6999,0.7116,48897,0,23050,58112,0,0,0,0,51468,40193,0,0,38400,0,0,0,0,0,0,0,29202,44548,0,0,0,0,19215,32515,0,0,0,0,38657,0,7168,0
1777287896.2615714,202307,1777287876.2064013,1777287894.244485,1777287876.6952665,0,0,-18038.08355331421,-488.8651371002197,1,1,0.0,0.0,0.0,0.0,0.0,0.0,0.0,0.0,0.0,0.0,0.0,0.0,0.0,0.0,0.0,0.0,0.0,0.0,0.0,0.0,0.0,0.0,0.0,0.0,0.0,0.0,0.0,0.0,0.0,0.0,0.0,0.0,0.0,0.0,0.0,0.0,0.0,0.0,0.0,0.0,0.0,0.0,0.0,0.0,0.0,0.0,0.0,0.0,0.0,0.0,0.0,0.0,0.0,0.0,0.0,0.0,0.0,0.0,0.0,0.0,0.0,0.0,0.0,0.0,0.0,0.0,0.0,0.0,0.0,0.0,0.0,0.0,0.0,0.0,0.0,-0.5551,9.5272,0.6364,-1.5869,-12.207,-2.7466,87.3688,1.4282,-28.6633,0.6669,0.1797,-0.1707,0.7027,0.8757,9.3263,-2.517,-3.54,-13.3057,1.0986,107.287,-6.9159,-23.1702,0.7947,0.1264,-0.1664,0.5699,1.8901,9.1875,-2.1629,-0.7324,-6.7139,0.7935,105.1721,-11.1621,-22.0605,0.7872,0.0932,-0.1915,0.5787,-0.8087,0.4546,9.9627,0.1221,-0.1831,0.1221,3.2739,4.9768,-140.4987,-0.0312,0.0415,-0.9395,0.3386,-1.4547,9.1062,-2.4452,-2.5024,-11.2305,2.1362,104.6448,7.1851,-28.4875,0.7562,0.2315,-0.102,0.6035,-0.4833,9.4985,-1.7849,-2.8076,-8.4229,-0.6104,99.0527,3.2574,-15.8643,0.7506,0.1232,-0.0681,0.6456,0.9092,0.4881,9.9723,-0.5493,0.0,-0.061,4.5374,-5.3668,-88.83,0.061,-0.0057,-0.6999,0.7116,48897,0,23050,58112,0,0,0,0,51468,40193,0,0,38400,0,0,0,0,0,0,0,29202,44548,0,0,0,0,19215,32515,0,0,0,0,38657,0,7168,0
1777287896.2615714,202308,1777287876.2089543,1777287894.244485,1777287876.6952665,0,0,-18035.53056716919,-486.3121509552002,1,1,0.0,0.0,0.0,0.0,0.0,0.0,0.0,0.0,0.0,0.0,0.0,0.0,0.0,0.0,0.0,0.0,0.0,0.0,0.0,0.0,0.0,0.0,0.0,0.0,0.0,0.0,0.0,0.0,0.0,0.0,0.0,0.0,0.0,0.0,0.0,0.0,0.0,0.0,0.0,0.0,0.0,0.0,0.0,0.0,0.0,0.0,0.0,0.0,0.0,0.0,0.0,0.0,0.0,0.0,0.0,0.0,0.0,0.0,0.0,0.0,0.0,0.0,0.0,0.0,0.0,0.0,0.0,0.0,0.0,0.0,0.0,0.0,0.0,0.0,0.0,-0.5551,9.5272,0.6364,-1.5869,-12.207,-2.7466,87.3688,1.4282,-28.6633,0.6669,0.1797,-0.1707,0.7027,0.8757,9.3263,-2.517,-3.54,-13.3057,1.0986,107.287,-6.9159,-23.1702,0.7947,0.1264,-0.1664,0.5699,1.8901,9.1875,-2.1629,-0.7324,-6.7139,0.7935,105.1721,-11.1621,-22.0605,0.7872,0.0932,-0.1915,0.5787,-0.8087,0.4546,9.9627,0.1221,-0.1831,0.1221,3.2739,4.9768,-140.4987,-0.0312,0.0415,-0.9395,0.3386,-1.4547,9.1062,-2.4452,-2.5024,-11.2305,2.1362,104.6448,7.1851,-28.4875,0.7562,0.2315,-0.102,0.6035,-0.4833,9.4985,-1.7849,-2.8076,-8.4229,-0.6104,99.0527,3.2574,-15.8643,0.7506,0.1232,-0.0681,0.6456,0.9092,0.4881,9.9723,-0.5493,0.0,-0.061,4.5374,-5.3668,-88.83,0.061,-0.0057,-0.6999,0.7116,48897,0,23050,58112,0,0,0,0,51468,40193,0,0,38400,0,0,0,0,0,0,0,29202,44548,0,0,0,0,19215,32515,0,0,0,0,38657,0,7168,0
1777287896.2615714,202309,1777287876.220329,1777287894.244485,1777287876.6952665,0,0,-18024.155855178833,-474.93743896484375,1,1,0.0,0.0,0.0,0.0,0.0,0.0,0.0,0.0,0.0,0.0,0.0,0.0,0.0,0.0,0.0,0.0,0.0,0.0,0.0,0.0,0.0,0.0,0.0,0.0,0.0,0.0,0.0,0.0,0.0,0.0,0.0,0.0,0.0,0.0,0.0,0.0,0.0,0.0,0.0,0.0,0.0,0.0,0.0,0.0,0.0,0.0,0.0,0.0,0.0,0.0,0.0,0.0,0.0,0.0,0.0,0.0,0.0,0.0,0.0,0.0,0.0,0.0,0.0,0.0,0.0,0.0,0.0,0.0,0.0,0.0,0.0,0.0,0.0,0.0,0.0,-0.5551,9.5272,0.6364,-1.5869,-12.207,-2.7466,87.3688,1.4282,-28.6633,0.6669,0.1797,-0.1707,0.7027,0.8757,9.3263,-2.517,-3.54,-13.3057,1.0986,107.287,-6.9159,-23.1702,0.7947,0.1264,-0.1664,0.5699,1.8901,9.1875,-2.1629,-0.7324,-6.7139,0.7935,105.1721,-11.1621,-22.0605,0.7872,0.0932,-0.1915,0.5787,-0.8087,0.4546,9.9627,0.1221,-0.1831,0.1221,3.2739,4.9768,-140.4987,-0.0312,0.0415,-0.9395,0.3386,-1.4547,9.1062,-2.4452,-2.5024,-11.2305,2.1362,104.6448,7.1851,-28.4875,0.7562,0.2315,-0.102,0.6035,-0.4833,9.4985,-1.7849,-2.8076,-8.4229,-0.6104,99.0527,3.2574,-15.8643,0.7506,0.1232,-0.0681,0.6456,0.9092,0.4881,9.9723,-0.5493,0.0,-0.061,4.5374,-5.3668,-88.83,0.061,-0.0057,-0.6999,0.7116,48897,0,23050,58112,0,0,0,0,51468,40193,0,0,38400,0,0,0,0,0,0,0,29202,44548,0,0,0,0,19215,32515,0,0,0,0,38657,0,7168,0
1777287896.2615714,202310,1777287876.2288465,1777287894.244485,1777287876.6952665,0,0,-18015.63835144043,-466.41993522644043,1,1,0.0,0.0,0.0,0.0,0.0,0.0,0.0,0.0,0.0,0.0,0.0,0.0,0.0,0.0,0.0,0.0,0.0,0.0,0.0,0.0,0.0,0.0,0.0,0.0,0.0,0.0,0.0,0.0,0.0,0.0,0.0,0.0,0.0,0.0,0.0,0.0,0.0,0.0,0.0,0.0,0.0,0.0,0.0,0.0,0.0,0.0,0.0,0.0,0.0,0.0,0.0,0.0,0.0,0.0,0.0,0.0,0.0,0.0,0.0,0.0,0.0,0.0,0.0,0.0,0.0,0.0,0.0,0.0,0.0,0.0,0.0,0.0,0.0,0.0,0.0,-0.5551,9.5272,0.6364,-1.5869,-12.207,-2.7466,87.3688,1.4282,-28.6633,0.6669,0.1797,-0.1707,0.7027,0.8757,9.3263,-2.517,-3.54,-13.3057,1.0986,107.287,-6.9159,-23.1702,0.7947,0.1264,-0.1664,0.5699,1.8901,9.1875,-2.1629,-0.7324,-6.7139,0.7935,105.1721,-11.1621,-22.0605,0.7872,0.0932,-0.1915,0.5787,-0.8087,0.4546,9.9627,0.1221,-0.1831,0.1221,3.2739,4.9768,-140.4987,-0.0312,0.0415,-0.9395,0.3386,-1.4547,9.1062,-2.4452,-2.5024,-11.2305,2.1362,104.6448,7.1851,-28.4875,0.7562,0.2315,-0.102,0.6035,-0.4833,9.4985,-1.7849,-2.8076,-8.4229,-0.6104,99.0527,3.2574,-15.8643,0.7506,0.1232,-0.0681,0.6456,0.9092,0.4881,9.9723,-0.5493,0.0,-0.061,4.5374,-5.3668,-88.83,0.061,-0.0057,-0.6999,0.7116,48897,0,23050,58112,0,0,0,0,51468,40193,0,0,38400,0,0,0,0,0,0,0,29202,44548,0,0,0,0,19215,32515,0,0,0,0,38657,0,7168,0
1777287896.2620938,202311,1777287876.239163,1777287894.244485,1777287876.6952665,0,0,-18005.321979522705,-456.1035633087158,1,1,0.0,0.0,0.0,0.0,0.0,0.0,0.0,0.0,0.0,0.0,0.0,0.0,0.0,0.0,0.0,0.0,0.0,0.0,0.0,0.0,0.0,0.0,0.0,0.0,0.0,0.0,0.0,0.0,0.0,0.0,0.0,0.0,0.0,0.0,0.0,0.0,0.0,0.0,0.0,0.0,0.0,0.0,0.0,0.0,0.0,0.0,0.0,0.0,0.0,0.0,0.0,0.0,0.0,0.0,0.0,0.0,0.0,0.0,0.0,0.0,0.0,0.0,0.0,0.0,0.0,0.0,0.0,0.0,0.0,0.0,0.0,0.0,0.0,0.0,0.0,-0.5551,9.5272,0.6364,-1.5869,-12.207,-2.7466,87.3688,1.4282,-28.6633,0.6669,0.1797,-0.1707,0.7027,0.8757,9.3263,-2.517,-3.54,-13.3057,1.0986,107.287,-6.9159,-23.1702,0.7947,0.1264,-0.1664,0.5699,1.8901,9.1875,-2.1629,-0.7324,-6.7139,0.7935,105.1721,-11.1621,-22.0605,0.7872,0.0932,-0.1915,0.5787,-0.8087,0.4546,9.9627,0.1221,-0.1831,0.1221,3.2739,4.9768,-140.4987,-0.0312,0.0415,-0.9395,0.3386,-1.4547,9.1062,-2.4452,-2.5024,-11.2305,2.1362,104.6448,7.1851,-28.4875,0.7562,0.2315,-0.102,0.6035,-0.4833,9.4985,-1.7849,-2.8076,-8.4229,-0.6104,99.0527,3.2574,-15.8643,0.7506,0.1232,-0.0681,0.6456,0.9092,0.4881,9.9723,-0.5493,0.0,-0.061,4.5374,-5.3668,-88.83,0.061,-0.0057,-0.6999,0.7116,48897,0,23050,58112,0,0,0,0,51468,40193,0,0,38400,0,0,0,0,0,0,0,29202,44548,0,0,0,0,19215,32515,0,0,0,0,38657,0,7168,0
1777287896.2620938,202312,1777287876.248686,1777287894.244485,1777287876.6952665,0,0,-17995.79882621765,-446.5804100036621,1,1,0.0,0.0,0.0,0.0,0.0,0.0,0.0,0.0,0.0,0.0,0.0,0.0,0.0,0.0,0.0,0.0,0.0,0.0,0.0,0.0,0.0,0.0,0.0,0.0,0.0,0.0,0.0,0.0,0.0,0.0,0.0,0.0,0.0,0.0,0.0,0.0,0.0,0.0,0.0,0.0,0.0,0.0,0.0,0.0,0.0,0.0,0.0,0.0,0.0,0.0,0.0,0.0,0.0,0.0,0.0,0.0,0.0,0.0,0.0,0.0,0.0,0.0,0.0,0.0,0.0,0.0,0.0,0.0,0.0,0.0,0.0,0.0,0.0,0.0,0.0,-0.5551,9.5272,0.6364,-1.5869,-12.207,-2.7466,87.3688,1.4282,-28.6633,0.6669,0.1797,-0.1707,0.7027,0.8757,9.3263,-2.517,-3.54,-13.3057,1.0986,107.287,-6.9159,-23.1702,0.7947,0.1264,-0.1664,0.5699,1.8901,9.1875,-2.1629,-0.7324,-6.7139,0.7935,105.1721,-11.1621,-22.0605,0.7872,0.0932,-0.1915,0.5787,-0.8087,0.4546,9.9627,0.1221,-0.1831,0.1221,3.2739,4.9768,-140.4987,-0.0312,0.0415,-0.9395,0.3386,-1.4547,9.1062,-2.4452,-2.5024,-11.2305,2.1362,104.6448,7.1851,-28.4875,0.7562,0.2315,-0.102,0.6035,-0.4833,9.4985,-1.7849,-2.8076,-8.4229,-0.6104,99.0527,3.2574,-15.8643,0.7506,0.1232,-0.0681,0.6456,0.9092,0.4881,9.9723,-0.5493,0.0,-0.061,4.5374,-5.3668,-88.83,0.061,-0.0057,-0.6999,0.7116,48897,0,23050,58112,0,0,0,0,51468,40193,0,0,38400,0,0,0,0,0,0,0,29202,44548,0,0,0,0,19215,32515,0,0,0,0,38657,0,7168,0
1777287896.2620938,202313,1777287876.2592258,1777287894.244485,1777287876.6952665,0,0,-17985.25905609131,-436.04063987731934,1,1,0.0,0.0,0.0,0.0,0.0,0.0,0.0,0.0,0.0,0.0,0.0,0.0,0.0,0.0,0.0,0.0,0.0,0.0,0.0,0.0,0.0,0.0,0.0,0.0,0.0,0.0,0.0,0.0,0.0,0.0,0.0,0.0,0.0,0.0,0.0,0.0,0.0,0.0,0.0,0.0,0.0,0.0,0.0,0.0,0.0,0.0,0.0,0.0,0.0,0.0,0.0,0.0,0.0,0.0,0.0,0.0,0.0,0.0,0.0,0.0,0.0,0.0,0.0,0.0,0.0,0.0,0.0,0.0,0.0,0.0,0.0,0.0,0.0,0.0,0.0,-0.5551,9.5272,0.6364,-1.5869,-12.207,-2.7466,87.3688,1.4282,-28.6633,0.6669,0.1797,-0.1707,0.7027,0.8757,9.3263,-2.517,-3.54,-13.3057,1.0986,107.287,-6.9159,-23.1702,0.7947,0.1264,-0.1664,0.5699,1.8901,9.1875,-2.1629,-0.7324,-6.7139,0.7935,105.1721,-11.1621,-22.0605,0.7872,0.0932,-0.1915,0.5787,-0.8087,0.4546,9.9627,0.1221,-0.1831,0.1221,3.2739,4.9768,-140.4987,-0.0312,0.0415,-0.9395,0.3386,-1.4547,9.1062,-2.4452,-2.5024,-11.2305,2.1362,104.6448,7.1851,-28.4875,0.7562,0.2315,-0.102,0.6035,-0.4833,9.4985,-1.7849,-2.8076,-8.4229,-0.6104,99.0527,3.2574,-15.8643,0.7506,0.1232,-0.0681,0.6456,0.9092,0.4881,9.9723,-0.5493,0.0,-0.061,4.5374,-5.3668,-88.83,0.061,-0.0057,-0.6999,0.7116,48897,0,23050,58112,0,0,0,0,51468,40193,0,0,38400,0,0,0,0,0,0,0,29202,44548,0,0,0,0,19215,32515,0,0,0,0,38657,0,7168,0
1777287896.2620938,202314,1777287876.2762911,1777287894.244485,1777287876.6952665,0,0,-17968.193769454956,-418.9753532409668,1,1,0.0,0.0,0.0,0.0,0.0,0.0,0.0,0.0,0.0,0.0,0.0,0.0,0.0,0.0,0.0,0.0,0.0,0.0,0.0,0.0,0.0,0.0,0.0,0.0,0.0,0.0,0.0,0.0,0.0,0.0,0.0,0.0,0.0,0.0,0.0,0.0,0.0,0.0,0.0,0.0,0.0,0.0,0.0,0.0,0.0,0.0,0.0,0.0,0.0,0.0,0.0,0.0,0.0,0.0,0.0,0.0,0.0,0.0,0.0,0.0,0.0,0.0,0.0,0.0,0.0,0.0,0.0,0.0,0.0,0.0,0.0,0.0,0.0,0.0,0.0,-0.5551,9.5272,0.6364,-1.5869,-12.207,-2.7466,87.3688,1.4282,-28.6633,0.6669,0.1797,-0.1707,0.7027,0.8757,9.3263,-2.517,-3.54,-13.3057,1.0986,107.287,-6.9159,-23.1702,0.7947,0.1264,-0.1664,0.5699,1.8901,9.1875,-2.1629,-0.7324,-6.7139,0.7935,105.1721,-11.1621,-22.0605,0.7872,0.0932,-0.1915,0.5787,-0.8087,0.4546,9.9627,0.1221,-0.1831,0.1221,3.2739,4.9768,-140.4987,-0.0312,0.0415,-0.9395,0.3386,-1.4547,9.1062,-2.4452,-2.5024,-11.2305,2.1362,104.6448,7.1851,-28.4875,0.7562,0.2315,-0.102,0.6035,-0.4833,9.4985,-1.7849,-2.8076,-8.4229,-0.6104,99.0527,3.2574,-15.8643,0.7506,0.1232,-0.0681,0.6456,0.9092,0.4881,9.9723,-0.5493,0.0,-0.061,4.5374,-5.3668,-88.83,0.061,-0.0057,-0.6999,0.7116,48897,0,23050,58112,0,0,0,0,51468,40193,0,0,38400,0,0,0,0,0,0,0,29202,44548,0,0,0,0,19215,32515,0,0,0,0,38657,0,7168,0
1777287896.2620938,202315,1777287876.2783008,1777287894.244485,1777287876.6952665,0,0,-17966.18413925171,-416.9657230377197,1,1,0.0,0.0,0.0,0.0,0.0,0.0,0.0,0.0,0.0,0.0,0.0,0.0,0.0,0.0,0.0,0.0,0.0,0.0,0.0,0.0,0.0,0.0,0.0,0.0,0.0,0.0,0.0,0.0,0.0,0.0,0.0,0.0,0.0,0.0,0.0,0.0,0.0,0.0,0.0,0.0,0.0,0.0,0.0,0.0,0.0,0.0,0.0,0.0,0.0,0.0,0.0,0.0,0.0,0.0,0.0,0.0,0.0,0.0,0.0,0.0,0.0,0.0,0.0,0.0,0.0,0.0,0.0,0.0,0.0,0.0,0.0,0.0,0.0,0.0,0.0,-0.5551,9.5272,0.6364,-1.5869,-12.207,-2.7466,87.3688,1.4282,-28.6633,0.6669,0.1797,-0.1707,0.7027,0.8757,9.3263,-2.517,-3.54,-13.3057,1.0986,107.287,-6.9159,-23.1702,0.7947,0.1264,-0.1664,0.5699,1.8901,9.1875,-2.1629,-0.7324,-6.7139,0.7935,105.1721,-11.1621,-22.0605,0.7872,0.0932,-0.1915,0.5787,-0.8087,0.4546,9.9627,0.1221,-0.1831,0.1221,3.2739,4.9768,-140.4987,-0.0312,0.0415,-0.9395,0.3386,-1.4547,9.1062,-2.4452,-2.5024,-11.2305,2.1362,104.6448,7.1851,-28.4875,0.7562,0.2315,-0.102,0.6035,-0.4833,9.4985,-1.7849,-2.8076,-8.4229,-0.6104,99.0527,3.2574,-15.8643,0.7506,0.1232,-0.0681,0.6456,0.9092,0.4881,9.9723,-0.5493,0.0,-0.061,4.5374,-5.3668,-88.83,0.061,-0.0057,-0.6999,0.7116,48897,0,23050,58112,0,0,0,0,51468,40193,0,0,38400,0,0,0,0,0,0,0,29202,44548,0,0,0,0,19215,32515,0,0,0,0,38657,0,7168,0
1777287896.2620938,202316,1777287876.289053,1777287894.244485,1777287876.6952665,0,0,-17955.431938171387,-406.21352195739746,1,1,0.0,0.0,0.0,0.0,0.0,0.0,0.0,0.0,0.0,0.0,0.0,0.0,0.0,0.0,0.0,0.0,0.0,0.0,0.0,0.0,0.0,0.0,0.0,0.0,0.0,0.0,0.0,0.0,0.0,0.0,0.0,0.0,0.0,0.0,0.0,0.0,0.0,0.0,0.0,0.0,0.0,0.0,0.0,0.0,0.0,0.0,0.0,0.0,0.0,0.0,0.0,0.0,0.0,0.0,0.0,0.0,0.0,0.0,0.0,0.0,0.0,0.0,0.0,0.0,0.0,0.0,0.0,0.0,0.0,0.0,0.0,0.0,0.0,0.0,0.0,-0.5551,9.5272,0.6364,-1.5869,-12.207,-2.7466,87.3688,1.4282,-28.6633,0.6669,0.1797,-0.1707,0.7027,0.8757,9.3263,-2.517,-3.54,-13.3057,1.0986,107.287,-6.9159,-23.1702,0.7947,0.1264,-0.1664,0.5699,1.8901,9.1875,-2.1629,-0.7324,-6.7139,0.7935,105.1721,-11.1621,-22.0605,0.7872,0.0932,-0.1915,0.5787,-0.8087,0.4546,9.9627,0.1221,-0.1831,0.1221,3.2739,4.9768,-140.4987,-0.0312,0.0415,-0.9395,0.3386,-1.4547,9.1062,-2.4452,-2.5024,-11.2305,2.1362,104.6448,7.1851,-28.4875,0.7562,0.2315,-0.102,0.6035,-0.4833,9.4985,-1.7849,-2.8076,-8.4229,-0.6104,99.0527,3.2574,-15.8643,0.7506,0.1232,-0.0681,0.6456,0.9092,0.4881,9.9723,-0.5493,0.0,-0.061,4.5374,-5.3668,-88.83,0.061,-0.0057,-0.6999,0.7116,48897,0,23050,58112,0,0,0,0,51468,40193,0,0,38400,0,0,0,0,0,0,0,29202,44548,0,0,0,0,19215,32515,0,0,0,0,38657,0,7168,0
1777287896.2620938,202317,1777287876.29816,1777287894.244485,1777287876.6952665,0,0,-17946.324825286865,-397.106409072876,1,1,0.0,0.0,0.0,0.0,0.0,0.0,0.0,0.0,0.0,0.0,0.0,0.0,0.0,0.0,0.0,0.0,0.0,0.0,0.0,0.0,0.0,0.0,0.0,0.0,0.0,0.0,0.0,0.0,0.0,0.0,0.0,0.0,0.0,0.0,0.0,0.0,0.0,0.0,0.0,0.0,0.0,0.0,0.0,0.0,0.0,0.0,0.0,0.0,0.0,0.0,0.0,0.0,0.0,0.0,0.0,0.0,0.0,0.0,0.0,0.0,0.0,0.0,0.0,0.0,0.0,0.0,0.0,0.0,0.0,0.0,0.0,0.0,0.0,0.0,0.0,-0.5551,9.5272,0.6364,-1.5869,-12.207,-2.7466,87.3688,1.4282,-28.6633,0.6669,0.1797,-0.1707,0.7027,0.8757,9.3263,-2.517,-3.54,-13.3057,1.0986,107.287,-6.9159,-23.1702,0.7947,0.1264,-0.1664,0.5699,1.8901,9.1875,-2.1629,-0.7324,-6.7139,0.7935,105.1721,-11.1621,-22.0605,0.7872,0.0932,-0.1915,0.5787,-0.8087,0.4546,9.9627,0.1221,-0.1831,0.1221,3.2739,4.9768,-140.4987,-0.0312,0.0415,-0.9395,0.3386,-1.4547,9.1062,-2.4452,-2.5024,-11.2305,2.1362,104.6448,7.1851,-28.4875,0.7562,0.2315,-0.102,0.6035,-0.4833,9.4985,-1.7849,-2.8076,-8.4229,-0.6104,99.0527,3.2574,-15.8643,0.7506,0.1232,-0.0681,0.6456,0.9092,0.4881,9.9723,-0.5493,0.0,-0.061,4.5374,-5.3668,-88.83,0.061,-0.0057,-0.6999,0.7116,48897,0,23050,58112,0,0,0,0,51468,40193,0,0,38400,0,0,0,0,0,0,0,29202,44548,0,0,0,0,19215,32515,0,0,0,0,38657,0,7168,0
1777287896.2620938,202318,1777287876.3089285,1777287894.244485,1777287876.6952665,0,0,-17935.556411743164,-386.3379955291748,1,1,0.0,0.0,0.0,0.0,0.0,0.0,0.0,0.0,0.0,0.0,0.0,0.0,0.0,0.0,0.0,0.0,0.0,0.0,0.0,0.0,0.0,0.0,0.0,0.0,0.0,0.0,0.0,0.0,0.0,0.0,0.0,0.0,0.0,0.0,0.0,0.0,0.0,0.0,0.0,0.0,0.0,0.0,0.0,0.0,0.0,0.0,0.0,0.0,0.0,0.0,0.0,0.0,0.0,0.0,0.0,0.0,0.0,0.0,0.0,0.0,0.0,0.0,0.0,0.0,0.0,0.0,0.0,0.0,0.0,0.0,0.0,0.0,0.0,0.0,0.0,-0.5551,9.5272,0.6364,-1.5869,-12.207,-2.7466,87.3688,1.4282,-28.6633,0.6669,0.1797,-0.1707,0.7027,0.8757,9.3263,-2.517,-3.54,-13.3057,1.0986,107.287,-6.9159,-23.1702,0.7947,0.1264,-0.1664,0.5699,1.8901,9.1875,-2.1629,-0.7324,-6.7139,0.7935,105.1721,-11.1621,-22.0605,0.7872,0.0932,-0.1915,0.5787,-0.8087,0.4546,9.9627,0.1221,-0.1831,0.1221,3.2739,4.9768,-140.4987,-0.0312,0.0415,-0.9395,0.3386,-1.4547,9.1062,-2.4452,-2.5024,-11.2305,2.1362,104.6448,7.1851,-28.4875,0.7562,0.2315,-0.102,0.6035,-0.4833,9.4985,-1.7849,-2.8076,-8.4229,-0.6104,99.0527,3.2574,-15.8643,0.7506,0.1232,-0.0681,0.6456,0.9092,0.4881,9.9723,-0.5493,0.0,-0.061,4.5374,-5.3668,-88.83,0.061,-0.0057,-0.6999,0.7116,48897,0,23050,58112,0,0,0,0,51468,40193,0,0,38400,0,0,0,0,0,0,0,29202,44548,0,0,0,0,19215,32515,0,0,0,0,38657,0,7168,0
1777287896.2631078,202319,1777287876.3193607,1777287894.244485,1777287876.6952665,0,0,-17925.124168395996,-375.90575218200684,1,1,0.0,0.0,0.0,0.0,0.0,0.0,0.0,0.0,0.0,0.0,0.0,0.0,0.0,0.0,0.0,0.0,0.0,0.0,0.0,0.0,0.0,0.0,0.0,0.0,0.0,0.0,0.0,0.0,0.0,0.0,0.0,0.0,0.0,0.0,0.0,0.0,0.0,0.0,0.0,0.0,0.0,0.0,0.0,0.0,0.0,0.0,0.0,0.0,0.0,0.0,0.0,0.0,0.0,0.0,0.0,0.0,0.0,0.0,0.0,0.0,0.0,0.0,0.0,0.0,0.0,0.0,0.0,0.0,0.0,0.0,0.0,0.0,0.0,0.0,0.0,-0.5551,9.5272,0.6364,-1.5869,-12.207,-2.7466,87.3688,1.4282,-28.6633,0.6669,0.1797,-0.1707,0.7027,0.8757,9.3263,-2.517,-3.54,-13.3057,1.0986,107.287,-6.9159,-23.1702,0.7947,0.1264,-0.1664,0.5699,1.8901,9.1875,-2.1629,-0.7324,-6.7139,0.7935,105.1721,-11.1621,-22.0605,0.7872,0.0932,-0.1915,0.5787,-0.8087,0.4546,9.9627,0.1221,-0.1831,0.1221,3.2739,4.9768,-140.4987,-0.0312,0.0415,-0.9395,0.3386,-1.4547,9.1062,-2.4452,-2.5024,-11.2305,2.1362,104.6448,7.1851,-28.4875,0.7562,0.2315,-0.102,0.6035,-0.4833,9.4985,-1.7849,-2.8076,-8.4229,-0.6104,99.0527,3.2574,-15.8643,0.7506,0.1232,-0.0681,0.6456,0.9092,0.4881,9.9723,-0.5493,0.0,-0.061,4.5374,-5.3668,-88.83,0.061,-0.0057,-0.6999,0.7116,48897,0,23050,58112,0,0,0,0,51468,40193,0,0,38400,0,0,0,0,0,0,0,29202,44548,0,0,0,0,19215,32515,0,0,0,0,38657,0,7168,0
1777287896.2631078,202320,1777287876.3288093,1777287894.244485,1777287876.6952665,0,0,-17915.6756401062,-366.4572238922119,1,1,0.0,0.0,0.0,0.0,0.0,0.0,0.0,0.0,0.0,0.0,0.0,0.0,0.0,0.0,0.0,0.0,0.0,0.0,0.0,0.0,0.0,0.0,0.0,0.0,0.0,0.0,0.0,0.0,0.0,0.0,0.0,0.0,0.0,0.0,0.0,0.0,0.0,0.0,0.0,0.0,0.0,0.0,0.0,0.0,0.0,0.0,0.0,0.0,0.0,0.0,0.0,0.0,0.0,0.0,0.0,0.0,0.0,0.0,0.0,0.0,0.0,0.0,0.0,0.0,0.0,0.0,0.0,0.0,0.0,0.0,0.0,0.0,0.0,0.0,0.0,-0.5551,9.5272,0.6364,-1.5869,-12.207,-2.7466,87.3688,1.4282,-28.6633,0.6669,0.1797,-0.1707,0.7027,0.8757,9.3263,-2.517,-3.54,-13.3057,1.0986,107.287,-6.9159,-23.1702,0.7947,0.1264,-0.1664,0.5699,1.8901,9.1875,-2.1629,-0.7324,-6.7139,0.7935,105.1721,-11.1621,-22.0605,0.7872,0.0932,-0.1915,0.5787,-0.8087,0.4546,9.9627,0.1221,-0.1831,0.1221,3.2739,4.9768,-140.4987,-0.0312,0.0415,-0.9395,0.3386,-1.4547,9.1062,-2.4452,-2.5024,-11.2305,2.1362,104.6448,7.1851,-28.4875,0.7562,0.2315,-0.102,0.6035,-0.4833,9.4985,-1.7849,-2.8076,-8.4229,-0.6104,99.0527,3.2574,-15.8643,0.7506,0.1232,-0.0681,0.6456,0.9092,0.4881,9.9723,-0.5493,0.0,-0.061,4.5374,-5.3668,-88.83,0.061,-0.0057,-0.6999,0.7116,48897,0,23050,58112,0,0,0,0,51468,40193,0,0,38400,0,0,0,0,0,0,0,29202,44548,0,0,0,0,19215,32515,0,0,0,0,38657,0,7168,0
1777287896.2631078,202321,1777287876.3437436,1777287894.244485,1777287876.6952665,0,0,-17900.74133872986,-351.52292251586914,1,1,0.0,0.0,0.0,0.0,0.0,0.0,0.0,0.0,0.0,0.0,0.0,0.0,0.0,0.0,0.0,0.0,0.0,0.0,0.0,0.0,0.0,0.0,0.0,0.0,0.0,0.0,0.0,0.0,0.0,0.0,0.0,0.0,0.0,0.0,0.0,0.0,0.0,0.0,0.0,0.0,0.0,0.0,0.0,0.0,0.0,0.0,0.0,0.0,0.0,0.0,0.0,0.0,0.0,0.0,0.0,0.0,0.0,0.0,0.0,0.0,0.0,0.0,0.0,0.0,0.0,0.0,0.0,0.0,0.0,0.0,0.0,0.0,0.0,0.0,0.0,-0.5551,9.5272,0.6364,-1.5869,-12.207,-2.7466,87.3688,1.4282,-28.6633,0.6669,0.1797,-0.1707,0.7027,0.8757,9.3263,-2.517,-3.54,-13.3057,1.0986,107.287,-6.9159,-23.1702,0.7947,0.1264,-0.1664,0.5699,1.8901,9.1875,-2.1629,-0.7324,-6.7139,0.7935,105.1721,-11.1621,-22.0605,0.7872,0.0932,-0.1915,0.5787,-0.8087,0.4546,9.9627,0.1221,-0.1831,0.1221,3.2739,4.9768,-140.4987,-0.0312,0.0415,-0.9395,0.3386,-1.4547,9.1062,-2.4452,-2.5024,-11.2305,2.1362,104.6448,7.1851,-28.4875,0.7562,0.2315,-0.102,0.6035,-0.4833,9.4985,-1.7849,-2.8076,-8.4229,-0.6104,99.0527,3.2574,-15.8643,0.7506,0.1232,-0.0681,0.6456,0.9092,0.4881,9.9723,-0.5493,0.0,-0.061,4.5374,-5.3668,-88.83,0.061,-0.0057,-0.6999,0.7116,48897,0,23050,58112,0,0,0,0,51468,40193,0,0,38400,0,0,0,0,0,0,0,29202,44548,0,0,0,0,19215,32515,0,0,0,0,38657,0,7168,0
1777287896.2631078,202322,1777287876.6506345,1777287894.244485,1777287876.6952665,0,0,-17593.8503742218,-44.6319580078125,1,1,0.0,0.0,0.0,0.0,0.0,0.0,0.0,0.0,0.0,0.0,0.0,0.0,0.0,0.0,0.0,0.0,0.0,0.0,0.0,0.0,0.0,0.0,0.0,0.0,0.0,0.0,0.0,0.0,0.0,0.0,0.0,0.0,0.0,0.0,0.0,0.0,0.0,0.0,0.0,0.0,0.0,0.0,0.0,0.0,0.0,0.0,0.0,0.0,0.0,0.0,0.0,0.0,0.0,0.0,0.0,0.0,0.0,0.0,0.0,0.0,0.0,0.0,0.0,0.0,0.0,0.0,0.0,0.0,0.0,0.0,0.0,0.0,0.0,0.0,0.0,-0.5551,9.5272,0.6364,-1.5869,-12.207,-2.7466,87.3688,1.4282,-28.6633,0.6669,0.1797,-0.1707,0.7027,0.8757,9.3263,-2.517,-3.54,-13.3057,1.0986,107.287,-6.9159,-23.1702,0.7947,0.1264,-0.1664,0.5699,1.8901,9.1875,-2.1629,-0.7324,-6.7139,0.7935,105.1721,-11.1621,-22.0605,0.7872,0.0932,-0.1915,0.5787,-0.8087,0.4546,9.9627,0.1221,-0.1831,0.1221,3.2739,4.9768,-140.4987,-0.0312,0.0415,-0.9395,0.3386,-1.4547,9.1062,-2.4452,-2.5024,-11.2305,2.1362,104.6448,7.1851,-28.4875,0.7562,0.2315,-0.102,0.6035,-0.4833,9.4985,-1.7849,-2.8076,-8.4229,-0.6104,99.0527,3.2574,-15.8643,0.7506,0.1232,-0.0681,0.6456,0.9092,0.4881,9.9723,-0.5493,0.0,-0.061,4.5374,-5.3668,-88.83,0.061,-0.0057,-0.6999,0.7116,48897,0,23050,58112,0,0,0,0,51468,40193,0,0,38400,0,0,0,0,0,0,0,29202,44548,0,0,0,0,19215,32515,0,0,0,0,38657,0,7168,0
