Timestamp,Vicon_Frame_Num,Vicon_Recv_Timestamp,IMU_Recv_Timestamp,Planter_Recv_Timestamp,Vicon_Gap_Flag,Vicon_Gap_Size,IMU_Stale_ms,Planter_Stale_ms,IMU_Matched_Flag,Planter_Matched_Flag,Vicon_Root_X,Vicon_Root_Y,Vicon_Root_Z,Vicon_L_Femur_X,Vicon_L_Femur_Y,Vicon_L_Femur_Z,Vicon_L_Tibia_X,Vicon_L_Tibia_Y,Vicon_L_Tibia_Z,Vicon_L_Foot_X,Vicon_L_Foot_Y,Vicon_L_Foot_Z,Vicon_L_Toe_X,Vicon_L_Toe_Y,Vicon_L_Toe_Z,Vicon_R_Femur_X,Vicon_R_Femur_Y,Vicon_R_Femur_Z,Vicon_R_Tibia_X,Vicon_R_Tibia_Y,Vicon_R_Tibia_Z,Vicon_R_Foot_X,Vicon_R_Foot_Y,Vicon_R_Foot_Z,Vicon_R_Toe_X,Vicon_R_Toe_Y,Vicon_R_Toe_Z,Vicon_LASI_X,Vicon_LASI_Y,Vicon_LASI_Z,Vicon_RASI_X,Vicon_RASI_Y,Vicon_RASI_Z,Vicon_LPSI_X,Vicon_LPSI_Y,Vicon_LPSI_Z,Vicon_RPSI_X,Vicon_RPSI_Y,Vicon_RPSI_Z,Vicon_LTHI_X,Vicon_LTHI_Y,Vicon_LTHI_Z,Vicon_LKNE_X,Vicon_LKNE_Y,Vicon_LKNE_Z,Vicon_LTIB_X,Vicon_LTIB_Y,Vicon_LTIB_Z,Vicon_LANK_X,Vicon_LANK_Y,Vicon_LANK_Z,Vicon_LHEE_X,Vicon_LHEE_Y,Vicon_LHEE_Z,Vicon_LTOE_X,Vicon_LTOE_Y,Vicon_LTOE_Z,Vicon_RTHI_X,Vicon_RTHI_Y,Vicon_RTHI_Z,Vicon_RKNE_X,Vicon_RKNE_Y,Vicon_RKNE_Z,Vicon_RTIB_X,Vicon_RTIB_Y,Vicon_RTIB_Z,Vicon_RANK_X,Vicon_RANK_Y,Vicon_RANK_Z,Vicon_RHEE_X,Vicon_RHEE_Y,Vicon_RHEE_Z,Vicon_RTOE_X,Vicon_RTOE_Y,Vicon_RTOE_Z,IMU_Trunk_Acc_X,IMU_Trunk_Acc_Y,IMU_Trunk_Acc_Z,IMU_Trunk_Gyro_X,IMU_Trunk_Gyro_Y,IMU_Trunk_Gyro_Z,IMU_Trunk_Roll,IMU_Trunk_Pitch,IMU_Trunk_Yaw,IMU_Trunk_Quat_x,IMU_Trunk_Quat_y,IMU_Trunk_Quat_z,IMU_Trunk_Quat_w,IMU_L_Femur_Acc_X,IMU_L_Femur_Acc_Y,IMU_L_Femur_Acc_Z,IMU_L_Femur_Gyro_X,IMU_L_Femur_Gyro_Y,IMU_L_Femur_Gyro_Z,IMU_L_Femur_Roll,IMU_L_Femur_Pitch,IMU_L_Femur_Yaw,IMU_L_Femur_Quat_x,IMU_L_Femur_Quat_y,IMU_L_Femur_Quat_z,IMU_L_Femur_Quat_w,IMU_L_Tibia_Acc_X,IMU_L_Tibia_Acc_Y,IMU_L_Tibia_Acc_Z,IMU_L_Tibia_Gyro_X,IMU_L_Tibia_Gyro_Y,IMU_L_Tibia_Gyro_Z,IMU_L_Tibia_Roll,IMU_L_Tibia_Pitch,IMU_L_Tibia_Yaw,IMU_L_Tibia_Quat_x,IMU_L_Tibia_Quat_y,IMU_L_Tibia_Quat_z,IMU_L_Tibia_Quat_w,IMU_L_Foot_Acc_X,IMU_L_Foot_Acc_Y,IMU_L_Foot_Acc_Z,IMU_L_Foot_Gyro_X,IMU_L_Foot_Gyro_Y,IMU_L_Foot_Gyro_Z,IMU_L_Foot_Roll,IMU_L_Foot_Pitch,IMU_L_Foot_Yaw,IMU_L_Foot_Quat_x,IMU_L_Foot_Quat_y,IMU_L_Foot_Quat_z,IMU_L_Foot_Quat_w,IMU_R_Femur_Acc_X,IMU_R_Femur_Acc_Y,IMU_R_Femur_Acc_Z,IMU_R_Femur_Gyro_X,IMU_R_Femur_Gyro_Y,IMU_R_Femur_Gyro_Z,IMU_R_Femur_Roll,IMU_R_Femur_Pitch,IMU_R_Femur_Yaw,IMU_R_Femur_Quat_x,IMU_R_Femur_Quat_y,IMU_R_Femur_Quat_z,IMU_R_Femur_Quat_w,IMU_R_Tibia_Acc_X,IMU_R_Tibia_Acc_Y,IMU_R_Tibia_Acc_Z,IMU_R_Tibia_Gyro_X,IMU_R_Tibia_Gyro_Y,IMU_R_Tibia_Gyro_Z,IMU_R_Tibia_Roll,IMU_R_Tibia_Pitch,IMU_R_Tibia_Yaw,IMU_R_Tibia_Quat_x,IMU_R_Tibia_Quat_y,IMU_R_Tibia_Quat_z,IMU_R_Tibia_Quat_w,IMU_R_Foot_Acc_X,IMU_R_Foot_Acc_Y,IMU_R_Foot_Acc_Z,IMU_R_Foot_Gyro_X,IMU_R_Foot_Gyro_Y,IMU_R_Foot_Gyro_Z,IMU_R_Foot_Roll,IMU_R_Foot_Pitch,IMU_R_Foot_Yaw,IMU_R_Foot_Quat_x,IMU_R_Foot_Quat_y,IMU_R_Foot_Quat_z,IMU_R_Foot_Quat_w,Planter_Left_0,Planter_Left_1,Planter_Left_2,Planter_Left_3,Planter_Left_4,Planter_Left_5,Planter_Left_6,Planter_Left_7,Planter_Left_8,Planter_Left_9,Planter_Left_10,Planter_Left_11,Planter_Left_12,Planter_Left_13,Planter_Left_14,Planter_Left_15,Planter_Left_16,Planter_Left_17,Planter_Right_0,Planter_Right_1,Planter_Right_2,Planter_Right_3,Planter_Right_4,Planter_Right_5,Planter_Right_6,Planter_Right_7,Planter_Right_8,Planter_Right_9,Planter_Right_10,Planter_Right_11,Planter_Right_12,Planter_Right_13,Planter_Right_14,Planter_Right_15,Planter_Right_16,Planter_Right_17
1777289585.2496371,372753,1777289580.6946537,1777289583.6517394,1777289581.5573132,0,0,-2957.085609436035,-862.6594543457031,1,1,0.0,0.0,0.0,0.0,0.0,0.0,0.0,0.0,0.0,0.0,0.0,0.0,0.0,0.0,0.0,0.0,0.0,0.0,0.0,0.0,0.0,0.0,0.0,0.0,0.0,0.0,0.0,0.0,0.0,0.0,0.0,0.0,0.0,0.0,0.0,0.0,0.0,0.0,0.0,0.0,0.0,0.0,0.0,0.0,0.0,0.0,0.0,0.0,0.0,0.0,0.0,0.0,0.0,0.0,0.0,0.0,0.0,0.0,0.0,0.0,0.0,0.0,0.0,0.0,0.0,0.0,0.0,0.0,0.0,0.0,0.0,0.0,0.0,0.0,0.0,1.8088,8.9674,-0.6891,-1.0376,29.8462,-6.958,84.6826,-1.0876,-35.1178,0.6443,0.1965,-0.2291,0.7027,0.1196,9.0679,-0.3158,144.3481,33.3862,0.7324,87.215,7.2729,-24.9115,0.6622,0.1933,-0.1131,0.7151,-1.3829,9.6995,-2.9237,53.2227,-85.9375,0.6104,102.5464,5.4053,-26.6968,0.7514,0.2086,-0.1085,0.6165,-1.5456,0.6125,9.2593,1.3428,-13.6108,0.9766,1.8127,6.2183,-93.3728,-0.0286,0.0487,-0.7259,0.6855,-0.4498,13.5037,-2.9572,-192.3218,-3.0518,60.791,88.5938,-8.866,-23.0493,0.6933,0.0849,-0.1955,0.6884,2.3112,9.0583,-11.3504,-117.5537,-3.6011,-13.0005,148.678,-14.3152,-30.8496,0.9299,0.2217,-0.1869,0.2263,5.7039,-6.9289,0.9283,-210.8765,56.0303,10.3149,63.3636,4.5044,-91.2085,0.3433,0.3984,-0.5931,0.6096,0,0,48913,18469,55045,0,0,0,4373,9765,43019,0,0,0,0,0,0,0,0,0,0,0,0,0,0,0,0,0,0,0,0,0,0,0,0,0
1777289585.2496371,372754,1777289580.6976779,1777289583.6517394,1777289581.5573132,0,0,-2954.061508178711,-859.6353530883789,1,1,0.0,0.0,0.0,0.0,0.0,0.0,0.0,0.0,0.0,0.0,0.0,0.0,0.0,0.0,0.0,0.0,0.0,0.0,0.0,0.0,0.0,0.0,0.0,0.0,0.0,0.0,0.0,0.0,0.0,0.0,0.0,0.0,0.0,0.0,0.0,0.0,0.0,0.0,0.0,0.0,0.0,0.0,0.0,0.0,0.0,0.0,0.0,0.0,0.0,0.0,0.0,0.0,0.0,0.0,0.0,0.0,0.0,0.0,0.0,0.0,0.0,0.0,0.0,0.0,0.0,0.0,0.0,0.0,0.0,0.0,0.0,0.0,0.0,0.0,0.0,1.8088,8.9674,-0.6891,-1.0376,29.8462,-6.958,84.6826,-1.0876,-35.1178,0.6443,0.1965,-0.2291,0.7027,0.1196,9.0679,-0.3158,144.3481,33.3862,0.7324,87.215,7.2729,-24.9115,0.6622,0.1933,-0.1131,0.7151,-1.3829,9.6995,-2.9237,53.2227,-85.9375,0.6104,102.5464,5.4053,-26.6968,0.7514,0.2086,-0.1085,0.6165,-1.5456,0.6125,9.2593,1.3428,-13.6108,0.9766,1.8127,6.2183,-93.3728,-0.0286,0.0487,-0.7259,0.6855,-0.4498,13.5037,-2.9572,-192.3218,-3.0518,60.791,88.5938,-8.866,-23.0493,0.6933,0.0849,-0.1955,0.6884,2.3112,9.0583,-11.3504,-117.5537,-3.6011,-13.0005,148.678,-14.3152,-30.8496,0.9299,0.2217,-0.1869,0.2263,5.7039,-6.9289,0.9283,-210.8765,56.0303,10.3149,63.3636,4.5044,-91.2085,0.3433,0.3984,-0.5931,0.6096,0,0,48913,18469,55045,0,0,0,4373,9765,43019,0,0,0,0,0,0,0,0,0,0,0,0,0,0,0,0,0,0,0,0,0,0,0,0,0
1777289585.2496371,372755,1777289580.7088428,1777289583.6517394,1777289581.5573132,0,0,-2942.896604537964,-848.4704494476318,1,1,0.0,0.0,0.0,0.0,0.0,0.0,0.0,0.0,0.0,0.0,0.0,0.0,0.0,0.0,0.0,0.0,0.0,0.0,0.0,0.0,0.0,0.0,0.0,0.0,0.0,0.0,0.0,0.0,0.0,0.0,0.0,0.0,0.0,0.0,0.0,0.0,0.0,0.0,0.0,0.0,0.0,0.0,0.0,0.0,0.0,0.0,0.0,0.0,0.0,0.0,0.0,0.0,0.0,0.0,0.0,0.0,0.0,0.0,0.0,0.0,0.0,0.0,0.0,0.0,0.0,0.0,0.0,0.0,0.0,0.0,0.0,0.0,0.0,0.0,0.0,1.8088,8.9674,-0.6891,-1.0376,29.8462,-6.958,84.6826,-1.0876,-35.1178,0.6443,0.1965,-0.2291,0.7027,0.1196,9.0679,-0.3158,144.3481,33.3862,0.7324,87.215,7.2729,-24.9115,0.6622,0.1933,-0.1131,0.7151,-1.3829,9.6995,-2.9237,53.2227,-85.9375,0.6104,102.5464,5.4053,-26.6968,0.7514,0.2086,-0.1085,0.6165,-1.5456,0.6125,9.2593,1.3428,-13.6108,0.9766,1.8127,6.2183,-93.3728,-0.0286,0.0487,-0.7259,0.6855,-0.4498,13.5037,-2.9572,-192.3218,-3.0518,60.791,88.5938,-8.866,-23.0493,0.6933,0.0849,-0.1955,0.6884,2.3112,9.0583,-11.3504,-117.5537,-3.6011,-13.0005,148.678,-14.3152,-30.8496,0.9299,0.2217,-0.1869,0.2263,5.7039,-6.9289,0.9283,-210.8765,56.0303,10.3149,63.3636,4.5044,-91.2085,0.3433,0.3984,-0.5931,0.6096,0,0,48913,18469,55045,0,0,0,4373,9765,43019,0,0,0,0,0,0,0,0,0,0,0,0,0,0,0,0,0,0,0,0,0,0,0,0,0
1777289585.2496371,372756,1777289580.718598,1777289583.6517394,1777289581.5573132,0,0,-2933.1414699554443,-838.7153148651123,1,1,0.0,0.0,0.0,0.0,0.0,0.0,0.0,0.0,0.0,0.0,0.0,0.0,0.0,0.0,0.0,0.0,0.0,0.0,0.0,0.0,0.0,0.0,0.0,0.0,0.0,0.0,0.0,0.0,0.0,0.0,0.0,0.0,0.0,0.0,0.0,0.0,0.0,0.0,0.0,0.0,0.0,0.0,0.0,0.0,0.0,0.0,0.0,0.0,0.0,0.0,0.0,0.0,0.0,0.0,0.0,0.0,0.0,0.0,0.0,0.0,0.0,0.0,0.0,0.0,0.0,0.0,0.0,0.0,0.0,0.0,0.0,0.0,0.0,0.0,0.0,1.8088,8.9674,-0.6891,-1.0376,29.8462,-6.958,84.6826,-1.0876,-35.1178,0.6443,0.1965,-0.2291,0.7027,0.1196,9.0679,-0.3158,144.3481,33.3862,0.7324,87.215,7.2729,-24.9115,0.6622,0.1933,-0.1131,0.7151,-1.3829,9.6995,-2.9237,53.2227,-85.9375,0.6104,102.5464,5.4053,-26.6968,0.7514,0.2086,-0.1085,0.6165,-1.5456,0.6125,9.2593,1.3428,-13.6108,0.9766,1.8127,6.2183,-93.3728,-0.0286,0.0487,-0.7259,0.6855,-0.4498,13.5037,-2.9572,-192.3218,-3.0518,60.791,88.5938,-8.866,-23.0493,0.6933,0.0849,-0.1955,0.6884,2.3112,9.0583,-11.3504,-117.5537,-3.6011,-13.0005,148.678,-14.3152,-30.8496,0.9299,0.2217,-0.1869,0.2263,5.7039,-6.9289,0.9283,-210.8765,56.0303,10.3149,63.3636,4.5044,-91.2085,0.3433,0.3984,-0.5931,0.6096,0,0,48913,18469,55045,0,0,0,4373,9765,43019,0,0,0,0,0,0,0,0,0,0,0,0,0,0,0,0,0,0,0,0,0,0,0,0,0
1777289585.2496371,372757,1777289580.7279842,1777289583.6517394,1777289581.5573132,0,0,-2923.755168914795,-829.3290138244629,1,1,0.0,0.0,0.0,0.0,0.0,0.0,0.0,0.0,0.0,0.0,0.0,0.0,0.0,0.0,0.0,0.0,0.0,0.0,0.0,0.0,0.0,0.0,0.0,0.0,0.0,0.0,0.0,0.0,0.0,0.0,0.0,0.0,0.0,0.0,0.0,0.0,0.0,0.0,0.0,0.0,0.0,0.0,0.0,0.0,0.0,0.0,0.0,0.0,0.0,0.0,0.0,0.0,0.0,0.0,0.0,0.0,0.0,0.0,0.0,0.0,0.0,0.0,0.0,0.0,0.0,0.0,0.0,0.0,0.0,0.0,0.0,0.0,0.0,0.0,0.0,1.8088,8.9674,-0.6891,-1.0376,29.8462,-6.958,84.6826,-1.0876,-35.1178,0.6443,0.1965,-0.2291,0.7027,0.1196,9.0679,-0.3158,144.3481,33.3862,0.7324,87.215,7.2729,-24.9115,0.6622,0.1933,-0.1131,0.7151,-1.3829,9.6995,-2.9237,53.2227,-85.9375,0.6104,102.5464,5.4053,-26.6968,0.7514,0.2086,-0.1085,0.6165,-1.5456,0.6125,9.2593,1.3428,-13.6108,0.9766,1.8127,6.2183,-93.3728,-0.0286,0.0487,-0.7259,0.6855,-0.4498,13.5037,-2.9572,-192.3218,-3.0518,60.791,88.5938,-8.866,-23.0493,0.6933,0.0849,-0.1955,0.6884,2.3112,9.0583,-11.3504,-117.5537,-3.6011,-13.0005,148.678,-14.3152,-30.8496,0.9299,0.2217,-0.1869,0.2263,5.7039,-6.9289,0.9283,-210.8765,56.0303,10.3149,63.3636,4.5044,-91.2085,0.3433,0.3984,-0.5931,0.6096,0,0,48913,18469,55045,0,0,0,4373,9765,43019,0,0,0,0,0,0,0,0,0,0,0,0,0,0,0,0,0,0,0,0,0,0,0,0,0
1777289585.2496371,372758,1777289580.7380226,1777289583.6517394,1777289581.5573132,0,0,-2913.7167930603027,-819.2906379699707,1,1,0.0,0.0,0.0,0.0,0.0,0.0,0.0,0.0,0.0,0.0,0.0,0.0,0.0,0.0,0.0,0.0,0.0,0.0,0.0,0.0,0.0,0.0,0.0,0.0,0.0,0.0,0.0,0.0,0.0,0.0,0.0,0.0,0.0,0.0,0.0,0.0,0.0,0.0,0.0,0.0,0.0,0.0,0.0,0.0,0.0,0.0,0.0,0.0,0.0,0.0,0.0,0.0,0.0,0.0,0.0,0.0,0.0,0.0,0.0,0.0,0.0,0.0,0.0,0.0,0.0,0.0,0.0,0.0,0.0,0.0,0.0,0.0,0.0,0.0,0.0,1.8088,8.9674,-0.6891,-1.0376,29.8462,-6.958,84.6826,-1.0876,-35.1178,0.6443,0.1965,-0.2291,0.7027,0.1196,9.0679,-0.3158,144.3481,33.3862,0.7324,87.215,7.2729,-24.9115,0.6622,0.1933,-0.1131,0.7151,-1.3829,9.6995,-2.9237,53.2227,-85.9375,0.6104,102.5464,5.4053,-26.6968,0.7514,0.2086,-0.1085,0.6165,-1.5456,0.6125,9.2593,1.3428,-13.6108,0.9766,1.8127,6.2183,-93.3728,-0.0286,0.0487,-0.7259,0.6855,-0.4498,13.5037,-2.9572,-192.3218,-3.0518,60.791,88.5938,-8.866,-23.0493,0.6933,0.0849,-0.1955,0.6884,2.3112,9.0583,-11.3504,-117.5537,-3.6011,-13.0005,148.678,-14.3152,-30.8496,0.9299,0.2217,-0.1869,0.2263,5.7039,-6.9289,0.9283,-210.8765,56.0303,10.3149,63.3636,4.5044,-91.2085,0.3433,0.3984,-0.5931,0.6096,0,0,48913,18469,55045,0,0,0,4373,9765,43019,0,0,0,0,0,0,0,0,0,0,0,0,0,0,0,0,0,0,0,0,0,0,0,0,0
1777289585.2496371,372759,1777289580.7494354,1777289583.6517394,1777289581.5573132,0,0,-2902.30393409729,-807.877779006958,1,1,0.0,0.0,0.0,0.0,0.0,0.0,0.0,0.0,0.0,0.0,0.0,0.0,0.0,0.0,0.0,0.0,0.0,0.0,0.0,0.0,0.0,0.0,0.0,0.0,0.0,0.0,0.0,0.0,0.0,0.0,0.0,0.0,0.0,0.0,0.0,0.0,0.0,0.0,0.0,0.0,0.0,0.0,0.0,0.0,0.0,0.0,0.0,0.0,0.0,0.0,0.0,0.0,0.0,0.0,0.0,0.0,0.0,0.0,0.0,0.0,0.0,0.0,0.0,0.0,0.0,0.0,0.0,0.0,0.0,0.0,0.0,0.0,0.0,0.0,0.0,1.8088,8.9674,-0.6891,-1.0376,29.8462,-6.958,84.6826,-1.0876,-35.1178,0.6443,0.1965,-0.2291,0.7027,0.1196,9.0679,-0.3158,144.3481,33.3862,0.7324,87.215,7.2729,-24.9115,0.6622,0.1933,-0.1131,0.7151,-1.3829,9.6995,-2.9237,53.2227,-85.9375,0.6104,102.5464,5.4053,-26.6968,0.7514,0.2086,-0.1085,0.6165,-1.5456,0.6125,9.2593,1.3428,-13.6108,0.9766,1.8127,6.2183,-93.3728,-0.0286,0.0487,-0.7259,0.6855,-0.4498,13.5037,-2.9572,-192.3218,-3.0518,60.791,88.5938,-8.866,-23.0493,0.6933,0.0849,-0.1955,0.6884,2.3112,9.0583,-11.3504,-117.5537,-3.6011,-13.0005,148.678,-14.3152,-30.8496,0.9299,0.2217,-0.1869,0.2263,5.7039,-6.9289,0.9283,-210.8765,56.0303,10.3149,63.3636,4.5044,-91.2085,0.3433,0.3984,-0.5931,0.6096,0,0,48913,18469,55045,0,0,0,4373,9765,43019,0,0,0,0,0,0,0,0,0,0,0,0,0,0,0,0,0,0,0,0,0,0,0,0,0
1777289585.2506373,372760,1777289580.7655947,1777289583.6517394,1777289581.5573132,0,0,-2886.1446380615234,-791.7184829711914,1,1,0.0,0.0,0.0,0.0,0.0,0.0,0.0,0.0,0.0,0.0,0.0,0.0,0.0,0.0,0.0,0.0,0.0,0.0,0.0,0.0,0.0,0.0,0.0,0.0,0.0,0.0,0.0,0.0,0.0,0.0,0.0,0.0,0.0,0.0,0.0,0.0,0.0,0.0,0.0,0.0,0.0,0.0,0.0,0.0,0.0,0.0,0.0,0.0,0.0,0.0,0.0,0.0,0.0,0.0,0.0,0.0,0.0,0.0,0.0,0.0,0.0,0.0,0.0,0.0,0.0,0.0,0.0,0.0,0.0,0.0,0.0,0.0,0.0,0.0,0.0,1.8088,8.9674,-0.6891,-1.0376,29.8462,-6.958,84.6826,-1.0876,-35.1178,0.6443,0.1965,-0.2291,0.7027,0.1196,9.0679,-0.3158,144.3481,33.3862,0.7324,87.215,7.2729,-24.9115,0.6622,0.1933,-0.1131,0.7151,-1.3829,9.6995,-2.9237,53.2227,-85.9375,0.6104,102.5464,5.4053,-26.6968,0.7514,0.2086,-0.1085,0.6165,-1.5456,0.6125,9.2593,1.3428,-13.6108,0.9766,1.8127,6.2183,-93.3728,-0.0286,0.0487,-0.7259,0.6855,-0.4498,13.5037,-2.9572,-192.3218,-3.0518,60.791,88.5938,-8.866,-23.0493,0.6933,0.0849,-0.1955,0.6884,2.3112,9.0583,-11.3504,-117.5537,-3.6011,-13.0005,148.678,-14.3152,-30.8496,0.9299,0.2217,-0.1869,0.2263,5.7039,-6.9289,0.9283,-210.8765,56.0303,10.3149,63.3636,4.5044,-91.2085,0.3433,0.3984,-0.5931,0.6096,0,0,48913,18469,55045,0,0,0,4373,9765,43019,0,0,0,0,0,0,0,0,0,0,0,0,0,0,0,0,0,0,0,0,0,0,0,0,0
1777289585.2506373,372761,1777289580.7678034,1777289583.6517394,1777289581.5573132,0,0,-2883.9359283447266,-789.5097732543945,1,1,0.0,0.0,0.0,0.0,0.0,0.0,0.0,0.0,0.0,0.0,0.0,0.0,0.0,0.0,0.0,0.0,0.0,0.0,0.0,0.0,0.0,0.0,0.0,0.0,0.0,0.0,0.0,0.0,0.0,0.0,0.0,0.0,0.0,0.0,0.0,0.0,0.0,0.0,0.0,0.0,0.0,0.0,0.0,0.0,0.0,0.0,0.0,0.0,0.0,0.0,0.0,0.0,0.0,0.0,0.0,0.0,0.0,0.0,0.0,0.0,0.0,0.0,0.0,0.0,0.0,0.0,0.0,0.0,0.0,0.0,0.0,0.0,0.0,0.0,0.0,1.8088,8.9674,-0.6891,-1.0376,29.8462,-6.958,84.6826,-1.0876,-35.1178,0.6443,0.1965,-0.2291,0.7027,0.1196,9.0679,-0.3158,144.3481,33.3862,0.7324,87.215,7.2729,-24.9115,0.6622,0.1933,-0.1131,0.7151,-1.3829,9.6995,-2.9237,53.2227,-85.9375,0.6104,102.5464,5.4053,-26.6968,0.7514,0.2086,-0.1085,0.6165,-1.5456,0.6125,9.2593,1.3428,-13.6108,0.9766,1.8127,6.2183,-93.3728,-0.0286,0.0487,-0.7259,0.6855,-0.4498,13.5037,-2.9572,-192.3218,-3.0518,60.791,88.5938,-8.866,-23.0493,0.6933,0.0849,-0.1955,0.6884,2.3112,9.0583,-11.3504,-117.5537,-3.6011,-13.0005,148.678,-14.3152,-30.8496,0.9299,0.2217,-0.1869,0.2263,5.7039,-6.9289,0.9283,-210.8765,56.0303,10.3149,63.3636,4.5044,-91.2085,0.3433,0.3984,-0.5931,0.6096,0,0,48913,18469,55045,0,0,0,4373,9765,43019,0,0,0,0,0,0,0,0,0,0,0,0,0,0,0,0,0,0,0,0,0,0,0,0,0
1777289585.2506373,372762,1777289580.7848728,1777289583.6517394,1777289581.5573132,0,0,-2866.8665885925293,-772.4404335021973,1,1,0.0,0.0,0.0,0.0,0.0,0.0,0.0,0.0,0.0,0.0,0.0,0.0,0.0,0.0,0.0,0.0,0.0,0.0,0.0,0.0,0.0,0.0,0.0,0.0,0.0,0.0,0.0,0.0,0.0,0.0,0.0,0.0,0.0,0.0,0.0,0.0,0.0,0.0,0.0,0.0,0.0,0.0,0.0,0.0,0.0,0.0,0.0,0.0,0.0,0.0,0.0,0.0,0.0,0.0,0.0,0.0,0.0,0.0,0.0,0.0,0.0,0.0,0.0,0.0,0.0,0.0,0.0,0.0,0.0,0.0,0.0,0.0,0.0,0.0,0.0,1.8088,8.9674,-0.6891,-1.0376,29.8462,-6.958,84.6826,-1.0876,-35.1178,0.6443,0.1965,-0.2291,0.7027,0.1196,9.0679,-0.3158,144.3481,33.3862,0.7324,87.215,7.2729,-24.9115,0.6622,0.1933,-0.1131,0.7151,-1.3829,9.6995,-2.9237,53.2227,-85.9375,0.6104,102.5464,5.4053,-26.6968,0.7514,0.2086,-0.1085,0.6165,-1.5456,0.6125,9.2593,1.3428,-13.6108,0.9766,1.8127,6.2183,-93.3728,-0.0286,0.0487,-0.7259,0.6855,-0.4498,13.5037,-2.9572,-192.3218,-3.0518,60.791,88.5938,-8.866,-23.0493,0.6933,0.0849,-0.1955,0.6884,2.3112,9.0583,-11.3504,-117.5537,-3.6011,-13.0005,148.678,-14.3152,-30.8496,0.9299,0.2217,-0.1869,0.2263,5.7039,-6.9289,0.9283,-210.8765,56.0303,10.3149,63.3636,4.5044,-91.2085,0.3433,0.3984,-0.5931,0.6096,0,0,48913,18469,55045,0,0,0,4373,9765,43019,0,0,0,0,0,0,0,0,0,0,0,0,0,0,0,0,0,0,0,0,0,0,0,0,0
1777289585.2506373,372763,1777289580.7869947,1777289583.6517394,1777289581.5573132,0,0,-2864.7446632385254,-770.3185081481934,1,1,0.0,0.0,0.0,0.0,0.0,0.0,0.0,0.0,0.0,0.0,0.0,0.0,0.0,0.0,0.0,0.0,0.0,0.0,0.0,0.0,0.0,0.0,0.0,0.0,0.0,0.0,0.0,0.0,0.0,0.0,0.0,0.0,0.0,0.0,0.0,0.0,0.0,0.0,0.0,0.0,0.0,0.0,0.0,0.0,0.0,0.0,0.0,0.0,0.0,0.0,0.0,0.0,0.0,0.0,0.0,0.0,0.0,0.0,0.0,0.0,0.0,0.0,0.0,0.0,0.0,0.0,0.0,0.0,0.0,0.0,0.0,0.0,0.0,0.0,0.0,1.8088,8.9674,-0.6891,-1.0376,29.8462,-6.958,84.6826,-1.0876,-35.1178,0.6443,0.1965,-0.2291,0.7027,0.1196,9.0679,-0.3158,144.3481,33.3862,0.7324,87.215,7.2729,-24.9115,0.6622,0.1933,-0.1131,0.7151,-1.3829,9.6995,-2.9237,53.2227,-85.9375,0.6104,102.5464,5.4053,-26.6968,0.7514,0.2086,-0.1085,0.6165,-1.5456,0.6125,9.2593,1.3428,-13.6108,0.9766,1.8127,6.2183,-93.3728,-0.0286,0.0487,-0.7259,0.6855,-0.4498,13.5037,-2.9572,-192.3218,-3.0518,60.791,88.5938,-8.866,-23.0493,0.6933,0.0849,-0.1955,0.6884,2.3112,9.0583,-11.3504,-117.5537,-3.6011,-13.0005,148.678,-14.3152,-30.8496,0.9299,0.2217,-0.1869,0.2263,5.7039,-6.9289,0.9283,-210.8765,56.0303,10.3149,63.3636,4.5044,-91.2085,0.3433,0.3984,-0.5931,0.6096,0,0,48913,18469,55045,0,0,0,4373,9765,43019,0,0,0,0,0,0,0,0,0,0,0,0,0,0,0,0,0,0,0,0,0,0,0,0,0
1777289585.2506373,372764,1777289580.7973456,1777289583.6517394,1777289581.5573132,0,0,-2854.393720626831,-759.967565536499,1,1,0.0,0.0,0.0,0.0,0.0,0.0,0.0,0.0,0.0,0.0,0.0,0.0,0.0,0.0,0.0,0.0,0.0,0.0,0.0,0.0,0.0,0.0,0.0,0.0,0.0,0.0,0.0,0.0,0.0,0.0,0.0,0.0,0.0,0.0,0.0,0.0,0.0,0.0,0.0,0.0,0.0,0.0,0.0,0.0,0.0,0.0,0.0,0.0,0.0,0.0,0.0,0.0,0.0,0.0,0.0,0.0,0.0,0.0,0.0,0.0,0.0,0.0,0.0,0.0,0.0,0.0,0.0,0.0,0.0,0.0,0.0,0.0,0.0,0.0,0.0,1.8088,8.9674,-0.6891,-1.0376,29.8462,-6.958,84.6826,-1.0876,-35.1178,0.6443,0.1965,-0.2291,0.7027,0.1196,9.0679,-0.3158,144.3481,33.3862,0.7324,87.215,7.2729,-24.9115,0.6622,0.1933,-0.1131,0.7151,-1.3829,9.6995,-2.9237,53.2227,-85.9375,0.6104,102.5464,5.4053,-26.6968,0.7514,0.2086,-0.1085,0.6165,-1.5456,0.6125,9.2593,1.3428,-13.6108,0.9766,1.8127,6.2183,-93.3728,-0.0286,0.0487,-0.7259,0.6855,-0.4498,13.5037,-2.9572,-192.3218,-3.0518,60.791,88.5938,-8.866,-23.0493,0.6933,0.0849,-0.1955,0.6884,2.3112,9.0583,-11.3504,-117.5537,-3.6011,-13.0005,148.678,-14.3152,-30.8496,0.9299,0.2217,-0.1869,0.2263,5.7039,-6.9289,0.9283,-210.8765,56.0303,10.3149,63.3636,4.5044,-91.2085,0.3433,0.3984,-0.5931,0.6096,0,0,48913,18469,55045,0,0,0,4373,9765,43019,0,0,0,0,0,0,0,0,0,0,0,0,0,0,0,0,0,0,0,0,0,0,0,0,0
1777289585.2506373,372765,1777289580.8085382,1777289583.6517394,1777289581.5573132,0,0,-2843.201160430908,-748.7750053405762,1,1,0.0,0.0,0.0,0.0,0.0,0.0,0.0,0.0,0.0,0.0,0.0,0.0,0.0,0.0,0.0,0.0,0.0,0.0,0.0,0.0,0.0,0.0,0.0,0.0,0.0,0.0,0.0,0.0,0.0,0.0,0.0,0.0,0.0,0.0,0.0,0.0,0.0,0.0,0.0,0.0,0.0,0.0,0.0,0.0,0.0,0.0,0.0,0.0,0.0,0.0,0.0,0.0,0.0,0.0,0.0,0.0,0.0,0.0,0.0,0.0,0.0,0.0,0.0,0.0,0.0,0.0,0.0,0.0,0.0,0.0,0.0,0.0,0.0,0.0,0.0,1.8088,8.9674,-0.6891,-1.0376,29.8462,-6.958,84.6826,-1.0876,-35.1178,0.6443,0.1965,-0.2291,0.7027,0.1196,9.0679,-0.3158,144.3481,33.3862,0.7324,87.215,7.2729,-24.9115,0.6622,0.1933,-0.1131,0.7151,-1.3829,9.6995,-2.9237,53.2227,-85.9375,0.6104,102.5464,5.4053,-26.6968,0.7514,0.2086,-0.1085,0.6165,-1.5456,0.6125,9.2593,1.3428,-13.6108,0.9766,1.8127,6.2183,-93.3728,-0.0286,0.0487,-0.7259,0.6855,-0.4498,13.5037,-2.9572,-192.3218,-3.0518,60.791,88.5938,-8.866,-23.0493,0.6933,0.0849,-0.1955,0.6884,2.3112,9.0583,-11.3504,-117.5537,-3.6011,-13.0005,148.678,-14.3152,-30.8496,0.9299,0.2217,-0.1869,0.2263,5.7039,-6.9289,0.9283,-210.8765,56.0303,10.3149,63.3636,4.5044,-91.2085,0.3433,0.3984,-0.5931,0.6096,0,0,48913,18469,55045,0,0,0,4373,9765,43019,0,0,0,0,0,0,0,0,0,0,0,0,0,0,0,0,0,0,0,0,0,0,0,0,0
1777289585.2506373,372766,1777289580.8179574,1777289583.6517394,1777289581.5573132,0,0,-2833.781957626343,-739.3558025360107,1,1,0.0,0.0,0.0,0.0,0.0,0.0,0.0,0.0,0.0,0.0,0.0,0.0,0.0,0.0,0.0,0.0,0.0,0.0,0.0,0.0,0.0,0.0,0.0,0.0,0.0,0.0,0.0,0.0,0.0,0.0,0.0,0.0,0.0,0.0,0.0,0.0,0.0,0.0,0.0,0.0,0.0,0.0,0.0,0.0,0.0,0.0,0.0,0.0,0.0,0.0,0.0,0.0,0.0,0.0,0.0,0.0,0.0,0.0,0.0,0.0,0.0,0.0,0.0,0.0,0.0,0.0,0.0,0.0,0.0,0.0,0.0,0.0,0.0,0.0,0.0,1.8088,8.9674,-0.6891,-1.0376,29.8462,-6.958,84.6826,-1.0876,-35.1178,0.6443,0.1965,-0.2291,0.7027,0.1196,9.0679,-0.3158,144.3481,33.3862,0.7324,87.215,7.2729,-24.9115,0.6622,0.1933,-0.1131,0.7151,-1.3829,9.6995,-2.9237,53.2227,-85.9375,0.6104,102.5464,5.4053,-26.6968,0.7514,0.2086,-0.1085,0.6165,-1.5456,0.6125,9.2593,1.3428,-13.6108,0.9766,1.8127,6.2183,-93.3728,-0.0286,0.0487,-0.7259,0.6855,-0.4498,13.5037,-2.9572,-192.3218,-3.0518,60.791,88.5938,-8.866,-23.0493,0.6933,0.0849,-0.1955,0.6884,2.3112,9.0583,-11.3504,-117.5537,-3.6011,-13.0005,148.678,-14.3152,-30.8496,0.9299,0.2217,-0.1869,0.2263,5.7039,-6.9289,0.9283,-210.8765,56.0303,10.3149,63.3636,4.5044,-91.2085,0.3433,0.3984,-0.5931,0.6096,0,0,48913,18469,55045,0,0,0,4373,9765,43019,0,0,0,0,0,0,0,0,0,0,0,0,0,0,0,0,0,0,0,0,0,0,0,0,0
1777289585.2506373,372767,1777289580.827619,1777289583.6517394,1777289581.5573132,0,0,-2824.120283126831,-729.694128036499,1,1,0.0,0.0,0.0,0.0,0.0,0.0,0.0,0.0,0.0,0.0,0.0,0.0,0.0,0.0,0.0,0.0,0.0,0.0,0.0,0.0,0.0,0.0,0.0,0.0,0.0,0.0,0.0,0.0,0.0,0.0,0.0,0.0,0.0,0.0,0.0,0.0,0.0,0.0,0.0,0.0,0.0,0.0,0.0,0.0,0.0,0.0,0.0,0.0,0.0,0.0,0.0,0.0,0.0,0.0,0.0,0.0,0.0,0.0,0.0,0.0,0.0,0.0,0.0,0.0,0.0,0.0,0.0,0.0,0.0,0.0,0.0,0.0,0.0,0.0,0.0,1.8088,8.9674,-0.6891,-1.0376,29.8462,-6.958,84.6826,-1.0876,-35.1178,0.6443,0.1965,-0.2291,0.7027,0.1196,9.0679,-0.3158,144.3481,33.3862,0.7324,87.215,7.2729,-24.9115,0.6622,0.1933,-0.1131,0.7151,-1.3829,9.6995,-2.9237,53.2227,-85.9375,0.6104,102.5464,5.4053,-26.6968,0.7514,0.2086,-0.1085,0.6165,-1.5456,0.6125,9.2593,1.3428,-13.6108,0.9766,1.8127,6.2183,-93.3728,-0.0286,0.0487,-0.7259,0.6855,-0.4498,13.5037,-2.9572,-192.3218,-3.0518,60.791,88.5938,-8.866,-23.0493,0.6933,0.0849,-0.1955,0.6884,2.3112,9.0583,-11.3504,-117.5537,-3.6011,-13.0005,148.678,-14.3152,-30.8496,0.9299,0.2217,-0.1869,0.2263,5.7039,-6.9289,0.9283,-210.8765,56.0303,10.3149,63.3636,4.5044,-91.2085,0.3433,0.3984,-0.5931,0.6096,0,0,48913,18469,55045,0,0,0,4373,9765,43019,0,0,0,0,0,0,0,0,0,0,0,0,0,0,0,0,0,0,0,0,0,0,0,0,0
1777289585.2506373,372768,1777289580.83805,1777289583.6517394,1777289581.5573132,0,0,-2813.6894702911377,-719.2633152008057,1,1,0.0,0.0,0.0,0.0,0.0,0.0,0.0,0.0,0.0,0.0,0.0,0.0,0.0,0.0,0.0,0.0,0.0,0.0,0.0,0.0,0.0,0.0,0.0,0.0,0.0,0.0,0.0,0.0,0.0,0.0,0.0,0.0,0.0,0.0,0.0,0.0,0.0,0.0,0.0,0.0,0.0,0.0,0.0,0.0,0.0,0.0,0.0,0.0,0.0,0.0,0.0,0.0,0.0,0.0,0.0,0.0,0.0,0.0,0.0,0.0,0.0,0.0,0.0,0.0,0.0,0.0,0.0,0.0,0.0,0.0,0.0,0.0,0.0,0.0,0.0,1.8088,8.9674,-0.6891,-1.0376,29.8462,-6.958,84.6826,-1.0876,-35.1178,0.6443,0.1965,-0.2291,0.7027,0.1196,9.0679,-0.3158,144.3481,33.3862,0.7324,87.215,7.2729,-24.9115,0.6622,0.1933,-0.1131,0.7151,-1.3829,9.6995,-2.9237,53.2227,-85.9375,0.6104,102.5464,5.4053,-26.6968,0.7514,0.2086,-0.1085,0.6165,-1.5456,0.6125,9.2593,1.3428,-13.6108,0.9766,1.8127,6.2183,-93.3728,-0.0286,0.0487,-0.7259,0.6855,-0.4498,13.5037,-2.9572,-192.3218,-3.0518,60.791,88.5938,-8.866,-23.0493,0.6933,0.0849,-0.1955,0.6884,2.3112,9.0583,-11.3504,-117.5537,-3.6011,-13.0005,148.678,-14.3152,-30.8496,0.9299,0.2217,-0.1869,0.2263,5.7039,-6.9289,0.9283,-210.8765,56.0303,10.3149,63.3636,4.5044,-91.2085,0.3433,0.3984,-0.5931,0.6096,0,0,48913,18469,55045,0,0,0,4373,9765,43019,0,0,0,0,0,0,0,0,0,0,0,0,0,0,0,0,0,0,0,0,0,0,0,0,0
1777289585.2506373,372769,1777289580.852138,1777289583.6517394,1777289581.5573132,0,0,-2799.6013164520264,-705.1751613616943,1,1,0.0,0.0,0.0,0.0,0.0,0.0,0.0,0.0,0.0,0.0,0.0,0.0,0.0,0.0,0.0,0.0,0.0,0.0,0.0,0.0,0.0,0.0,0.0,0.0,0.0,0.0,0.0,0.0,0.0,0.0,0.0,0.0,0.0,0.0,0.0,0.0,0.0,0.0,0.0,0.0,0.0,0.0,0.0,0.0,0.0,0.0,0.0,0.0,0.0,0.0,0.0,0.0,0.0,0.0,0.0,0.0,0.0,0.0,0.0,0.0,0.0,0.0,0.0,0.0,0.0,0.0,0.0,0.0,0.0,0.0,0.0,0.0,0.0,0.0,0.0,1.8088,8.9674,-0.6891,-1.0376,29.8462,-6.958,84.6826,-1.0876,-35.1178,0.6443,0.1965,-0.2291,0.7027,0.1196,9.0679,-0.3158,144.3481,33.3862,0.7324,87.215,7.2729,-24.9115,0.6622,0.1933,-0.1131,0.7151,-1.3829,9.6995,-2.9237,53.2227,-85.9375,0.6104,102.5464,5.4053,-26.6968,0.7514,0.2086,-0.1085,0.6165,-1.5456,0.6125,9.2593,1.3428,-13.6108,0.9766,1.8127,6.2183,-93.3728,-0.0286,0.0487,-0.7259,0.6855,-0.4498,13.5037,-2.9572,-192.3218,-3.0518,60.791,88.5938,-8.866,-23.0493,0.6933,0.0849,-0.1955,0.6884,2.3112,9.0583,-11.3504,-117.5537,-3.6011,-13.0005,148.678,-14.3152,-30.8496,0.9299,0.2217,-0.1869,0.2263,5.7039,-6.9289,0.9283,-210.8765,56.0303,10.3149,63.3636,4.5044,-91.2085,0.3433,0.3984,-0.5931,0.6096,0,0,48913,18469,55045,0,0,0,4373,9765,43019,0,0,0,0,0,0,0,0,0,0,0,0,0,0,0,0,0,0,0,0,0,0,0,0,0
1777289585.2506373,372770,1777289580.8581781,1777289583.6517394,1777289581.5573132,0,0,-2793.5612201690674,-699.1350650787354,1,1,0.0,0.0,0.0,0.0,0.0,0.0,0.0,0.0,0.0,0.0,0.0,0.0,0.0,0.0,0.0,0.0,0.0,0.0,0.0,0.0,0.0,0.0,0.0,0.0,0.0,0.0,0.0,0.0,0.0,0.0,0.0,0.0,0.0,0.0,0.0,0.0,0.0,0.0,0.0,0.0,0.0,0.0,0.0,0.0,0.0,0.0,0.0,0.0,0.0,0.0,0.0,0.0,0.0,0.0,0.0,0.0,0.0,0.0,0.0,0.0,0.0,0.0,0.0,0.0,0.0,0.0,0.0,0.0,0.0,0.0,0.0,0.0,0.0,0.0,0.0,1.8088,8.9674,-0.6891,-1.0376,29.8462,-6.958,84.6826,-1.0876,-35.1178,0.6443,0.1965,-0.2291,0.7027,0.1196,9.0679,-0.3158,144.3481,33.3862,0.7324,87.215,7.2729,-24.9115,0.6622,0.1933,-0.1131,0.7151,-1.3829,9.6995,-2.9237,53.2227,-85.9375,0.6104,102.5464,5.4053,-26.6968,0.7514,0.2086,-0.1085,0.6165,-1.5456,0.6125,9.2593,1.3428,-13.6108,0.9766,1.8127,6.2183,-93.3728,-0.0286,0.0487,-0.7259,0.6855,-0.4498,13.5037,-2.9572,-192.3218,-3.0518,60.791,88.5938,-8.866,-23.0493,0.6933,0.0849,-0.1955,0.6884,2.3112,9.0583,-11.3504,-117.5537,-3.6011,-13.0005,148.678,-14.3152,-30.8496,0.9299,0.2217,-0.1869,0.2263,5.7039,-6.9289,0.9283,-210.8765,56.0303,10.3149,63.3636,4.5044,-91.2085,0.3433,0.3984,-0.5931,0.6096,0,0,48913,18469,55045,0,0,0,4373,9765,43019,0,0,0,0,0,0,0,0,0,0,0,0,0,0,0,0,0,0,0,0,0,0,0,0,0
1777289585.251637,372771,1777289580.867864,1777289583.6517394,1777289581.5573132,0,0,-2783.8754653930664,-689.4493103027344,1,1,0.0,0.0,0.0,0.0,0.0,0.0,0.0,0.0,0.0,0.0,0.0,0.0,0.0,0.0,0.0,0.0,0.0,0.0,0.0,0.0,0.0,0.0,0.0,0.0,0.0,0.0,0.0,0.0,0.0,0.0,0.0,0.0,0.0,0.0,0.0,0.0,0.0,0.0,0.0,0.0,0.0,0.0,0.0,0.0,0.0,0.0,0.0,0.0,0.0,0.0,0.0,0.0,0.0,0.0,0.0,0.0,0.0,0.0,0.0,0.0,0.0,0.0,0.0,0.0,0.0,0.0,0.0,0.0,0.0,0.0,0.0,0.0,0.0,0.0,0.0,1.8088,8.9674,-0.6891,-1.0376,29.8462,-6.958,84.6826,-1.0876,-35.1178,0.6443,0.1965,-0.2291,0.7027,0.1196,9.0679,-0.3158,144.3481,33.3862,0.7324,87.215,7.2729,-24.9115,0.6622,0.1933,-0.1131,0.7151,-1.3829,9.6995,-2.9237,53.2227,-85.9375,0.6104,102.5464,5.4053,-26.6968,0.7514,0.2086,-0.1085,0.6165,-1.5456,0.6125,9.2593,1.3428,-13.6108,0.9766,1.8127,6.2183,-93.3728,-0.0286,0.0487,-0.7259,0.6855,-0.4498,13.5037,-2.9572,-192.3218,-3.0518,60.791,88.5938,-8.866,-23.0493,0.6933,0.0849,-0.1955,0.6884,2.3112,9.0583,-11.3504,-117.5537,-3.6011,-13.0005,148.678,-14.3152,-30.8496,0.9299,0.2217,-0.1869,0.2263,5.7039,-6.9289,0.9283,-210.8765,56.0303,10.3149,63.3636,4.5044,-91.2085,0.3433,0.3984,-0.5931,0.6096,0,0,48913,18469,55045,0,0,0,4373,9765,43019,0,0,0,0,0,0,0,0,0,0,0,0,0,0,0,0,0,0,0,0,0,0,0,0,0
1777289585.251637,372772,1777289580.8781278,1777289583.6517394,1777289581.5573132,0,0,-2773.611545562744,-679.1853904724121,1,1,0.0,0.0,0.0,0.0,0.0,0.0,0.0,0.0,0.0,0.0,0.0,0.0,0.0,0.0,0.0,0.0,0.0,0.0,0.0,0.0,0.0,0.0,0.0,0.0,0.0,0.0,0.0,0.0,0.0,0.0,0.0,0.0,0.0,0.0,0.0,0.0,0.0,0.0,0.0,0.0,0.0,0.0,0.0,0.0,0.0,0.0,0.0,0.0,0.0,0.0,0.0,0.0,0.0,0.0,0.0,0.0,0.0,0.0,0.0,0.0,0.0,0.0,0.0,0.0,0.0,0.0,0.0,0.0,0.0,0.0,0.0,0.0,0.0,0.0,0.0,1.8088,8.9674,-0.6891,-1.0376,29.8462,-6.958,84.6826,-1.0876,-35.1178,0.6443,0.1965,-0.2291,0.7027,0.1196,9.0679,-0.3158,144.3481,33.3862,0.7324,87.215,7.2729,-24.9115,0.6622,0.1933,-0.1131,0.7151,-1.3829,9.6995,-2.9237,53.2227,-85.9375,0.6104,102.5464,5.4053,-26.6968,0.7514,0.2086,-0.1085,0.6165,-1.5456,0.6125,9.2593,1.3428,-13.6108,0.9766,1.8127,6.2183,-93.3728,-0.0286,0.0487,-0.7259,0.6855,-0.4498,13.5037,-2.9572,-192.3218,-3.0518,60.791,88.5938,-8.866,-23.0493,0.6933,0.0849,-0.1955,0.6884,2.3112,9.0583,-11.3504,-117.5537,-3.6011,-13.0005,148.678,-14.3152,-30.8496,0.9299,0.2217,-0.1869,0.2263,5.7039,-6.9289,0.9283,-210.8765,56.0303,10.3149,63.3636,4.5044,-91.2085,0.3433,0.3984,-0.5931,0.6096,0,0,48913,18469,55045,0,0,0,4373,9765,43019,0,0,0,0,0,0,0,0,0,0,0,0,0,0,0,0,0,0,0,0,0,0,0,0,0
1777289585.251637,372773,1777289580.8872707,1777289583.6517394,1777289581.5573132,0,0,-2764.4686698913574,-670.0425148010254,1,1,0.0,0.0,0.0,0.0,0.0,0.0,0.0,0.0,0.0,0.0,0.0,0.0,0.0,0.0,0.0,0.0,0.0,0.0,0.0,0.0,0.0,0.0,0.0,0.0,0.0,0.0,0.0,0.0,0.0,0.0,0.0,0.0,0.0,0.0,0.0,0.0,0.0,0.0,0.0,0.0,0.0,0.0,0.0,0.0,0.0,0.0,0.0,0.0,0.0,0.0,0.0,0.0,0.0,0.0,0.0,0.0,0.0,0.0,0.0,0.0,0.0,0.0,0.0,0.0,0.0,0.0,0.0,0.0,0.0,0.0,0.0,0.0,0.0,0.0,0.0,1.8088,8.9674,-0.6891,-1.0376,29.8462,-6.958,84.6826,-1.0876,-35.1178,0.6443,0.1965,-0.2291,0.7027,0.1196,9.0679,-0.3158,144.3481,33.3862,0.7324,87.215,7.2729,-24.9115,0.6622,0.1933,-0.1131,0.7151,-1.3829,9.6995,-2.9237,53.2227,-85.9375,0.6104,102.5464,5.4053,-26.6968,0.7514,0.2086,-0.1085,0.6165,-1.5456,0.6125,9.2593,1.3428,-13.6108,0.9766,1.8127,6.2183,-93.3728,-0.0286,0.0487,-0.7259,0.6855,-0.4498,13.5037,-2.9572,-192.3218,-3.0518,60.791,88.5938,-8.866,-23.0493,0.6933,0.0849,-0.1955,0.6884,2.3112,9.0583,-11.3504,-117.5537,-3.6011,-13.0005,148.678,-14.3152,-30.8496,0.9299,0.2217,-0.1869,0.2263,5.7039,-6.9289,0.9283,-210.8765,56.0303,10.3149,63.3636,4.5044,-91.2085,0.3433,0.3984,-0.5931,0.6096,0,0,48913,18469,55045,0,0,0,4373,9765,43019,0,0,0,0,0,0,0,0,0,0,0,0,0,0,0,0,0,0,0,0,0,0,0,0,0
1777289585.251637,372774,1777289580.901549,1777289583.6517394,1777289581.5573132,0,0,-2750.190258026123,-655.764102935791,1,1,0.0,0.0,0.0,0.0,0.0,0.0,0.0,0.0,0.0,0.0,0.0,0.0,0.0,0.0,0.0,0.0,0.0,0.0,0.0,0.0,0.0,0.0,0.0,0.0,0.0,0.0,0.0,0.0,0.0,0.0,0.0,0.0,0.0,0.0,0.0,0.0,0.0,0.0,0.0,0.0,0.0,0.0,0.0,0.0,0.0,0.0,0.0,0.0,0.0,0.0,0.0,0.0,0.0,0.0,0.0,0.0,0.0,0.0,0.0,0.0,0.0,0.0,0.0,0.0,0.0,0.0,0.0,0.0,0.0,0.0,0.0,0.0,0.0,0.0,0.0,1.8088,8.9674,-0.6891,-1.0376,29.8462,-6.958,84.6826,-1.0876,-35.1178,0.6443,0.1965,-0.2291,0.7027,0.1196,9.0679,-0.3158,144.3481,33.3862,0.7324,87.215,7.2729,-24.9115,0.6622,0.1933,-0.1131,0.7151,-1.3829,9.6995,-2.9237,53.2227,-85.9375,0.6104,102.5464,5.4053,-26.6968,0.7514,0.2086,-0.1085,0.6165,-1.5456,0.6125,9.2593,1.3428,-13.6108,0.9766,1.8127,6.2183,-93.3728,-0.0286,0.0487,-0.7259,0.6855,-0.4498,13.5037,-2.9572,-192.3218,-3.0518,60.791,88.5938,-8.866,-23.0493,0.6933,0.0849,-0.1955,0.6884,2.3112,9.0583,-11.3504,-117.5537,-3.6011,-13.0005,148.678,-14.3152,-30.8496,0.9299,0.2217,-0.1869,0.2263,5.7039,-6.9289,0.9283,-210.8765,56.0303,10.3149,63.3636,4.5044,-91.2085,0.3433,0.3984,-0.5931,0.6096,0,0,48913,18469,55045,0,0,0,4373,9765,43019,0,0,0,0,0,0,0,0,0,0,0,0,0,0,0,0,0,0,0,0,0,0,0,0,0
1777289585.251637,372775,1777289580.907564,1777289583.6517394,1777289581.5573132,0,0,-2744.175434112549,-649.7492790222168,1,1,0.0,0.0,0.0,0.0,0.0,0.0,0.0,0.0,0.0,0.0,0.0,0.0,0.0,0.0,0.0,0.0,0.0,0.0,0.0,0.0,0.0,0.0,0.0,0.0,0.0,0.0,0.0,0.0,0.0,0.0,0.0,0.0,0.0,0.0,0.0,0.0,0.0,0.0,0.0,0.0,0.0,0.0,0.0,0.0,0.0,0.0,0.0,0.0,0.0,0.0,0.0,0.0,0.0,0.0,0.0,0.0,0.0,0.0,0.0,0.0,0.0,0.0,0.0,0.0,0.0,0.0,0.0,0.0,0.0,0.0,0.0,0.0,0.0,0.0,0.0,1.8088,8.9674,-0.6891,-1.0376,29.8462,-6.958,84.6826,-1.0876,-35.1178,0.6443,0.1965,-0.2291,0.7027,0.1196,9.0679,-0.3158,144.3481,33.3862,0.7324,87.215,7.2729,-24.9115,0.6622,0.1933,-0.1131,0.7151,-1.3829,9.6995,-2.9237,53.2227,-85.9375,0.6104,102.5464,5.4053,-26.6968,0.7514,0.2086,-0.1085,0.6165,-1.5456,0.6125,9.2593,1.3428,-13.6108,0.9766,1.8127,6.2183,-93.3728,-0.0286,0.0487,-0.7259,0.6855,-0.4498,13.5037,-2.9572,-192.3218,-3.0518,60.791,88.5938,-8.866,-23.0493,0.6933,0.0849,-0.1955,0.6884,2.3112,9.0583,-11.3504,-117.5537,-3.6011,-13.0005,148.678,-14.3152,-30.8496,0.9299,0.2217,-0.1869,0.2263,5.7039,-6.9289,0.9283,-210.8765,56.0303,10.3149,63.3636,4.5044,-91.2085,0.3433,0.3984,-0.5931,0.6096,0,0,48913,18469,55045,0,0,0,4373,9765,43019,0,0,0,0,0,0,0,0,0,0,0,0,0,0,0,0,0,0,0,0,0,0,0,0,0
1777289585.251637,372776,1777289580.917821,1777289583.6517394,1777289581.5573132,0,0,-2733.9184284210205,-639.4922733306885,1,1,0.0,0.0,0.0,0.0,0.0,0.0,0.0,0.0,0.0,0.0,0.0,0.0,0.0,0.0,0.0,0.0,0.0,0.0,0.0,0.0,0.0,0.0,0.0,0.0,0.0,0.0,0.0,0.0,0.0,0.0,0.0,0.0,0.0,0.0,0.0,0.0,0.0,0.0,0.0,0.0,0.0,0.0,0.0,0.0,0.0,0.0,0.0,0.0,0.0,0.0,0.0,0.0,0.0,0.0,0.0,0.0,0.0,0.0,0.0,0.0,0.0,0.0,0.0,0.0,0.0,0.0,0.0,0.0,0.0,0.0,0.0,0.0,0.0,0.0,0.0,1.8088,8.9674,-0.6891,-1.0376,29.8462,-6.958,84.6826,-1.0876,-35.1178,0.6443,0.1965,-0.2291,0.7027,0.1196,9.0679,-0.3158,144.3481,33.3862,0.7324,87.215,7.2729,-24.9115,0.6622,0.1933,-0.1131,0.7151,-1.3829,9.6995,-2.9237,53.2227,-85.9375,0.6104,102.5464,5.4053,-26.6968,0.7514,0.2086,-0.1085,0.6165,-1.5456,0.6125,9.2593,1.3428,-13.6108,0.9766,1.8127,6.2183,-93.3728,-0.0286,0.0487,-0.7259,0.6855,-0.4498,13.5037,-2.9572,-192.3218,-3.0518,60.791,88.5938,-8.866,-23.0493,0.6933,0.0849,-0.1955,0.6884,2.3112,9.0583,-11.3504,-117.5537,-3.6011,-13.0005,148.678,-14.3152,-30.8496,0.9299,0.2217,-0.1869,0.2263,5.7039,-6.9289,0.9283,-210.8765,56.0303,10.3149,63.3636,4.5044,-91.2085,0.3433,0.3984,-0.5931,0.6096,0,0,48913,18469,55045,0,0,0,4373,9765,43019,0,0,0,0,0,0,0,0,0,0,0,0,0,0,0,0,0,0,0,0,0,0,0,0,0
1777289585.251637,372777,1777289580.9279547,1777289583.6517394,1777289581.5573132,0,0,-2723.7846851348877,-629.3585300445557,1,1,0.0,0.0,0.0,0.0,0.0,0.0,0.0,0.0,0.0,0.0,0.0,0.0,0.0,0.0,0.0,0.0,0.0,0.0,0.0,0.0,0.0,0.0,0.0,0.0,0.0,0.0,0.0,0.0,0.0,0.0,0.0,0.0,0.0,0.0,0.0,0.0,0.0,0.0,0.0,0.0,0.0,0.0,0.0,0.0,0.0,0.0,0.0,0.0,0.0,0.0,0.0,0.0,0.0,0.0,0.0,0.0,0.0,0.0,0.0,0.0,0.0,0.0,0.0,0.0,0.0,0.0,0.0,0.0,0.0,0.0,0.0,0.0,0.0,0.0,0.0,1.8088,8.9674,-0.6891,-1.0376,29.8462,-6.958,84.6826,-1.0876,-35.1178,0.6443,0.1965,-0.2291,0.7027,0.1196,9.0679,-0.3158,144.3481,33.3862,0.7324,87.215,7.2729,-24.9115,0.6622,0.1933,-0.1131,0.7151,-1.3829,9.6995,-2.9237,53.2227,-85.9375,0.6104,102.5464,5.4053,-26.6968,0.7514,0.2086,-0.1085,0.6165,-1.5456,0.6125,9.2593,1.3428,-13.6108,0.9766,1.8127,6.2183,-93.3728,-0.0286,0.0487,-0.7259,0.6855,-0.4498,13.5037,-2.9572,-192.3218,-3.0518,60.791,88.5938,-8.866,-23.0493,0.6933,0.0849,-0.1955,0.6884,2.3112,9.0583,-11.3504,-117.5537,-3.6011,-13.0005,148.678,-14.3152,-30.8496,0.9299,0.2217,-0.1869,0.2263,5.7039,-6.9289,0.9283,-210.8765,56.0303,10.3149,63.3636,4.5044,-91.2085,0.3433,0.3984,-0.5931,0.6096,0,0,48913,18469,55045,0,0,0,4373,9765,43019,0,0,0,0,0,0,0,0,0,0,0,0,0,0,0,0,0,0,0,0,0,0,0,0,0
1777289585.251637,372778,1777289580.9380672,1777289583.6517394,1777289581.5573132,0,0,-2713.672161102295,-619.2460060119629,1,1,0.0,0.0,0.0,0.0,0.0,0.0,0.0,0.0,0.0,0.0,0.0,0.0,0.0,0.0,0.0,0.0,0.0,0.0,0.0,0.0,0.0,0.0,0.0,0.0,0.0,0.0,0.0,0.0,0.0,0.0,0.0,0.0,0.0,0.0,0.0,0.0,0.0,0.0,0.0,0.0,0.0,0.0,0.0,0.0,0.0,0.0,0.0,0.0,0.0,0.0,0.0,0.0,0.0,0.0,0.0,0.0,0.0,0.0,0.0,0.0,0.0,0.0,0.0,0.0,0.0,0.0,0.0,0.0,0.0,0.0,0.0,0.0,0.0,0.0,0.0,1.8088,8.9674,-0.6891,-1.0376,29.8462,-6.958,84.6826,-1.0876,-35.1178,0.6443,0.1965,-0.2291,0.7027,0.1196,9.0679,-0.3158,144.3481,33.3862,0.7324,87.215,7.2729,-24.9115,0.6622,0.1933,-0.1131,0.7151,-1.3829,9.6995,-2.9237,53.2227,-85.9375,0.6104,102.5464,5.4053,-26.6968,0.7514,0.2086,-0.1085,0.6165,-1.5456,0.6125,9.2593,1.3428,-13.6108,0.9766,1.8127,6.2183,-93.3728,-0.0286,0.0487,-0.7259,0.6855,-0.4498,13.5037,-2.9572,-192.3218,-3.0518,60.791,88.5938,-8.866,-23.0493,0.6933,0.0849,-0.1955,0.6884,2.3112,9.0583,-11.3504,-117.5537,-3.6011,-13.0005,148.678,-14.3152,-30.8496,0.9299,0.2217,-0.1869,0.2263,5.7039,-6.9289,0.9283,-210.8765,56.0303,10.3149,63.3636,4.5044,-91.2085,0.3433,0.3984,-0.5931,0.6096,0,0,48913,18469,55045,0,0,0,4373,9765,43019,0,0,0,0,0,0,0,0,0,0,0,0,0,0,0,0,0,0,0,0,0,0,0,0,0
1777289585.251637,372779,1777289580.9546156,1777289583.6517394,1777289581.5573132,0,0,-2697.1237659454346,-602.6976108551025,1,1,0.0,0.0,0.0,0.0,0.0,0.0,0.0,0.0,0.0,0.0,0.0,0.0,0.0,0.0,0.0,0.0,0.0,0.0,0.0,0.0,0.0,0.0,0.0,0.0,0.0,0.0,0.0,0.0,0.0,0.0,0.0,0.0,0.0,0.0,0.0,0.0,0.0,0.0,0.0,0.0,0.0,0.0,0.0,0.0,0.0,0.0,0.0,0.0,0.0,0.0,0.0,0.0,0.0,0.0,0.0,0.0,0.0,0.0,0.0,0.0,0.0,0.0,0.0,0.0,0.0,0.0,0.0,0.0,0.0,0.0,0.0,0.0,0.0,0.0,0.0,1.8088,8.9674,-0.6891,-1.0376,29.8462,-6.958,84.6826,-1.0876,-35.1178,0.6443,0.1965,-0.2291,0.7027,0.1196,9.0679,-0.3158,144.3481,33.3862,0.7324,87.215,7.2729,-24.9115,0.6622,0.1933,-0.1131,0.7151,-1.3829,9.6995,-2.9237,53.2227,-85.9375,0.6104,102.5464,5.4053,-26.6968,0.7514,0.2086,-0.1085,0.6165,-1.5456,0.6125,9.2593,1.3428,-13.6108,0.9766,1.8127,6.2183,-93.3728,-0.0286,0.0487,-0.7259,0.6855,-0.4498,13.5037,-2.9572,-192.3218,-3.0518,60.791,88.5938,-8.866,-23.0493,0.6933,0.0849,-0.1955,0.6884,2.3112,9.0583,-11.3504,-117.5537,-3.6011,-13.0005,148.678,-14.3152,-30.8496,0.9299,0.2217,-0.1869,0.2263,5.7039,-6.9289,0.9283,-210.8765,56.0303,10.3149,63.3636,4.5044,-91.2085,0.3433,0.3984,-0.5931,0.6096,0,0,48913,18469,55045,0,0,0,4373,9765,43019,0,0,0,0,0,0,0,0,0,0,0,0,0,0,0,0,0,0,0,0,0,0,0,0,0
1777289585.252637,372780,1777289580.9567447,1777289583.6517394,1777289581.5573132,0,0,-2694.9946880340576,-600.5685329437256,1,1,0.0,0.0,0.0,0.0,0.0,0.0,0.0,0.0,0.0,0.0,0.0,0.0,0.0,0.0,0.0,0.0,0.0,0.0,0.0,0.0,0.0,0.0,0.0,0.0,0.0,0.0,0.0,0.0,0.0,0.0,0.0,0.0,0.0,0.0,0.0,0.0,0.0,0.0,0.0,0.0,0.0,0.0,0.0,0.0,0.0,0.0,0.0,0.0,0.0,0.0,0.0,0.0,0.0,0.0,0.0,0.0,0.0,0.0,0.0,0.0,0.0,0.0,0.0,0.0,0.0,0.0,0.0,0.0,0.0,0.0,0.0,0.0,0.0,0.0,0.0,1.8088,8.9674,-0.6891,-1.0376,29.8462,-6.958,84.6826,-1.0876,-35.1178,0.6443,0.1965,-0.2291,0.7027,0.1196,9.0679,-0.3158,144.3481,33.3862,0.7324,87.215,7.2729,-24.9115,0.6622,0.1933,-0.1131,0.7151,-1.3829,9.6995,-2.9237,53.2227,-85.9375,0.6104,102.5464,5.4053,-26.6968,0.7514,0.2086,-0.1085,0.6165,-1.5456,0.6125,9.2593,1.3428,-13.6108,0.9766,1.8127,6.2183,-93.3728,-0.0286,0.0487,-0.7259,0.6855,-0.4498,13.5037,-2.9572,-192.3218,-3.0518,60.791,88.5938,-8.866,-23.0493,0.6933,0.0849,-0.1955,0.6884,2.3112,9.0583,-11.3504,-117.5537,-3.6011,-13.0005,148.678,-14.3152,-30.8496,0.9299,0.2217,-0.1869,0.2263,5.7039,-6.9289,0.9283,-210.8765,56.0303,10.3149,63.3636,4.5044,-91.2085,0.3433,0.3984,-0.5931,0.6096,0,0,48913,18469,55045,0,0,0,4373,9765,43019,0,0,0,0,0,0,0,0,0,0,0,0,0,0,0,0,0,0,0,0,0,0,0,0,0
1777289585.252637,372781,1777289580.9673903,1777289583.6517394,1777289581.5573132,0,0,-2684.3490600585938,-589.9229049682617,1,1,0.0,0.0,0.0,0.0,0.0,0.0,0.0,0.0,0.0,0.0,0.0,0.0,0.0,0.0,0.0,0.0,0.0,0.0,0.0,0.0,0.0,0.0,0.0,0.0,0.0,0.0,0.0,0.0,0.0,0.0,0.0,0.0,0.0,0.0,0.0,0.0,0.0,0.0,0.0,0.0,0.0,0.0,0.0,0.0,0.0,0.0,0.0,0.0,0.0,0.0,0.0,0.0,0.0,0.0,0.0,0.0,0.0,0.0,0.0,0.0,0.0,0.0,0.0,0.0,0.0,0.0,0.0,0.0,0.0,0.0,0.0,0.0,0.0,0.0,0.0,1.8088,8.9674,-0.6891,-1.0376,29.8462,-6.958,84.6826,-1.0876,-35.1178,0.6443,0.1965,-0.2291,0.7027,0.1196,9.0679,-0.3158,144.3481,33.3862,0.7324,87.215,7.2729,-24.9115,0.6622,0.1933,-0.1131,0.7151,-1.3829,9.6995,-2.9237,53.2227,-85.9375,0.6104,102.5464,5.4053,-26.6968,0.7514,0.2086,-0.1085,0.6165,-1.5456,0.6125,9.2593,1.3428,-13.6108,0.9766,1.8127,6.2183,-93.3728,-0.0286,0.0487,-0.7259,0.6855,-0.4498,13.5037,-2.9572,-192.3218,-3.0518,60.791,88.5938,-8.866,-23.0493,0.6933,0.0849,-0.1955,0.6884,2.3112,9.0583,-11.3504,-117.5537,-3.6011,-13.0005,148.678,-14.3152,-30.8496,0.9299,0.2217,-0.1869,0.2263,5.7039,-6.9289,0.9283,-210.8765,56.0303,10.3149,63.3636,4.5044,-91.2085,0.3433,0.3984,-0.5931,0.6096,0,0,48913,18469,55045,0,0,0,4373,9765,43019,0,0,0,0,0,0,0,0,0,0,0,0,0,0,0,0,0,0,0,0,0,0,0,0,0
1777289585.252637,372782,1777289580.9772553,1777289583.6517394,1777289581.5573132,0,0,-2674.4840145111084,-580.0578594207764,1,1,0.0,0.0,0.0,0.0,0.0,0.0,0.0,0.0,0.0,0.0,0.0,0.0,0.0,0.0,0.0,0.0,0.0,0.0,0.0,0.0,0.0,0.0,0.0,0.0,0.0,0.0,0.0,0.0,0.0,0.0,0.0,0.0,0.0,0.0,0.0,0.0,0.0,0.0,0.0,0.0,0.0,0.0,0.0,0.0,0.0,0.0,0.0,0.0,0.0,0.0,0.0,0.0,0.0,0.0,0.0,0.0,0.0,0.0,0.0,0.0,0.0,0.0,0.0,0.0,0.0,0.0,0.0,0.0,0.0,0.0,0.0,0.0,0.0,0.0,0.0,1.8088,8.9674,-0.6891,-1.0376,29.8462,-6.958,84.6826,-1.0876,-35.1178,0.6443,0.1965,-0.2291,0.7027,0.1196,9.0679,-0.3158,144.3481,33.3862,0.7324,87.215,7.2729,-24.9115,0.6622,0.1933,-0.1131,0.7151,-1.3829,9.6995,-2.9237,53.2227,-85.9375,0.6104,102.5464,5.4053,-26.6968,0.7514,0.2086,-0.1085,0.6165,-1.5456,0.6125,9.2593,1.3428,-13.6108,0.9766,1.8127,6.2183,-93.3728,-0.0286,0.0487,-0.7259,0.6855,-0.4498,13.5037,-2.9572,-192.3218,-3.0518,60.791,88.5938,-8.866,-23.0493,0.6933,0.0849,-0.1955,0.6884,2.3112,9.0583,-11.3504,-117.5537,-3.6011,-13.0005,148.678,-14.3152,-30.8496,0.9299,0.2217,-0.1869,0.2263,5.7039,-6.9289,0.9283,-210.8765,56.0303,10.3149,63.3636,4.5044,-91.2085,0.3433,0.3984,-0.5931,0.6096,0,0,48913,18469,55045,0,0,0,4373,9765,43019,0,0,0,0,0,0,0,0,0,0,0,0,0,0,0,0,0,0,0,0,0,0,0,0,0
1777289585.252637,372783,1777289580.9883103,1777289583.6517394,1777289581.5573132,0,0,-2663.429021835327,-569.0028667449951,1,1,0.0,0.0,0.0,0.0,0.0,0.0,0.0,0.0,0.0,0.0,0.0,0.0,0.0,0.0,0.0,0.0,0.0,0.0,0.0,0.0,0.0,0.0,0.0,0.0,0.0,0.0,0.0,0.0,0.0,0.0,0.0,0.0,0.0,0.0,0.0,0.0,0.0,0.0,0.0,0.0,0.0,0.0,0.0,0.0,0.0,0.0,0.0,0.0,0.0,0.0,0.0,0.0,0.0,0.0,0.0,0.0,0.0,0.0,0.0,0.0,0.0,0.0,0.0,0.0,0.0,0.0,0.0,0.0,0.0,0.0,0.0,0.0,0.0,0.0,0.0,1.8088,8.9674,-0.6891,-1.0376,29.8462,-6.958,84.6826,-1.0876,-35.1178,0.6443,0.1965,-0.2291,0.7027,0.1196,9.0679,-0.3158,144.3481,33.3862,0.7324,87.215,7.2729,-24.9115,0.6622,0.1933,-0.1131,0.7151,-1.3829,9.6995,-2.9237,53.2227,-85.9375,0.6104,102.5464,5.4053,-26.6968,0.7514,0.2086,-0.1085,0.6165,-1.5456,0.6125,9.2593,1.3428,-13.6108,0.9766,1.8127,6.2183,-93.3728,-0.0286,0.0487,-0.7259,0.6855,-0.4498,13.5037,-2.9572,-192.3218,-3.0518,60.791,88.5938,-8.866,-23.0493,0.6933,0.0849,-0.1955,0.6884,2.3112,9.0583,-11.3504,-117.5537,-3.6011,-13.0005,148.678,-14.3152,-30.8496,0.9299,0.2217,-0.1869,0.2263,5.7039,-6.9289,0.9283,-210.8765,56.0303,10.3149,63.3636,4.5044,-91.2085,0.3433,0.3984,-0.5931,0.6096,0,0,48913,18469,55045,0,0,0,4373,9765,43019,0,0,0,0,0,0,0,0,0,0,0,0,0,0,0,0,0,0,0,0,0,0,0,0,0
1777289585.252637,372784,1777289580.998287,1777289583.6517394,1777289581.5573132,0,0,-2653.4523963928223,-559.0262413024902,1,1,0.0,0.0,0.0,0.0,0.0,0.0,0.0,0.0,0.0,0.0,0.0,0.0,0.0,0.0,0.0,0.0,0.0,0.0,0.0,0.0,0.0,0.0,0.0,0.0,0.0,0.0,0.0,0.0,0.0,0.0,0.0,0.0,0.0,0.0,0.0,0.0,0.0,0.0,0.0,0.0,0.0,0.0,0.0,0.0,0.0,0.0,0.0,0.0,0.0,0.0,0.0,0.0,0.0,0.0,0.0,0.0,0.0,0.0,0.0,0.0,0.0,0.0,0.0,0.0,0.0,0.0,0.0,0.0,0.0,0.0,0.0,0.0,0.0,0.0,0.0,1.8088,8.9674,-0.6891,-1.0376,29.8462,-6.958,84.6826,-1.0876,-35.1178,0.6443,0.1965,-0.2291,0.7027,0.1196,9.0679,-0.3158,144.3481,33.3862,0.7324,87.215,7.2729,-24.9115,0.6622,0.1933,-0.1131,0.7151,-1.3829,9.6995,-2.9237,53.2227,-85.9375,0.6104,102.5464,5.4053,-26.6968,0.7514,0.2086,-0.1085,0.6165,-1.5456,0.6125,9.2593,1.3428,-13.6108,0.9766,1.8127,6.2183,-93.3728,-0.0286,0.0487,-0.7259,0.6855,-0.4498,13.5037,-2.9572,-192.3218,-3.0518,60.791,88.5938,-8.866,-23.0493,0.6933,0.0849,-0.1955,0.6884,2.3112,9.0583,-11.3504,-117.5537,-3.6011,-13.0005,148.678,-14.3152,-30.8496,0.9299,0.2217,-0.1869,0.2263,5.7039,-6.9289,0.9283,-210.8765,56.0303,10.3149,63.3636,4.5044,-91.2085,0.3433,0.3984,-0.5931,0.6096,0,0,48913,18469,55045,0,0,0,4373,9765,43019,0,0,0,0,0,0,0,0,0,0,0,0,0,0,0,0,0,0,0,0,0,0,0,0,0
1777289585.252637,372785,1777289581.010298,1777289583.6517394,1777289581.5573132,0,0,-2641.4413452148438,-547.0151901245117,1,1,0.0,0.0,0.0,0.0,0.0,0.0,0.0,0.0,0.0,0.0,0.0,0.0,0.0,0.0,0.0,0.0,0.0,0.0,0.0,0.0,0.0,0.0,0.0,0.0,0.0,0.0,0.0,0.0,0.0,0.0,0.0,0.0,0.0,0.0,0.0,0.0,0.0,0.0,0.0,0.0,0.0,0.0,0.0,0.0,0.0,0.0,0.0,0.0,0.0,0.0,0.0,0.0,0.0,0.0,0.0,0.0,0.0,0.0,0.0,0.0,0.0,0.0,0.0,0.0,0.0,0.0,0.0,0.0,0.0,0.0,0.0,0.0,0.0,0.0,0.0,1.8088,8.9674,-0.6891,-1.0376,29.8462,-6.958,84.6826,-1.0876,-35.1178,0.6443,0.1965,-0.2291,0.7027,0.1196,9.0679,-0.3158,144.3481,33.3862,0.7324,87.215,7.2729,-24.9115,0.6622,0.1933,-0.1131,0.7151,-1.3829,9.6995,-2.9237,53.2227,-85.9375,0.6104,102.5464,5.4053,-26.6968,0.7514,0.2086,-0.1085,0.6165,-1.5456,0.6125,9.2593,1.3428,-13.6108,0.9766,1.8127,6.2183,-93.3728,-0.0286,0.0487,-0.7259,0.6855,-0.4498,13.5037,-2.9572,-192.3218,-3.0518,60.791,88.5938,-8.866,-23.0493,0.6933,0.0849,-0.1955,0.6884,2.3112,9.0583,-11.3504,-117.5537,-3.6011,-13.0005,148.678,-14.3152,-30.8496,0.9299,0.2217,-0.1869,0.2263,5.7039,-6.9289,0.9283,-210.8765,56.0303,10.3149,63.3636,4.5044,-91.2085,0.3433,0.3984,-0.5931,0.6096,0,0,48913,18469,55045,0,0,0,4373,9765,43019,0,0,0,0,0,0,0,0,0,0,0,0,0,0,0,0,0,0,0,0,0,0,0,0,0
1777289585.252637,372786,1777289581.017861,1777289583.6517394,1777289581.5573132,0,0,-2633.878469467163,-539.452314376831,1,1,0.0,0.0,0.0,0.0,0.0,0.0,0.0,0.0,0.0,0.0,0.0,0.0,0.0,0.0,0.0,0.0,0.0,0.0,0.0,0.0,0.0,0.0,0.0,0.0,0.0,0.0,0.0,0.0,0.0,0.0,0.0,0.0,0.0,0.0,0.0,0.0,0.0,0.0,0.0,0.0,0.0,0.0,0.0,0.0,0.0,0.0,0.0,0.0,0.0,0.0,0.0,0.0,0.0,0.0,0.0,0.0,0.0,0.0,0.0,0.0,0.0,0.0,0.0,0.0,0.0,0.0,0.0,0.0,0.0,0.0,0.0,0.0,0.0,0.0,0.0,1.8088,8.9674,-0.6891,-1.0376,29.8462,-6.958,84.6826,-1.0876,-35.1178,0.6443,0.1965,-0.2291,0.7027,0.1196,9.0679,-0.3158,144.3481,33.3862,0.7324,87.215,7.2729,-24.9115,0.6622,0.1933,-0.1131,0.7151,-1.3829,9.6995,-2.9237,53.2227,-85.9375,0.6104,102.5464,5.4053,-26.6968,0.7514,0.2086,-0.1085,0.6165,-1.5456,0.6125,9.2593,1.3428,-13.6108,0.9766,1.8127,6.2183,-93.3728,-0.0286,0.0487,-0.7259,0.6855,-0.4498,13.5037,-2.9572,-192.3218,-3.0518,60.791,88.5938,-8.866,-23.0493,0.6933,0.0849,-0.1955,0.6884,2.3112,9.0583,-11.3504,-117.5537,-3.6011,-13.0005,148.678,-14.3152,-30.8496,0.9299,0.2217,-0.1869,0.2263,5.7039,-6.9289,0.9283,-210.8765,56.0303,10.3149,63.3636,4.5044,-91.2085,0.3433,0.3984,-0.5931,0.6096,0,0,48913,18469,55045,0,0,0,4373,9765,43019,0,0,0,0,0,0,0,0,0,0,0,0,0,0,0,0,0,0,0,0,0,0,0,0,0
1777289585.252637,372787,1777289581.0272827,1777289583.6517394,1777289581.5573132,0,0,-2624.4566440582275,-530.0304889678955,1,1,0.0,0.0,0.0,0.0,0.0,0.0,0.0,0.0,0.0,0.0,0.0,0.0,0.0,0.0,0.0,0.0,0.0,0.0,0.0,0.0,0.0,0.0,0.0,0.0,0.0,0.0,0.0,0.0,0.0,0.0,0.0,0.0,0.0,0.0,0.0,0.0,0.0,0.0,0.0,0.0,0.0,0.0,0.0,0.0,0.0,0.0,0.0,0.0,0.0,0.0,0.0,0.0,0.0,0.0,0.0,0.0,0.0,0.0,0.0,0.0,0.0,0.0,0.0,0.0,0.0,0.0,0.0,0.0,0.0,0.0,0.0,0.0,0.0,0.0,0.0,1.8088,8.9674,-0.6891,-1.0376,29.8462,-6.958,84.6826,-1.0876,-35.1178,0.6443,0.1965,-0.2291,0.7027,0.1196,9.0679,-0.3158,144.3481,33.3862,0.7324,87.215,7.2729,-24.9115,0.6622,0.1933,-0.1131,0.7151,-1.3829,9.6995,-2.9237,53.2227,-85.9375,0.6104,102.5464,5.4053,-26.6968,0.7514,0.2086,-0.1085,0.6165,-1.5456,0.6125,9.2593,1.3428,-13.6108,0.9766,1.8127,6.2183,-93.3728,-0.0286,0.0487,-0.7259,0.6855,-0.4498,13.5037,-2.9572,-192.3218,-3.0518,60.791,88.5938,-8.866,-23.0493,0.6933,0.0849,-0.1955,0.6884,2.3112,9.0583,-11.3504,-117.5537,-3.6011,-13.0005,148.678,-14.3152,-30.8496,0.9299,0.2217,-0.1869,0.2263,5.7039,-6.9289,0.9283,-210.8765,56.0303,10.3149,63.3636,4.5044,-91.2085,0.3433,0.3984,-0.5931,0.6096,0,0,48913,18469,55045,0,0,0,4373,9765,43019,0,0,0,0,0,0,0,0,0,0,0,0,0,0,0,0,0,0,0,0,0,0,0,0,0
1777289585.252637,372788,1777289581.0380344,1777289583.6517394,1777289581.5573132,0,0,-2613.7049198150635,-519.2787647247314,1,1,0.0,0.0,0.0,0.0,0.0,0.0,0.0,0.0,0.0,0.0,0.0,0.0,0.0,0.0,0.0,0.0,0.0,0.0,0.0,0.0,0.0,0.0,0.0,0.0,0.0,0.0,0.0,0.0,0.0,0.0,0.0,0.0,0.0,0.0,0.0,0.0,0.0,0.0,0.0,0.0,0.0,0.0,0.0,0.0,0.0,0.0,0.0,0.0,0.0,0.0,0.0,0.0,0.0,0.0,0.0,0.0,0.0,0.0,0.0,0.0,0.0,0.0,0.0,0.0,0.0,0.0,0.0,0.0,0.0,0.0,0.0,0.0,0.0,0.0,0.0,1.8088,8.9674,-0.6891,-1.0376,29.8462,-6.958,84.6826,-1.0876,-35.1178,0.6443,0.1965,-0.2291,0.7027,0.1196,9.0679,-0.3158,144.3481,33.3862,0.7324,87.215,7.2729,-24.9115,0.6622,0.1933,-0.1131,0.7151,-1.3829,9.6995,-2.9237,53.2227,-85.9375,0.6104,102.5464,5.4053,-26.6968,0.7514,0.2086,-0.1085,0.6165,-1.5456,0.6125,9.2593,1.3428,-13.6108,0.9766,1.8127,6.2183,-93.3728,-0.0286,0.0487,-0.7259,0.6855,-0.4498,13.5037,-2.9572,-192.3218,-3.0518,60.791,88.5938,-8.866,-23.0493,0.6933,0.0849,-0.1955,0.6884,2.3112,9.0583,-11.3504,-117.5537,-3.6011,-13.0005,148.678,-14.3152,-30.8496,0.9299,0.2217,-0.1869,0.2263,5.7039,-6.9289,0.9283,-210.8765,56.0303,10.3149,63.3636,4.5044,-91.2085,0.3433,0.3984,-0.5931,0.6096,0,0,48913,18469,55045,0,0,0,4373,9765,43019,0,0,0,0,0,0,0,0,0,0,0,0,0,0,0,0,0,0,0,0,0,0,0,0,0
1777289585.2536376,372789,1777289581.0481477,1777289583.6517394,1777289581.5573132,0,0,-2603.5916805267334,-509.16552543640137,1,1,0.0,0.0,0.0,0.0,0.0,0.0,0.0,0.0,0.0,0.0,0.0,0.0,0.0,0.0,0.0,0.0,0.0,0.0,0.0,0.0,0.0,0.0,0.0,0.0,0.0,0.0,0.0,0.0,0.0,0.0,0.0,0.0,0.0,0.0,0.0,0.0,0.0,0.0,0.0,0.0,0.0,0.0,0.0,0.0,0.0,0.0,0.0,0.0,0.0,0.0,0.0,0.0,0.0,0.0,0.0,0.0,0.0,0.0,0.0,0.0,0.0,0.0,0.0,0.0,0.0,0.0,0.0,0.0,0.0,0.0,0.0,0.0,0.0,0.0,0.0,1.8088,8.9674,-0.6891,-1.0376,29.8462,-6.958,84.6826,-1.0876,-35.1178,0.6443,0.1965,-0.2291,0.7027,0.1196,9.0679,-0.3158,144.3481,33.3862,0.7324,87.215,7.2729,-24.9115,0.6622,0.1933,-0.1131,0.7151,-1.3829,9.6995,-2.9237,53.2227,-85.9375,0.6104,102.5464,5.4053,-26.6968,0.7514,0.2086,-0.1085,0.6165,-1.5456,0.6125,9.2593,1.3428,-13.6108,0.9766,1.8127,6.2183,-93.3728,-0.0286,0.0487,-0.7259,0.6855,-0.4498,13.5037,-2.9572,-192.3218,-3.0518,60.791,88.5938,-8.866,-23.0493,0.6933,0.0849,-0.1955,0.6884,2.3112,9.0583,-11.3504,-117.5537,-3.6011,-13.0005,148.678,-14.3152,-30.8496,0.9299,0.2217,-0.1869,0.2263,5.7039,-6.9289,0.9283,-210.8765,56.0303,10.3149,63.3636,4.5044,-91.2085,0.3433,0.3984,-0.5931,0.6096,0,0,48913,18469,55045,0,0,0,4373,9765,43019,0,0,0,0,0,0,0,0,0,0,0,0,0,0,0,0,0,0,0,0,0,0,0,0,0
1777289585.2536376,372790,1777289581.0576708,1777289583.6517394,1777289581.5573132,0,0,-2594.0685272216797,-499.64237213134766,1,1,0.0,0.0,0.0,0.0,0.0,0.0,0.0,0.0,0.0,0.0,0.0,0.0,0.0,0.0,0.0,0.0,0.0,0.0,0.0,0.0,0.0,0.0,0.0,0.0,0.0,0.0,0.0,0.0,0.0,0.0,0.0,0.0,0.0,0.0,0.0,0.0,0.0,0.0,0.0,0.0,0.0,0.0,0.0,0.0,0.0,0.0,0.0,0.0,0.0,0.0,0.0,0.0,0.0,0.0,0.0,0.0,0.0,0.0,0.0,0.0,0.0,0.0,0.0,0.0,0.0,0.0,0.0,0.0,0.0,0.0,0.0,0.0,0.0,0.0,0.0,1.8088,8.9674,-0.6891,-1.0376,29.8462,-6.958,84.6826,-1.0876,-35.1178,0.6443,0.1965,-0.2291,0.7027,0.1196,9.0679,-0.3158,144.3481,33.3862,0.7324,87.215,7.2729,-24.9115,0.6622,0.1933,-0.1131,0.7151,-1.3829,9.6995,-2.9237,53.2227,-85.9375,0.6104,102.5464,5.4053,-26.6968,0.7514,0.2086,-0.1085,0.6165,-1.5456,0.6125,9.2593,1.3428,-13.6108,0.9766,1.8127,6.2183,-93.3728,-0.0286,0.0487,-0.7259,0.6855,-0.4498,13.5037,-2.9572,-192.3218,-3.0518,60.791,88.5938,-8.866,-23.0493,0.6933,0.0849,-0.1955,0.6884,2.3112,9.0583,-11.3504,-117.5537,-3.6011,-13.0005,148.678,-14.3152,-30.8496,0.9299,0.2217,-0.1869,0.2263,5.7039,-6.9289,0.9283,-210.8765,56.0303,10.3149,63.3636,4.5044,-91.2085,0.3433,0.3984,-0.5931,0.6096,0,0,48913,18469,55045,0,0,0,4373,9765,43019,0,0,0,0,0,0,0,0,0,0,0,0,0,0,0,0,0,0,0,0,0,0,0,0,0
1777289585.2536376,372791,1777289581.0801263,1777289583.6517394,1777289581.5573132,0,0,-2571.613073348999,-477.186918258667,1,1,0.0,0.0,0.0,0.0,0.0,0.0,0.0,0.0,0.0,0.0,0.0,0.0,0.0,0.0,0.0,0.0,0.0,0.0,0.0,0.0,0.0,0.0,0.0,0.0,0.0,0.0,0.0,0.0,0.0,0.0,0.0,0.0,0.0,0.0,0.0,0.0,0.0,0.0,0.0,0.0,0.0,0.0,0.0,0.0,0.0,0.0,0.0,0.0,0.0,0.0,0.0,0.0,0.0,0.0,0.0,0.0,0.0,0.0,0.0,0.0,0.0,0.0,0.0,0.0,0.0,0.0,0.0,0.0,0.0,0.0,0.0,0.0,0.0,0.0,0.0,1.8088,8.9674,-0.6891,-1.0376,29.8462,-6.958,84.6826,-1.0876,-35.1178,0.6443,0.1965,-0.2291,0.7027,0.1196,9.0679,-0.3158,144.3481,33.3862,0.7324,87.215,7.2729,-24.9115,0.6622,0.1933,-0.1131,0.7151,-1.3829,9.6995,-2.9237,53.2227,-85.9375,0.6104,102.5464,5.4053,-26.6968,0.7514,0.2086,-0.1085,0.6165,-1.5456,0.6125,9.2593,1.3428,-13.6108,0.9766,1.8127,6.2183,-93.3728,-0.0286,0.0487,-0.7259,0.6855,-0.4498,13.5037,-2.9572,-192.3218,-3.0518,60.791,88.5938,-8.866,-23.0493,0.6933,0.0849,-0.1955,0.6884,2.3112,9.0583,-11.3504,-117.5537,-3.6011,-13.0005,148.678,-14.3152,-30.8496,0.9299,0.2217,-0.1869,0.2263,5.7039,-6.9289,0.9283,-210.8765,56.0303,10.3149,63.3636,4.5044,-91.2085,0.3433,0.3984,-0.5931,0.6096,0,0,48913,18469,55045,0,0,0,4373,9765,43019,0,0,0,0,0,0,0,0,0,0,0,0,0,0,0,0,0,0,0,0,0,0,0,0,0
1777289585.2536376,372792,1777289581.0823576,1777289583.6517394,1777289581.5573132,0,0,-2569.3817138671875,-474.95555877685547,1,1,0.0,0.0,0.0,0.0,0.0,0.0,0.0,0.0,0.0,0.0,0.0,0.0,0.0,0.0,0.0,0.0,0.0,0.0,0.0,0.0,0.0,0.0,0.0,0.0,0.0,0.0,0.0,0.0,0.0,0.0,0.0,0.0,0.0,0.0,0.0,0.0,0.0,0.0,0.0,0.0,0.0,0.0,0.0,0.0,0.0,0.0,0.0,0.0,0.0,0.0,0.0,0.0,0.0,0.0,0.0,0.0,0.0,0.0,0.0,0.0,0.0,0.0,0.0,0.0,0.0,0.0,0.0,0.0,0.0,0.0,0.0,0.0,0.0,0.0,0.0,1.8088,8.9674,-0.6891,-1.0376,29.8462,-6.958,84.6826,-1.0876,-35.1178,0.6443,0.1965,-0.2291,0.7027,0.1196,9.0679,-0.3158,144.3481,33.3862,0.7324,87.215,7.2729,-24.9115,0.6622,0.1933,-0.1131,0.7151,-1.3829,9.6995,-2.9237,53.2227,-85.9375,0.6104,102.5464,5.4053,-26.6968,0.7514,0.2086,-0.1085,0.6165,-1.5456,0.6125,9.2593,1.3428,-13.6108,0.9766,1.8127,6.2183,-93.3728,-0.0286,0.0487,-0.7259,0.6855,-0.4498,13.5037,-2.9572,-192.3218,-3.0518,60.791,88.5938,-8.866,-23.0493,0.6933,0.0849,-0.1955,0.6884,2.3112,9.0583,-11.3504,-117.5537,-3.6011,-13.0005,148.678,-14.3152,-30.8496,0.9299,0.2217,-0.1869,0.2263,5.7039,-6.9289,0.9283,-210.8765,56.0303,10.3149,63.3636,4.5044,-91.2085,0.3433,0.3984,-0.5931,0.6096,0,0,48913,18469,55045,0,0,0,4373,9765,43019,0,0,0,0,0,0,0,0,0,0,0,0,0,0,0,0,0,0,0,0,0,0,0,0,0
1777289585.2536376,372793,1777289581.0879557,1777289583.6517394,1777289581.5573132,0,0,-2563.783645629883,-469.3574905395508,1,1,0.0,0.0,0.0,0.0,0.0,0.0,0.0,0.0,0.0,0.0,0.0,0.0,0.0,0.0,0.0,0.0,0.0,0.0,0.0,0.0,0.0,0.0,0.0,0.0,0.0,0.0,0.0,0.0,0.0,0.0,0.0,0.0,0.0,0.0,0.0,0.0,0.0,0.0,0.0,0.0,0.0,0.0,0.0,0.0,0.0,0.0,0.0,0.0,0.0,0.0,0.0,0.0,0.0,0.0,0.0,0.0,0.0,0.0,0.0,0.0,0.0,0.0,0.0,0.0,0.0,0.0,0.0,0.0,0.0,0.0,0.0,0.0,0.0,0.0,0.0,1.8088,8.9674,-0.6891,-1.0376,29.8462,-6.958,84.6826,-1.0876,-35.1178,0.6443,0.1965,-0.2291,0.7027,0.1196,9.0679,-0.3158,144.3481,33.3862,0.7324,87.215,7.2729,-24.9115,0.6622,0.1933,-0.1131,0.7151,-1.3829,9.6995,-2.9237,53.2227,-85.9375,0.6104,102.5464,5.4053,-26.6968,0.7514,0.2086,-0.1085,0.6165,-1.5456,0.6125,9.2593,1.3428,-13.6108,0.9766,1.8127,6.2183,-93.3728,-0.0286,0.0487,-0.7259,0.6855,-0.4498,13.5037,-2.9572,-192.3218,-3.0518,60.791,88.5938,-8.866,-23.0493,0.6933,0.0849,-0.1955,0.6884,2.3112,9.0583,-11.3504,-117.5537,-3.6011,-13.0005,148.678,-14.3152,-30.8496,0.9299,0.2217,-0.1869,0.2263,5.7039,-6.9289,0.9283,-210.8765,56.0303,10.3149,63.3636,4.5044,-91.2085,0.3433,0.3984,-0.5931,0.6096,0,0,48913,18469,55045,0,0,0,4373,9765,43019,0,0,0,0,0,0,0,0,0,0,0,0,0,0,0,0,0,0,0,0,0,0,0,0,0
1777289585.2536376,372794,1777289581.0982723,1777289583.6517394,1777289581.5573132,0,0,-2553.467035293579,-459.04088020324707,1,1,0.0,0.0,0.0,0.0,0.0,0.0,0.0,0.0,0.0,0.0,0.0,0.0,0.0,0.0,0.0,0.0,0.0,0.0,0.0,0.0,0.0,0.0,0.0,0.0,0.0,0.0,0.0,0.0,0.0,0.0,0.0,0.0,0.0,0.0,0.0,0.0,0.0,0.0,0.0,0.0,0.0,0.0,0.0,0.0,0.0,0.0,0.0,0.0,0.0,0.0,0.0,0.0,0.0,0.0,0.0,0.0,0.0,0.0,0.0,0.0,0.0,0.0,0.0,0.0,0.0,0.0,0.0,0.0,0.0,0.0,0.0,0.0,0.0,0.0,0.0,1.8088,8.9674,-0.6891,-1.0376,29.8462,-6.958,84.6826,-1.0876,-35.1178,0.6443,0.1965,-0.2291,0.7027,0.1196,9.0679,-0.3158,144.3481,33.3862,0.7324,87.215,7.2729,-24.9115,0.6622,0.1933,-0.1131,0.7151,-1.3829,9.6995,-2.9237,53.2227,-85.9375,0.6104,102.5464,5.4053,-26.6968,0.7514,0.2086,-0.1085,0.6165,-1.5456,0.6125,9.2593,1.3428,-13.6108,0.9766,1.8127,6.2183,-93.3728,-0.0286,0.0487,-0.7259,0.6855,-0.4498,13.5037,-2.9572,-192.3218,-3.0518,60.791,88.5938,-8.866,-23.0493,0.6933,0.0849,-0.1955,0.6884,2.3112,9.0583,-11.3504,-117.5537,-3.6011,-13.0005,148.678,-14.3152,-30.8496,0.9299,0.2217,-0.1869,0.2263,5.7039,-6.9289,0.9283,-210.8765,56.0303,10.3149,63.3636,4.5044,-91.2085,0.3433,0.3984,-0.5931,0.6096,0,0,48913,18469,55045,0,0,0,4373,9765,43019,0,0,0,0,0,0,0,0,0,0,0,0,0,0,0,0,0,0,0,0,0,0,0,0,0
1777289585.2536376,372795,1777289581.1087627,1777289583.6517394,1777289581.5573132,0,0,-2542.9766178131104,-448.5504627227783,1,1,0.0,0.0,0.0,0.0,0.0,0.0,0.0,0.0,0.0,0.0,0.0,0.0,0.0,0.0,0.0,0.0,0.0,0.0,0.0,0.0,0.0,0.0,0.0,0.0,0.0,0.0,0.0,0.0,0.0,0.0,0.0,0.0,0.0,0.0,0.0,0.0,0.0,0.0,0.0,0.0,0.0,0.0,0.0,0.0,0.0,0.0,0.0,0.0,0.0,0.0,0.0,0.0,0.0,0.0,0.0,0.0,0.0,0.0,0.0,0.0,0.0,0.0,0.0,0.0,0.0,0.0,0.0,0.0,0.0,0.0,0.0,0.0,0.0,0.0,0.0,1.8088,8.9674,-0.6891,-1.0376,29.8462,-6.958,84.6826,-1.0876,-35.1178,0.6443,0.1965,-0.2291,0.7027,0.1196,9.0679,-0.3158,144.3481,33.3862,0.7324,87.215,7.2729,-24.9115,0.6622,0.1933,-0.1131,0.7151,-1.3829,9.6995,-2.9237,53.2227,-85.9375,0.6104,102.5464,5.4053,-26.6968,0.7514,0.2086,-0.1085,0.6165,-1.5456,0.6125,9.2593,1.3428,-13.6108,0.9766,1.8127,6.2183,-93.3728,-0.0286,0.0487,-0.7259,0.6855,-0.4498,13.5037,-2.9572,-192.3218,-3.0518,60.791,88.5938,-8.866,-23.0493,0.6933,0.0849,-0.1955,0.6884,2.3112,9.0583,-11.3504,-117.5537,-3.6011,-13.0005,148.678,-14.3152,-30.8496,0.9299,0.2217,-0.1869,0.2263,5.7039,-6.9289,0.9283,-210.8765,56.0303,10.3149,63.3636,4.5044,-91.2085,0.3433,0.3984,-0.5931,0.6096,0,0,48913,18469,55045,0,0,0,4373,9765,43019,0,0,0,0,0,0,0,0,0,0,0,0,0,0,0,0,0,0,0,0,0,0,0,0,0
1777289585.2536376,372796,1777289581.1178806,1777289583.6517394,1777289581.5573132,0,0,-2533.8587760925293,-439.43262100219727,1,1,0.0,0.0,0.0,0.0,0.0,0.0,0.0,0.0,0.0,0.0,0.0,0.0,0.0,0.0,0.0,0.0,0.0,0.0,0.0,0.0,0.0,0.0,0.0,0.0,0.0,0.0,0.0,0.0,0.0,0.0,0.0,0.0,0.0,0.0,0.0,0.0,0.0,0.0,0.0,0.0,0.0,0.0,0.0,0.0,0.0,0.0,0.0,0.0,0.0,0.0,0.0,0.0,0.0,0.0,0.0,0.0,0.0,0.0,0.0,0.0,0.0,0.0,0.0,0.0,0.0,0.0,0.0,0.0,0.0,0.0,0.0,0.0,0.0,0.0,0.0,1.8088,8.9674,-0.6891,-1.0376,29.8462,-6.958,84.6826,-1.0876,-35.1178,0.6443,0.1965,-0.2291,0.7027,0.1196,9.0679,-0.3158,144.3481,33.3862,0.7324,87.215,7.2729,-24.9115,0.6622,0.1933,-0.1131,0.7151,-1.3829,9.6995,-2.9237,53.2227,-85.9375,0.6104,102.5464,5.4053,-26.6968,0.7514,0.2086,-0.1085,0.6165,-1.5456,0.6125,9.2593,1.3428,-13.6108,0.9766,1.8127,6.2183,-93.3728,-0.0286,0.0487,-0.7259,0.6855,-0.4498,13.5037,-2.9572,-192.3218,-3.0518,60.791,88.5938,-8.866,-23.0493,0.6933,0.0849,-0.1955,0.6884,2.3112,9.0583,-11.3504,-117.5537,-3.6011,-13.0005,148.678,-14.3152,-30.8496,0.9299,0.2217,-0.1869,0.2263,5.7039,-6.9289,0.9283,-210.8765,56.0303,10.3149,63.3636,4.5044,-91.2085,0.3433,0.3984,-0.5931,0.6096,0,0,48913,18469,55045,0,0,0,4373,9765,43019,0,0,0,0,0,0,0,0,0,0,0,0,0,0,0,0,0,0,0,0,0,0,0,0,0
1777289585.2536376,372797,1777289581.127501,1777289583.6517394,1777289581.5573132,0,0,-2524.238348007202,-429.8121929168701,1,1,0.0,0.0,0.0,0.0,0.0,0.0,0.0,0.0,0.0,0.0,0.0,0.0,0.0,0.0,0.0,0.0,0.0,0.0,0.0,0.0,0.0,0.0,0.0,0.0,0.0,0.0,0.0,0.0,0.0,0.0,0.0,0.0,0.0,0.0,0.0,0.0,0.0,0.0,0.0,0.0,0.0,0.0,0.0,0.0,0.0,0.0,0.0,0.0,0.0,0.0,0.0,0.0,0.0,0.0,0.0,0.0,0.0,0.0,0.0,0.0,0.0,0.0,0.0,0.0,0.0,0.0,0.0,0.0,0.0,0.0,0.0,0.0,0.0,0.0,0.0,1.8088,8.9674,-0.6891,-1.0376,29.8462,-6.958,84.6826,-1.0876,-35.1178,0.6443,0.1965,-0.2291,0.7027,0.1196,9.0679,-0.3158,144.3481,33.3862,0.7324,87.215,7.2729,-24.9115,0.6622,0.1933,-0.1131,0.7151,-1.3829,9.6995,-2.9237,53.2227,-85.9375,0.6104,102.5464,5.4053,-26.6968,0.7514,0.2086,-0.1085,0.6165,-1.5456,0.6125,9.2593,1.3428,-13.6108,0.9766,1.8127,6.2183,-93.3728,-0.0286,0.0487,-0.7259,0.6855,-0.4498,13.5037,-2.9572,-192.3218,-3.0518,60.791,88.5938,-8.866,-23.0493,0.6933,0.0849,-0.1955,0.6884,2.3112,9.0583,-11.3504,-117.5537,-3.6011,-13.0005,148.678,-14.3152,-30.8496,0.9299,0.2217,-0.1869,0.2263,5.7039,-6.9289,0.9283,-210.8765,56.0303,10.3149,63.3636,4.5044,-91.2085,0.3433,0.3984,-0.5931,0.6096,0,0,48913,18469,55045,0,0,0,4373,9765,43019,0,0,0,0,0,0,0,0,0,0,0,0,0,0,0,0,0,0,0,0,0,0,0,0,0
1777289585.2536376,372798,1777289581.1378906,1777289583.6517394,1777289581.5573132,0,0,-2513.8487815856934,-419.4226264953613,1,1,0.0,0.0,0.0,0.0,0.0,0.0,0.0,0.0,0.0,0.0,0.0,0.0,0.0,0.0,0.0,0.0,0.0,0.0,0.0,0.0,0.0,0.0,0.0,0.0,0.0,0.0,0.0,0.0,0.0,0.0,0.0,0.0,0.0,0.0,0.0,0.0,0.0,0.0,0.0,0.0,0.0,0.0,0.0,0.0,0.0,0.0,0.0,0.0,0.0,0.0,0.0,0.0,0.0,0.0,0.0,0.0,0.0,0.0,0.0,0.0,0.0,0.0,0.0,0.0,0.0,0.0,0.0,0.0,0.0,0.0,0.0,0.0,0.0,0.0,0.0,1.8088,8.9674,-0.6891,-1.0376,29.8462,-6.958,84.6826,-1.0876,-35.1178,0.6443,0.1965,-0.2291,0.7027,0.1196,9.0679,-0.3158,144.3481,33.3862,0.7324,87.215,7.2729,-24.9115,0.6622,0.1933,-0.1131,0.7151,-1.3829,9.6995,-2.9237,53.2227,-85.9375,0.6104,102.5464,5.4053,-26.6968,0.7514,0.2086,-0.1085,0.6165,-1.5456,0.6125,9.2593,1.3428,-13.6108,0.9766,1.8127,6.2183,-93.3728,-0.0286,0.0487,-0.7259,0.6855,-0.4498,13.5037,-2.9572,-192.3218,-3.0518,60.791,88.5938,-8.866,-23.0493,0.6933,0.0849,-0.1955,0.6884,2.3112,9.0583,-11.3504,-117.5537,-3.6011,-13.0005,148.678,-14.3152,-30.8496,0.9299,0.2217,-0.1869,0.2263,5.7039,-6.9289,0.9283,-210.8765,56.0303,10.3149,63.3636,4.5044,-91.2085,0.3433,0.3984,-0.5931,0.6096,0,0,48913,18469,55045,0,0,0,4373,9765,43019,0,0,0,0,0,0,0,0,0,0,0,0,0,0,0,0,0,0,0,0,0,0,0,0,0
1777289585.2536376,372799,1777289581.1600976,1777289583.6517394,1777289581.5573132,0,0,-2491.6417598724365,-397.2156047821045,1,1,0.0,0.0,0.0,0.0,0.0,0.0,0.0,0.0,0.0,0.0,0.0,0.0,0.0,0.0,0.0,0.0,0.0,0.0,0.0,0.0,0.0,0.0,0.0,0.0,0.0,0.0,0.0,0.0,0.0,0.0,0.0,0.0,0.0,0.0,0.0,0.0,0.0,0.0,0.0,0.0,0.0,0.0,0.0,0.0,0.0,0.0,0.0,0.0,0.0,0.0,0.0,0.0,0.0,0.0,0.0,0.0,0.0,0.0,0.0,0.0,0.0,0.0,0.0,0.0,0.0,0.0,0.0,0.0,0.0,0.0,0.0,0.0,0.0,0.0,0.0,1.8088,8.9674,-0.6891,-1.0376,29.8462,-6.958,84.6826,-1.0876,-35.1178,0.6443,0.1965,-0.2291,0.7027,0.1196,9.0679,-0.3158,144.3481,33.3862,0.7324,87.215,7.2729,-24.9115,0.6622,0.1933,-0.1131,0.7151,-1.3829,9.6995,-2.9237,53.2227,-85.9375,0.6104,102.5464,5.4053,-26.6968,0.7514,0.2086,-0.1085,0.6165,-1.5456,0.6125,9.2593,1.3428,-13.6108,0.9766,1.8127,6.2183,-93.3728,-0.0286,0.0487,-0.7259,0.6855,-0.4498,13.5037,-2.9572,-192.3218,-3.0518,60.791,88.5938,-8.866,-23.0493,0.6933,0.0849,-0.1955,0.6884,2.3112,9.0583,-11.3504,-117.5537,-3.6011,-13.0005,148.678,-14.3152,-30.8496,0.9299,0.2217,-0.1869,0.2263,5.7039,-6.9289,0.9283,-210.8765,56.0303,10.3149,63.3636,4.5044,-91.2085,0.3433,0.3984,-0.5931,0.6096,0,0,48913,18469,55045,0,0,0,4373,9765,43019,0,0,0,0,0,0,0,0,0,0,0,0,0,0,0,0,0,0,0,0,0,0,0,0,0
1777289585.2546372,372800,1777289581.1624,1777289583.6517394,1777289581.5573132,0,0,-2489.3393516540527,-394.9131965637207,1,1,0.0,0.0,0.0,0.0,0.0,0.0,0.0,0.0,0.0,0.0,0.0,0.0,0.0,0.0,0.0,0.0,0.0,0.0,0.0,0.0,0.0,0.0,0.0,0.0,0.0,0.0,0.0,0.0,0.0,0.0,0.0,0.0,0.0,0.0,0.0,0.0,0.0,0.0,0.0,0.0,0.0,0.0,0.0,0.0,0.0,0.0,0.0,0.0,0.0,0.0,0.0,0.0,0.0,0.0,0.0,0.0,0.0,0.0,0.0,0.0,0.0,0.0,0.0,0.0,0.0,0.0,0.0,0.0,0.0,0.0,0.0,0.0,0.0,0.0,0.0,1.8088,8.9674,-0.6891,-1.0376,29.8462,-6.958,84.6826,-1.0876,-35.1178,0.6443,0.1965,-0.2291,0.7027,0.1196,9.0679,-0.3158,144.3481,33.3862,0.7324,87.215,7.2729,-24.9115,0.6622,0.1933,-0.1131,0.7151,-1.3829,9.6995,-2.9237,53.2227,-85.9375,0.6104,102.5464,5.4053,-26.6968,0.7514,0.2086,-0.1085,0.6165,-1.5456,0.6125,9.2593,1.3428,-13.6108,0.9766,1.8127,6.2183,-93.3728,-0.0286,0.0487,-0.7259,0.6855,-0.4498,13.5037,-2.9572,-192.3218,-3.0518,60.791,88.5938,-8.866,-23.0493,0.6933,0.0849,-0.1955,0.6884,2.3112,9.0583,-11.3504,-117.5537,-3.6011,-13.0005,148.678,-14.3152,-30.8496,0.9299,0.2217,-0.1869,0.2263,5.7039,-6.9289,0.9283,-210.8765,56.0303,10.3149,63.3636,4.5044,-91.2085,0.3433,0.3984,-0.5931,0.6096,0,0,48913,18469,55045,0,0,0,4373,9765,43019,0,0,0,0,0,0,0,0,0,0,0,0,0,0,0,0,0,0,0,0,0,0,0,0,0
1777289585.2546372,372801,1777289581.167405,1777289583.6517394,1777289581.5573132,0,0,-2484.3344688415527,-389.9083137512207,1,1,0.0,0.0,0.0,0.0,0.0,0.0,0.0,0.0,0.0,0.0,0.0,0.0,0.0,0.0,0.0,0.0,0.0,0.0,0.0,0.0,0.0,0.0,0.0,0.0,0.0,0.0,0.0,0.0,0.0,0.0,0.0,0.0,0.0,0.0,0.0,0.0,0.0,0.0,0.0,0.0,0.0,0.0,0.0,0.0,0.0,0.0,0.0,0.0,0.0,0.0,0.0,0.0,0.0,0.0,0.0,0.0,0.0,0.0,0.0,0.0,0.0,0.0,0.0,0.0,0.0,0.0,0.0,0.0,0.0,0.0,0.0,0.0,0.0,0.0,0.0,1.8088,8.9674,-0.6891,-1.0376,29.8462,-6.958,84.6826,-1.0876,-35.1178,0.6443,0.1965,-0.2291,0.7027,0.1196,9.0679,-0.3158,144.3481,33.3862,0.7324,87.215,7.2729,-24.9115,0.6622,0.1933,-0.1131,0.7151,-1.3829,9.6995,-2.9237,53.2227,-85.9375,0.6104,102.5464,5.4053,-26.6968,0.7514,0.2086,-0.1085,0.6165,-1.5456,0.6125,9.2593,1.3428,-13.6108,0.9766,1.8127,6.2183,-93.3728,-0.0286,0.0487,-0.7259,0.6855,-0.4498,13.5037,-2.9572,-192.3218,-3.0518,60.791,88.5938,-8.866,-23.0493,0.6933,0.0849,-0.1955,0.6884,2.3112,9.0583,-11.3504,-117.5537,-3.6011,-13.0005,148.678,-14.3152,-30.8496,0.9299,0.2217,-0.1869,0.2263,5.7039,-6.9289,0.9283,-210.8765,56.0303,10.3149,63.3636,4.5044,-91.2085,0.3433,0.3984,-0.5931,0.6096,0,0,48913,18469,55045,0,0,0,4373,9765,43019,0,0,0,0,0,0,0,0,0,0,0,0,0,0,0,0,0,0,0,0,0,0,0,0,0
1777289585.2546372,372802,1777289581.178241,1777289583.6517394,1777289581.5573132,0,0,-2473.4983444213867,-379.0721893310547,1,1,0.0,0.0,0.0,0.0,0.0,0.0,0.0,0.0,0.0,0.0,0.0,0.0,0.0,0.0,0.0,0.0,0.0,0.0,0.0,0.0,0.0,0.0,0.0,0.0,0.0,0.0,0.0,0.0,0.0,0.0,0.0,0.0,0.0,0.0,0.0,0.0,0.0,0.0,0.0,0.0,0.0,0.0,0.0,0.0,0.0,0.0,0.0,0.0,0.0,0.0,0.0,0.0,0.0,0.0,0.0,0.0,0.0,0.0,0.0,0.0,0.0,0.0,0.0,0.0,0.0,0.0,0.0,0.0,0.0,0.0,0.0,0.0,0.0,0.0,0.0,1.8088,8.9674,-0.6891,-1.0376,29.8462,-6.958,84.6826,-1.0876,-35.1178,0.6443,0.1965,-0.2291,0.7027,0.1196,9.0679,-0.3158,144.3481,33.3862,0.7324,87.215,7.2729,-24.9115,0.6622,0.1933,-0.1131,0.7151,-1.3829,9.6995,-2.9237,53.2227,-85.9375,0.6104,102.5464,5.4053,-26.6968,0.7514,0.2086,-0.1085,0.6165,-1.5456,0.6125,9.2593,1.3428,-13.6108,0.9766,1.8127,6.2183,-93.3728,-0.0286,0.0487,-0.7259,0.6855,-0.4498,13.5037,-2.9572,-192.3218,-3.0518,60.791,88.5938,-8.866,-23.0493,0.6933,0.0849,-0.1955,0.6884,2.3112,9.0583,-11.3504,-117.5537,-3.6011,-13.0005,148.678,-14.3152,-30.8496,0.9299,0.2217,-0.1869,0.2263,5.7039,-6.9289,0.9283,-210.8765,56.0303,10.3149,63.3636,4.5044,-91.2085,0.3433,0.3984,-0.5931,0.6096,0,0,48913,18469,55045,0,0,0,4373,9765,43019,0,0,0,0,0,0,0,0,0,0,0,0,0,0,0,0,0,0,0,0,0,0,0,0,0
1777289585.2546372,372803,1777289581.1880994,1777289583.6517394,1777289581.5573132,0,0,-2463.639974594116,-369.2138195037842,1,1,0.0,0.0,0.0,0.0,0.0,0.0,0.0,0.0,0.0,0.0,0.0,0.0,0.0,0.0,0.0,0.0,0.0,0.0,0.0,0.0,0.0,0.0,0.0,0.0,0.0,0.0,0.0,0.0,0.0,0.0,0.0,0.0,0.0,0.0,0.0,0.0,0.0,0.0,0.0,0.0,0.0,0.0,0.0,0.0,0.0,0.0,0.0,0.0,0.0,0.0,0.0,0.0,0.0,0.0,0.0,0.0,0.0,0.0,0.0,0.0,0.0,0.0,0.0,0.0,0.0,0.0,0.0,0.0,0.0,0.0,0.0,0.0,0.0,0.0,0.0,1.8088,8.9674,-0.6891,-1.0376,29.8462,-6.958,84.6826,-1.0876,-35.1178,0.6443,0.1965,-0.2291,0.7027,0.1196,9.0679,-0.3158,144.3481,33.3862,0.7324,87.215,7.2729,-24.9115,0.6622,0.1933,-0.1131,0.7151,-1.3829,9.6995,-2.9237,53.2227,-85.9375,0.6104,102.5464,5.4053,-26.6968,0.7514,0.2086,-0.1085,0.6165,-1.5456,0.6125,9.2593,1.3428,-13.6108,0.9766,1.8127,6.2183,-93.3728,-0.0286,0.0487,-0.7259,0.6855,-0.4498,13.5037,-2.9572,-192.3218,-3.0518,60.791,88.5938,-8.866,-23.0493,0.6933,0.0849,-0.1955,0.6884,2.3112,9.0583,-11.3504,-117.5537,-3.6011,-13.0005,148.678,-14.3152,-30.8496,0.9299,0.2217,-0.1869,0.2263,5.7039,-6.9289,0.9283,-210.8765,56.0303,10.3149,63.3636,4.5044,-91.2085,0.3433,0.3984,-0.5931,0.6096,0,0,48913,18469,55045,0,0,0,4373,9765,43019,0,0,0,0,0,0,0,0,0,0,0,0,0,0,0,0,0,0,0,0,0,0,0,0,0
1777289585.2546372,372804,1777289581.1976886,1777289583.6517394,1777289581.5573132,0,0,-2454.0507793426514,-359.62462425231934,1,1,0.0,0.0,0.0,0.0,0.0,0.0,0.0,0.0,0.0,0.0,0.0,0.0,0.0,0.0,0.0,0.0,0.0,0.0,0.0,0.0,0.0,0.0,0.0,0.0,0.0,0.0,0.0,0.0,0.0,0.0,0.0,0.0,0.0,0.0,0.0,0.0,0.0,0.0,0.0,0.0,0.0,0.0,0.0,0.0,0.0,0.0,0.0,0.0,0.0,0.0,0.0,0.0,0.0,0.0,0.0,0.0,0.0,0.0,0.0,0.0,0.0,0.0,0.0,0.0,0.0,0.0,0.0,0.0,0.0,0.0,0.0,0.0,0.0,0.0,0.0,1.8088,8.9674,-0.6891,-1.0376,29.8462,-6.958,84.6826,-1.0876,-35.1178,0.6443,0.1965,-0.2291,0.7027,0.1196,9.0679,-0.3158,144.3481,33.3862,0.7324,87.215,7.2729,-24.9115,0.6622,0.1933,-0.1131,0.7151,-1.3829,9.6995,-2.9237,53.2227,-85.9375,0.6104,102.5464,5.4053,-26.6968,0.7514,0.2086,-0.1085,0.6165,-1.5456,0.6125,9.2593,1.3428,-13.6108,0.9766,1.8127,6.2183,-93.3728,-0.0286,0.0487,-0.7259,0.6855,-0.4498,13.5037,-2.9572,-192.3218,-3.0518,60.791,88.5938,-8.866,-23.0493,0.6933,0.0849,-0.1955,0.6884,2.3112,9.0583,-11.3504,-117.5537,-3.6011,-13.0005,148.678,-14.3152,-30.8496,0.9299,0.2217,-0.1869,0.2263,5.7039,-6.9289,0.9283,-210.8765,56.0303,10.3149,63.3636,4.5044,-91.2085,0.3433,0.3984,-0.5931,0.6096,0,0,48913,18469,55045,0,0,0,4373,9765,43019,0,0,0,0,0,0,0,0,0,0,0,0,0,0,0,0,0,0,0,0,0,0,0,0,0
1777289585.2546372,372805,1777289581.2078722,1777289583.6517394,1777289581.5573132,0,0,-2443.8672065734863,-349.4410514831543,1,1,0.0,0.0,0.0,0.0,0.0,0.0,0.0,0.0,0.0,0.0,0.0,0.0,0.0,0.0,0.0,0.0,0.0,0.0,0.0,0.0,0.0,0.0,0.0,0.0,0.0,0.0,0.0,0.0,0.0,0.0,0.0,0.0,0.0,0.0,0.0,0.0,0.0,0.0,0.0,0.0,0.0,0.0,0.0,0.0,0.0,0.0,0.0,0.0,0.0,0.0,0.0,0.0,0.0,0.0,0.0,0.0,0.0,0.0,0.0,0.0,0.0,0.0,0.0,0.0,0.0,0.0,0.0,0.0,0.0,0.0,0.0,0.0,0.0,0.0,0.0,1.8088,8.9674,-0.6891,-1.0376,29.8462,-6.958,84.6826,-1.0876,-35.1178,0.6443,0.1965,-0.2291,0.7027,0.1196,9.0679,-0.3158,144.3481,33.3862,0.7324,87.215,7.2729,-24.9115,0.6622,0.1933,-0.1131,0.7151,-1.3829,9.6995,-2.9237,53.2227,-85.9375,0.6104,102.5464,5.4053,-26.6968,0.7514,0.2086,-0.1085,0.6165,-1.5456,0.6125,9.2593,1.3428,-13.6108,0.9766,1.8127,6.2183,-93.3728,-0.0286,0.0487,-0.7259,0.6855,-0.4498,13.5037,-2.9572,-192.3218,-3.0518,60.791,88.5938,-8.866,-23.0493,0.6933,0.0849,-0.1955,0.6884,2.3112,9.0583,-11.3504,-117.5537,-3.6011,-13.0005,148.678,-14.3152,-30.8496,0.9299,0.2217,-0.1869,0.2263,5.7039,-6.9289,0.9283,-210.8765,56.0303,10.3149,63.3636,4.5044,-91.2085,0.3433,0.3984,-0.5931,0.6096,0,0,48913,18469,55045,0,0,0,4373,9765,43019,0,0,0,0,0,0,0,0,0,0,0,0,0,0,0,0,0,0,0,0,0,0,0,0,0
1777289585.2546372,372806,1777289581.223562,1777289583.6517394,1777289581.5573132,0,0,-2428.1773567199707,-333.7512016296387,1,1,0.0,0.0,0.0,0.0,0.0,0.0,0.0,0.0,0.0,0.0,0.0,0.0,0.0,0.0,0.0,0.0,0.0,0.0,0.0,0.0,0.0,0.0,0.0,0.0,0.0,0.0,0.0,0.0,0.0,0.0,0.0,0.0,0.0,0.0,0.0,0.0,0.0,0.0,0.0,0.0,0.0,0.0,0.0,0.0,0.0,0.0,0.0,0.0,0.0,0.0,0.0,0.0,0.0,0.0,0.0,0.0,0.0,0.0,0.0,0.0,0.0,0.0,0.0,0.0,0.0,0.0,0.0,0.0,0.0,0.0,0.0,0.0,0.0,0.0,0.0,1.8088,8.9674,-0.6891,-1.0376,29.8462,-6.958,84.6826,-1.0876,-35.1178,0.6443,0.1965,-0.2291,0.7027,0.1196,9.0679,-0.3158,144.3481,33.3862,0.7324,87.215,7.2729,-24.9115,0.6622,0.1933,-0.1131,0.7151,-1.3829,9.6995,-2.9237,53.2227,-85.9375,0.6104,102.5464,5.4053,-26.6968,0.7514,0.2086,-0.1085,0.6165,-1.5456,0.6125,9.2593,1.3428,-13.6108,0.9766,1.8127,6.2183,-93.3728,-0.0286,0.0487,-0.7259,0.6855,-0.4498,13.5037,-2.9572,-192.3218,-3.0518,60.791,88.5938,-8.866,-23.0493,0.6933,0.0849,-0.1955,0.6884,2.3112,9.0583,-11.3504,-117.5537,-3.6011,-13.0005,148.678,-14.3152,-30.8496,0.9299,0.2217,-0.1869,0.2263,5.7039,-6.9289,0.9283,-210.8765,56.0303,10.3149,63.3636,4.5044,-91.2085,0.3433,0.3984,-0.5931,0.6096,0,0,48913,18469,55045,0,0,0,4373,9765,43019,0,0,0,0,0,0,0,0,0,0,0,0,0,0,0,0,0,0,0,0,0,0,0,0,0
1777289585.2546372,372807,1777289581.2276194,1777289583.6517394,1777289581.5573132,0,0,-2424.1199493408203,-329.6937942504883,1,1,0.0,0.0,0.0,0.0,0.0,0.0,0.0,0.0,0.0,0.0,0.0,0.0,0.0,0.0,0.0,0.0,0.0,0.0,0.0,0.0,0.0,0.0,0.0,0.0,0.0,0.0,0.0,0.0,0.0,0.0,0.0,0.0,0.0,0.0,0.0,0.0,0.0,0.0,0.0,0.0,0.0,0.0,0.0,0.0,0.0,0.0,0.0,0.0,0.0,0.0,0.0,0.0,0.0,0.0,0.0,0.0,0.0,0.0,0.0,0.0,0.0,0.0,0.0,0.0,0.0,0.0,0.0,0.0,0.0,0.0,0.0,0.0,0.0,0.0,0.0,1.8088,8.9674,-0.6891,-1.0376,29.8462,-6.958,84.6826,-1.0876,-35.1178,0.6443,0.1965,-0.2291,0.7027,0.1196,9.0679,-0.3158,144.3481,33.3862,0.7324,87.215,7.2729,-24.9115,0.6622,0.1933,-0.1131,0.7151,-1.3829,9.6995,-2.9237,53.2227,-85.9375,0.6104,102.5464,5.4053,-26.6968,0.7514,0.2086,-0.1085,0.6165,-1.5456,0.6125,9.2593,1.3428,-13.6108,0.9766,1.8127,6.2183,-93.3728,-0.0286,0.0487,-0.7259,0.6855,-0.4498,13.5037,-2.9572,-192.3218,-3.0518,60.791,88.5938,-8.866,-23.0493,0.6933,0.0849,-0.1955,0.6884,2.3112,9.0583,-11.3504,-117.5537,-3.6011,-13.0005,148.678,-14.3152,-30.8496,0.9299,0.2217,-0.1869,0.2263,5.7039,-6.9289,0.9283,-210.8765,56.0303,10.3149,63.3636,4.5044,-91.2085,0.3433,0.3984,-0.5931,0.6096,0,0,48913,18469,55045,0,0,0,4373,9765,43019,0,0,0,0,0,0,0,0,0,0,0,0,0,0,0,0,0,0,0,0,0,0,0,0,0
1777289585.2546372,372808,1777289581.2413092,1777289583.6517394,1777289581.5573132,0,0,-2410.4301929473877,-316.00403785705566,1,1,0.0,0.0,0.0,0.0,0.0,0.0,0.0,0.0,0.0,0.0,0.0,0.0,0.0,0.0,0.0,0.0,0.0,0.0,0.0,0.0,0.0,0.0,0.0,0.0,0.0,0.0,0.0,0.0,0.0,0.0,0.0,0.0,0.0,0.0,0.0,0.0,0.0,0.0,0.0,0.0,0.0,0.0,0.0,0.0,0.0,0.0,0.0,0.0,0.0,0.0,0.0,0.0,0.0,0.0,0.0,0.0,0.0,0.0,0.0,0.0,0.0,0.0,0.0,0.0,0.0,0.0,0.0,0.0,0.0,0.0,0.0,0.0,0.0,0.0,0.0,1.8088,8.9674,-0.6891,-1.0376,29.8462,-6.958,84.6826,-1.0876,-35.1178,0.6443,0.1965,-0.2291,0.7027,0.1196,9.0679,-0.3158,144.3481,33.3862,0.7324,87.215,7.2729,-24.9115,0.6622,0.1933,-0.1131,0.7151,-1.3829,9.6995,-2.9237,53.2227,-85.9375,0.6104,102.5464,5.4053,-26.6968,0.7514,0.2086,-0.1085,0.6165,-1.5456,0.6125,9.2593,1.3428,-13.6108,0.9766,1.8127,6.2183,-93.3728,-0.0286,0.0487,-0.7259,0.6855,-0.4498,13.5037,-2.9572,-192.3218,-3.0518,60.791,88.5938,-8.866,-23.0493,0.6933,0.0849,-0.1955,0.6884,2.3112,9.0583,-11.3504,-117.5537,-3.6011,-13.0005,148.678,-14.3152,-30.8496,0.9299,0.2217,-0.1869,0.2263,5.7039,-6.9289,0.9283,-210.8765,56.0303,10.3149,63.3636,4.5044,-91.2085,0.3433,0.3984,-0.5931,0.6096,0,0,48913,18469,55045,0,0,0,4373,9765,43019,0,0,0,0,0,0,0,0,0,0,0,0,0,0,0,0,0,0,0,0,0,0,0,0,0
1777289585.2546372,372809,1777289581.2471576,1777289583.6517394,1777289581.5573132,0,0,-2404.5817852020264,-310.15563011169434,1,1,0.0,0.0,0.0,0.0,0.0,0.0,0.0,0.0,0.0,0.0,0.0,0.0,0.0,0.0,0.0,0.0,0.0,0.0,0.0,0.0,0.0,0.0,0.0,0.0,0.0,0.0,0.0,0.0,0.0,0.0,0.0,0.0,0.0,0.0,0.0,0.0,0.0,0.0,0.0,0.0,0.0,0.0,0.0,0.0,0.0,0.0,0.0,0.0,0.0,0.0,0.0,0.0,0.0,0.0,0.0,0.0,0.0,0.0,0.0,0.0,0.0,0.0,0.0,0.0,0.0,0.0,0.0,0.0,0.0,0.0,0.0,0.0,0.0,0.0,0.0,1.8088,8.9674,-0.6891,-1.0376,29.8462,-6.958,84.6826,-1.0876,-35.1178,0.6443,0.1965,-0.2291,0.7027,0.1196,9.0679,-0.3158,144.3481,33.3862,0.7324,87.215,7.2729,-24.9115,0.6622,0.1933,-0.1131,0.7151,-1.3829,9.6995,-2.9237,53.2227,-85.9375,0.6104,102.5464,5.4053,-26.6968,0.7514,0.2086,-0.1085,0.6165,-1.5456,0.6125,9.2593,1.3428,-13.6108,0.9766,1.8127,6.2183,-93.3728,-0.0286,0.0487,-0.7259,0.6855,-0.4498,13.5037,-2.9572,-192.3218,-3.0518,60.791,88.5938,-8.866,-23.0493,0.6933,0.0849,-0.1955,0.6884,2.3112,9.0583,-11.3504,-117.5537,-3.6011,-13.0005,148.678,-14.3152,-30.8496,0.9299,0.2217,-0.1869,0.2263,5.7039,-6.9289,0.9283,-210.8765,56.0303,10.3149,63.3636,4.5044,-91.2085,0.3433,0.3984,-0.5931,0.6096,0,0,48913,18469,55045,0,0,0,4373,9765,43019,0,0,0,0,0,0,0,0,0,0,0,0,0,0,0,0,0,0,0,0,0,0,0,0,0
1777289585.2546372,372810,1777289581.265547,1777289583.6517394,1777289581.5573132,0,0,-2386.1923217773438,-291.7661666870117,1,1,0.0,0.0,0.0,0.0,0.0,0.0,0.0,0.0,0.0,0.0,0.0,0.0,0.0,0.0,0.0,0.0,0.0,0.0,0.0,0.0,0.0,0.0,0.0,0.0,0.0,0.0,0.0,0.0,0.0,0.0,0.0,0.0,0.0,0.0,0.0,0.0,0.0,0.0,0.0,0.0,0.0,0.0,0.0,0.0,0.0,0.0,0.0,0.0,0.0,0.0,0.0,0.0,0.0,0.0,0.0,0.0,0.0,0.0,0.0,0.0,0.0,0.0,0.0,0.0,0.0,0.0,0.0,0.0,0.0,0.0,0.0,0.0,0.0,0.0,0.0,1.8088,8.9674,-0.6891,-1.0376,29.8462,-6.958,84.6826,-1.0876,-35.1178,0.6443,0.1965,-0.2291,0.7027,0.1196,9.0679,-0.3158,144.3481,33.3862,0.7324,87.215,7.2729,-24.9115,0.6622,0.1933,-0.1131,0.7151,-1.3829,9.6995,-2.9237,53.2227,-85.9375,0.6104,102.5464,5.4053,-26.6968,0.7514,0.2086,-0.1085,0.6165,-1.5456,0.6125,9.2593,1.3428,-13.6108,0.9766,1.8127,6.2183,-93.3728,-0.0286,0.0487,-0.7259,0.6855,-0.4498,13.5037,-2.9572,-192.3218,-3.0518,60.791,88.5938,-8.866,-23.0493,0.6933,0.0849,-0.1955,0.6884,2.3112,9.0583,-11.3504,-117.5537,-3.6011,-13.0005,148.678,-14.3152,-30.8496,0.9299,0.2217,-0.1869,0.2263,5.7039,-6.9289,0.9283,-210.8765,56.0303,10.3149,63.3636,4.5044,-91.2085,0.3433,0.3984,-0.5931,0.6096,0,0,48913,18469,55045,0,0,0,4373,9765,43019,0,0,0,0,0,0,0,0,0,0,0,0,0,0,0,0,0,0,0,0,0,0,0,0,0
1777289585.2556365,372811,1777289581.2675562,1777289583.6517394,1777289581.5573132,0,0,-2384.183168411255,-289.75701332092285,1,1,0.0,0.0,0.0,0.0,0.0,0.0,0.0,0.0,0.0,0.0,0.0,0.0,0.0,0.0,0.0,0.0,0.0,0.0,0.0,0.0,0.0,0.0,0.0,0.0,0.0,0.0,0.0,0.0,0.0,0.0,0.0,0.0,0.0,0.0,0.0,0.0,0.0,0.0,0.0,0.0,0.0,0.0,0.0,0.0,0.0,0.0,0.0,0.0,0.0,0.0,0.0,0.0,0.0,0.0,0.0,0.0,0.0,0.0,0.0,0.0,0.0,0.0,0.0,0.0,0.0,0.0,0.0,0.0,0.0,0.0,0.0,0.0,0.0,0.0,0.0,1.8088,8.9674,-0.6891,-1.0376,29.8462,-6.958,84.6826,-1.0876,-35.1178,0.6443,0.1965,-0.2291,0.7027,0.1196,9.0679,-0.3158,144.3481,33.3862,0.7324,87.215,7.2729,-24.9115,0.6622,0.1933,-0.1131,0.7151,-1.3829,9.6995,-2.9237,53.2227,-85.9375,0.6104,102.5464,5.4053,-26.6968,0.7514,0.2086,-0.1085,0.6165,-1.5456,0.6125,9.2593,1.3428,-13.6108,0.9766,1.8127,6.2183,-93.3728,-0.0286,0.0487,-0.7259,0.6855,-0.4498,13.5037,-2.9572,-192.3218,-3.0518,60.791,88.5938,-8.866,-23.0493,0.6933,0.0849,-0.1955,0.6884,2.3112,9.0583,-11.3504,-117.5537,-3.6011,-13.0005,148.678,-14.3152,-30.8496,0.9299,0.2217,-0.1869,0.2263,5.7039,-6.9289,0.9283,-210.8765,56.0303,10.3149,63.3636,4.5044,-91.2085,0.3433,0.3984,-0.5931,0.6096,0,0,48913,18469,55045,0,0,0,4373,9765,43019,0,0,0,0,0,0,0,0,0,0,0,0,0,0,0,0,0,0,0,0,0,0,0,0,0
1777289585.2556365,372812,1777289581.278343,1777289583.6517394,1777289581.5573132,0,0,-2373.396396636963,-278.97024154663086,1,1,0.0,0.0,0.0,0.0,0.0,0.0,0.0,0.0,0.0,0.0,0.0,0.0,0.0,0.0,0.0,0.0,0.0,0.0,0.0,0.0,0.0,0.0,0.0,0.0,0.0,0.0,0.0,0.0,0.0,0.0,0.0,0.0,0.0,0.0,0.0,0.0,0.0,0.0,0.0,0.0,0.0,0.0,0.0,0.0,0.0,0.0,0.0,0.0,0.0,0.0,0.0,0.0,0.0,0.0,0.0,0.0,0.0,0.0,0.0,0.0,0.0,0.0,0.0,0.0,0.0,0.0,0.0,0.0,0.0,0.0,0.0,0.0,0.0,0.0,0.0,1.8088,8.9674,-0.6891,-1.0376,29.8462,-6.958,84.6826,-1.0876,-35.1178,0.6443,0.1965,-0.2291,0.7027,0.1196,9.0679,-0.3158,144.3481,33.3862,0.7324,87.215,7.2729,-24.9115,0.6622,0.1933,-0.1131,0.7151,-1.3829,9.6995,-2.9237,53.2227,-85.9375,0.6104,102.5464,5.4053,-26.6968,0.7514,0.2086,-0.1085,0.6165,-1.5456,0.6125,9.2593,1.3428,-13.6108,0.9766,1.8127,6.2183,-93.3728,-0.0286,0.0487,-0.7259,0.6855,-0.4498,13.5037,-2.9572,-192.3218,-3.0518,60.791,88.5938,-8.866,-23.0493,0.6933,0.0849,-0.1955,0.6884,2.3112,9.0583,-11.3504,-117.5537,-3.6011,-13.0005,148.678,-14.3152,-30.8496,0.9299,0.2217,-0.1869,0.2263,5.7039,-6.9289,0.9283,-210.8765,56.0303,10.3149,63.3636,4.5044,-91.2085,0.3433,0.3984,-0.5931,0.6096,0,0,48913,18469,55045,0,0,0,4373,9765,43019,0,0,0,0,0,0,0,0,0,0,0,0,0,0,0,0,0,0,0,0,0,0,0,0,0
1777289585.2556365,372813,1777289581.2876203,1777289583.6517394,1777289581.5573132,0,0,-2364.119052886963,-269.69289779663086,1,1,0.0,0.0,0.0,0.0,0.0,0.0,0.0,0.0,0.0,0.0,0.0,0.0,0.0,0.0,0.0,0.0,0.0,0.0,0.0,0.0,0.0,0.0,0.0,0.0,0.0,0.0,0.0,0.0,0.0,0.0,0.0,0.0,0.0,0.0,0.0,0.0,0.0,0.0,0.0,0.0,0.0,0.0,0.0,0.0,0.0,0.0,0.0,0.0,0.0,0.0,0.0,0.0,0.0,0.0,0.0,0.0,0.0,0.0,0.0,0.0,0.0,0.0,0.0,0.0,0.0,0.0,0.0,0.0,0.0,0.0,0.0,0.0,0.0,0.0,0.0,1.8088,8.9674,-0.6891,-1.0376,29.8462,-6.958,84.6826,-1.0876,-35.1178,0.6443,0.1965,-0.2291,0.7027,0.1196,9.0679,-0.3158,144.3481,33.3862,0.7324,87.215,7.2729,-24.9115,0.6622,0.1933,-0.1131,0.7151,-1.3829,9.6995,-2.9237,53.2227,-85.9375,0.6104,102.5464,5.4053,-26.6968,0.7514,0.2086,-0.1085,0.6165,-1.5456,0.6125,9.2593,1.3428,-13.6108,0.9766,1.8127,6.2183,-93.3728,-0.0286,0.0487,-0.7259,0.6855,-0.4498,13.5037,-2.9572,-192.3218,-3.0518,60.791,88.5938,-8.866,-23.0493,0.6933,0.0849,-0.1955,0.6884,2.3112,9.0583,-11.3504,-117.5537,-3.6011,-13.0005,148.678,-14.3152,-30.8496,0.9299,0.2217,-0.1869,0.2263,5.7039,-6.9289,0.9283,-210.8765,56.0303,10.3149,63.3636,4.5044,-91.2085,0.3433,0.3984,-0.5931,0.6096,0,0,48913,18469,55045,0,0,0,4373,9765,43019,0,0,0,0,0,0,0,0,0,0,0,0,0,0,0,0,0,0,0,0,0,0,0,0,0
1777289585.2556365,372814,1777289581.2976458,1777289583.6517394,1777289581.5573132,0,0,-2354.093551635742,-259.66739654541016,1,1,0.0,0.0,0.0,0.0,0.0,0.0,0.0,0.0,0.0,0.0,0.0,0.0,0.0,0.0,0.0,0.0,0.0,0.0,0.0,0.0,0.0,0.0,0.0,0.0,0.0,0.0,0.0,0.0,0.0,0.0,0.0,0.0,0.0,0.0,0.0,0.0,0.0,0.0,0.0,0.0,0.0,0.0,0.0,0.0,0.0,0.0,0.0,0.0,0.0,0.0,0.0,0.0,0.0,0.0,0.0,0.0,0.0,0.0,0.0,0.0,0.0,0.0,0.0,0.0,0.0,0.0,0.0,0.0,0.0,0.0,0.0,0.0,0.0,0.0,0.0,1.8088,8.9674,-0.6891,-1.0376,29.8462,-6.958,84.6826,-1.0876,-35.1178,0.6443,0.1965,-0.2291,0.7027,0.1196,9.0679,-0.3158,144.3481,33.3862,0.7324,87.215,7.2729,-24.9115,0.6622,0.1933,-0.1131,0.7151,-1.3829,9.6995,-2.9237,53.2227,-85.9375,0.6104,102.5464,5.4053,-26.6968,0.7514,0.2086,-0.1085,0.6165,-1.5456,0.6125,9.2593,1.3428,-13.6108,0.9766,1.8127,6.2183,-93.3728,-0.0286,0.0487,-0.7259,0.6855,-0.4498,13.5037,-2.9572,-192.3218,-3.0518,60.791,88.5938,-8.866,-23.0493,0.6933,0.0849,-0.1955,0.6884,2.3112,9.0583,-11.3504,-117.5537,-3.6011,-13.0005,148.678,-14.3152,-30.8496,0.9299,0.2217,-0.1869,0.2263,5.7039,-6.9289,0.9283,-210.8765,56.0303,10.3149,63.3636,4.5044,-91.2085,0.3433,0.3984,-0.5931,0.6096,0,0,48913,18469,55045,0,0,0,4373,9765,43019,0,0,0,0,0,0,0,0,0,0,0,0,0,0,0,0,0,0,0,0,0,0,0,0,0
1777289585.2556365,372815,1777289581.3153546,1777289583.6517394,1777289581.5573132,0,0,-2336.3847732543945,-241.9586181640625,1,1,0.0,0.0,0.0,0.0,0.0,0.0,0.0,0.0,0.0,0.0,0.0,0.0,0.0,0.0,0.0,0.0,0.0,0.0,0.0,0.0,0.0,0.0,0.0,0.0,0.0,0.0,0.0,0.0,0.0,0.0,0.0,0.0,0.0,0.0,0.0,0.0,0.0,0.0,0.0,0.0,0.0,0.0,0.0,0.0,0.0,0.0,0.0,0.0,0.0,0.0,0.0,0.0,0.0,0.0,0.0,0.0,0.0,0.0,0.0,0.0,0.0,0.0,0.0,0.0,0.0,0.0,0.0,0.0,0.0,0.0,0.0,0.0,0.0,0.0,0.0,1.8088,8.9674,-0.6891,-1.0376,29.8462,-6.958,84.6826,-1.0876,-35.1178,0.6443,0.1965,-0.2291,0.7027,0.1196,9.0679,-0.3158,144.3481,33.3862,0.7324,87.215,7.2729,-24.9115,0.6622,0.1933,-0.1131,0.7151,-1.3829,9.6995,-2.9237,53.2227,-85.9375,0.6104,102.5464,5.4053,-26.6968,0.7514,0.2086,-0.1085,0.6165,-1.5456,0.6125,9.2593,1.3428,-13.6108,0.9766,1.8127,6.2183,-93.3728,-0.0286,0.0487,-0.7259,0.6855,-0.4498,13.5037,-2.9572,-192.3218,-3.0518,60.791,88.5938,-8.866,-23.0493,0.6933,0.0849,-0.1955,0.6884,2.3112,9.0583,-11.3504,-117.5537,-3.6011,-13.0005,148.678,-14.3152,-30.8496,0.9299,0.2217,-0.1869,0.2263,5.7039,-6.9289,0.9283,-210.8765,56.0303,10.3149,63.3636,4.5044,-91.2085,0.3433,0.3984,-0.5931,0.6096,0,0,48913,18469,55045,0,0,0,4373,9765,43019,0,0,0,0,0,0,0,0,0,0,0,0,0,0,0,0,0,0,0,0,0,0,0,0,0
1777289585.2556365,372816,1777289581.3275661,1777289583.6517394,1777289581.5573132,0,0,-2324.1732120513916,-229.74705696105957,1,1,0.0,0.0,0.0,0.0,0.0,0.0,0.0,0.0,0.0,0.0,0.0,0.0,0.0,0.0,0.0,0.0,0.0,0.0,0.0,0.0,0.0,0.0,0.0,0.0,0.0,0.0,0.0,0.0,0.0,0.0,0.0,0.0,0.0,0.0,0.0,0.0,0.0,0.0,0.0,0.0,0.0,0.0,0.0,0.0,0.0,0.0,0.0,0.0,0.0,0.0,0.0,0.0,0.0,0.0,0.0,0.0,0.0,0.0,0.0,0.0,0.0,0.0,0.0,0.0,0.0,0.0,0.0,0.0,0.0,0.0,0.0,0.0,0.0,0.0,0.0,1.8088,8.9674,-0.6891,-1.0376,29.8462,-6.958,84.6826,-1.0876,-35.1178,0.6443,0.1965,-0.2291,0.7027,0.1196,9.0679,-0.3158,144.3481,33.3862,0.7324,87.215,7.2729,-24.9115,0.6622,0.1933,-0.1131,0.7151,-1.3829,9.6995,-2.9237,53.2227,-85.9375,0.6104,102.5464,5.4053,-26.6968,0.7514,0.2086,-0.1085,0.6165,-1.5456,0.6125,9.2593,1.3428,-13.6108,0.9766,1.8127,6.2183,-93.3728,-0.0286,0.0487,-0.7259,0.6855,-0.4498,13.5037,-2.9572,-192.3218,-3.0518,60.791,88.5938,-8.866,-23.0493,0.6933,0.0849,-0.1955,0.6884,2.3112,9.0583,-11.3504,-117.5537,-3.6011,-13.0005,148.678,-14.3152,-30.8496,0.9299,0.2217,-0.1869,0.2263,5.7039,-6.9289,0.9283,-210.8765,56.0303,10.3149,63.3636,4.5044,-91.2085,0.3433,0.3984,-0.5931,0.6096,0,0,48913,18469,55045,0,0,0,4373,9765,43019,0,0,0,0,0,0,0,0,0,0,0,0,0,0,0,0,0,0,0,0,0,0,0,0,0
1777289585.2556365,372817,1777289581.330086,1777289583.6517394,1777289581.5573132,0,0,-2321.653366088867,-227.22721099853516,1,1,0.0,0.0,0.0,0.0,0.0,0.0,0.0,0.0,0.0,0.0,0.0,0.0,0.0,0.0,0.0,0.0,0.0,0.0,0.0,0.0,0.0,0.0,0.0,0.0,0.0,0.0,0.0,0.0,0.0,0.0,0.0,0.0,0.0,0.0,0.0,0.0,0.0,0.0,0.0,0.0,0.0,0.0,0.0,0.0,0.0,0.0,0.0,0.0,0.0,0.0,0.0,0.0,0.0,0.0,0.0,0.0,0.0,0.0,0.0,0.0,0.0,0.0,0.0,0.0,0.0,0.0,0.0,0.0,0.0,0.0,0.0,0.0,0.0,0.0,0.0,1.8088,8.9674,-0.6891,-1.0376,29.8462,-6.958,84.6826,-1.0876,-35.1178,0.6443,0.1965,-0.2291,0.7027,0.1196,9.0679,-0.3158,144.3481,33.3862,0.7324,87.215,7.2729,-24.9115,0.6622,0.1933,-0.1131,0.7151,-1.3829,9.6995,-2.9237,53.2227,-85.9375,0.6104,102.5464,5.4053,-26.6968,0.7514,0.2086,-0.1085,0.6165,-1.5456,0.6125,9.2593,1.3428,-13.6108,0.9766,1.8127,6.2183,-93.3728,-0.0286,0.0487,-0.7259,0.6855,-0.4498,13.5037,-2.9572,-192.3218,-3.0518,60.791,88.5938,-8.866,-23.0493,0.6933,0.0849,-0.1955,0.6884,2.3112,9.0583,-11.3504,-117.5537,-3.6011,-13.0005,148.678,-14.3152,-30.8496,0.9299,0.2217,-0.1869,0.2263,5.7039,-6.9289,0.9283,-210.8765,56.0303,10.3149,63.3636,4.5044,-91.2085,0.3433,0.3984,-0.5931,0.6096,0,0,48913,18469,55045,0,0,0,4373,9765,43019,0,0,0,0,0,0,0,0,0,0,0,0,0,0,0,0,0,0,0,0,0,0,0,0,0
1777289585.2556365,372818,1777289581.3378172,1777289583.6517394,1777289581.5573132,0,0,-2313.922166824341,-219.4960117340088,1,1,0.0,0.0,0.0,0.0,0.0,0.0,0.0,0.0,0.0,0.0,0.0,0.0,0.0,0.0,0.0,0.0,0.0,0.0,0.0,0.0,0.0,0.0,0.0,0.0,0.0,0.0,0.0,0.0,0.0,0.0,0.0,0.0,0.0,0.0,0.0,0.0,0.0,0.0,0.0,0.0,0.0,0.0,0.0,0.0,0.0,0.0,0.0,0.0,0.0,0.0,0.0,0.0,0.0,0.0,0.0,0.0,0.0,0.0,0.0,0.0,0.0,0.0,0.0,0.0,0.0,0.0,0.0,0.0,0.0,0.0,0.0,0.0,0.0,0.0,0.0,1.8088,8.9674,-0.6891,-1.0376,29.8462,-6.958,84.6826,-1.0876,-35.1178,0.6443,0.1965,-0.2291,0.7027,0.1196,9.0679,-0.3158,144.3481,33.3862,0.7324,87.215,7.2729,-24.9115,0.6622,0.1933,-0.1131,0.7151,-1.3829,9.6995,-2.9237,53.2227,-85.9375,0.6104,102.5464,5.4053,-26.6968,0.7514,0.2086,-0.1085,0.6165,-1.5456,0.6125,9.2593,1.3428,-13.6108,0.9766,1.8127,6.2183,-93.3728,-0.0286,0.0487,-0.7259,0.6855,-0.4498,13.5037,-2.9572,-192.3218,-3.0518,60.791,88.5938,-8.866,-23.0493,0.6933,0.0849,-0.1955,0.6884,2.3112,9.0583,-11.3504,-117.5537,-3.6011,-13.0005,148.678,-14.3152,-30.8496,0.9299,0.2217,-0.1869,0.2263,5.7039,-6.9289,0.9283,-210.8765,56.0303,10.3149,63.3636,4.5044,-91.2085,0.3433,0.3984,-0.5931,0.6096,0,0,48913,18469,55045,0,0,0,4373,9765,43019,0,0,0,0,0,0,0,0,0,0,0,0,0,0,0,0,0,0,0,0,0,0,0,0,0
1777289585.2556365,372819,1777289581.3477058,1777289583.6517394,1777289581.5573132,0,0,-2304.0335178375244,-209.60736274719238,1,1,0.0,0.0,0.0,0.0,0.0,0.0,0.0,0.0,0.0,0.0,0.0,0.0,0.0,0.0,0.0,0.0,0.0,0.0,0.0,0.0,0.0,0.0,0.0,0.0,0.0,0.0,0.0,0.0,0.0,0.0,0.0,0.0,0.0,0.0,0.0,0.0,0.0,0.0,0.0,0.0,0.0,0.0,0.0,0.0,0.0,0.0,0.0,0.0,0.0,0.0,0.0,0.0,0.0,0.0,0.0,0.0,0.0,0.0,0.0,0.0,0.0,0.0,0.0,0.0,0.0,0.0,0.0,0.0,0.0,0.0,0.0,0.0,0.0,0.0,0.0,1.8088,8.9674,-0.6891,-1.0376,29.8462,-6.958,84.6826,-1.0876,-35.1178,0.6443,0.1965,-0.2291,0.7027,0.1196,9.0679,-0.3158,144.3481,33.3862,0.7324,87.215,7.2729,-24.9115,0.6622,0.1933,-0.1131,0.7151,-1.3829,9.6995,-2.9237,53.2227,-85.9375,0.6104,102.5464,5.4053,-26.6968,0.7514,0.2086,-0.1085,0.6165,-1.5456,0.6125,9.2593,1.3428,-13.6108,0.9766,1.8127,6.2183,-93.3728,-0.0286,0.0487,-0.7259,0.6855,-0.4498,13.5037,-2.9572,-192.3218,-3.0518,60.791,88.5938,-8.866,-23.0493,0.6933,0.0849,-0.1955,0.6884,2.3112,9.0583,-11.3504,-117.5537,-3.6011,-13.0005,148.678,-14.3152,-30.8496,0.9299,0.2217,-0.1869,0.2263,5.7039,-6.9289,0.9283,-210.8765,56.0303,10.3149,63.3636,4.5044,-91.2085,0.3433,0.3984,-0.5931,0.6096,0,0,48913,18469,55045,0,0,0,4373,9765,43019,0,0,0,0,0,0,0,0,0,0,0,0,0,0,0,0,0,0,0,0,0,0,0,0,0
1777289585.2556365,372820,1777289581.358281,1777289583.6517394,1777289581.5573132,0,0,-2293.4584617614746,-199.03230667114258,1,1,0.0,0.0,0.0,0.0,0.0,0.0,0.0,0.0,0.0,0.0,0.0,0.0,0.0,0.0,0.0,0.0,0.0,0.0,0.0,0.0,0.0,0.0,0.0,0.0,0.0,0.0,0.0,0.0,0.0,0.0,0.0,0.0,0.0,0.0,0.0,0.0,0.0,0.0,0.0,0.0,0.0,0.0,0.0,0.0,0.0,0.0,0.0,0.0,0.0,0.0,0.0,0.0,0.0,0.0,0.0,0.0,0.0,0.0,0.0,0.0,0.0,0.0,0.0,0.0,0.0,0.0,0.0,0.0,0.0,0.0,0.0,0.0,0.0,0.0,0.0,1.8088,8.9674,-0.6891,-1.0376,29.8462,-6.958,84.6826,-1.0876,-35.1178,0.6443,0.1965,-0.2291,0.7027,0.1196,9.0679,-0.3158,144.3481,33.3862,0.7324,87.215,7.2729,-24.9115,0.6622,0.1933,-0.1131,0.7151,-1.3829,9.6995,-2.9237,53.2227,-85.9375,0.6104,102.5464,5.4053,-26.6968,0.7514,0.2086,-0.1085,0.6165,-1.5456,0.6125,9.2593,1.3428,-13.6108,0.9766,1.8127,6.2183,-93.3728,-0.0286,0.0487,-0.7259,0.6855,-0.4498,13.5037,-2.9572,-192.3218,-3.0518,60.791,88.5938,-8.866,-23.0493,0.6933,0.0849,-0.1955,0.6884,2.3112,9.0583,-11.3504,-117.5537,-3.6011,-13.0005,148.678,-14.3152,-30.8496,0.9299,0.2217,-0.1869,0.2263,5.7039,-6.9289,0.9283,-210.8765,56.0303,10.3149,63.3636,4.5044,-91.2085,0.3433,0.3984,-0.5931,0.6096,0,0,48913,18469,55045,0,0,0,4373,9765,43019,0,0,0,0,0,0,0,0,0,0,0,0,0,0,0,0,0,0,0,0,0,0,0,0,0
1777289585.2556365,372821,1777289581.3744085,1777289583.6517394,1777289581.5573132,0,0,-2277.3308753967285,-182.90472030639648,1,1,0.0,0.0,0.0,0.0,0.0,0.0,0.0,0.0,0.0,0.0,0.0,0.0,0.0,0.0,0.0,0.0,0.0,0.0,0.0,0.0,0.0,0.0,0.0,0.0,0.0,0.0,0.0,0.0,0.0,0.0,0.0,0.0,0.0,0.0,0.0,0.0,0.0,0.0,0.0,0.0,0.0,0.0,0.0,0.0,0.0,0.0,0.0,0.0,0.0,0.0,0.0,0.0,0.0,0.0,0.0,0.0,0.0,0.0,0.0,0.0,0.0,0.0,0.0,0.0,0.0,0.0,0.0,0.0,0.0,0.0,0.0,0.0,0.0,0.0,0.0,1.8088,8.9674,-0.6891,-1.0376,29.8462,-6.958,84.6826,-1.0876,-35.1178,0.6443,0.1965,-0.2291,0.7027,0.1196,9.0679,-0.3158,144.3481,33.3862,0.7324,87.215,7.2729,-24.9115,0.6622,0.1933,-0.1131,0.7151,-1.3829,9.6995,-2.9237,53.2227,-85.9375,0.6104,102.5464,5.4053,-26.6968,0.7514,0.2086,-0.1085,0.6165,-1.5456,0.6125,9.2593,1.3428,-13.6108,0.9766,1.8127,6.2183,-93.3728,-0.0286,0.0487,-0.7259,0.6855,-0.4498,13.5037,-2.9572,-192.3218,-3.0518,60.791,88.5938,-8.866,-23.0493,0.6933,0.0849,-0.1955,0.6884,2.3112,9.0583,-11.3504,-117.5537,-3.6011,-13.0005,148.678,-14.3152,-30.8496,0.9299,0.2217,-0.1869,0.2263,5.7039,-6.9289,0.9283,-210.8765,56.0303,10.3149,63.3636,4.5044,-91.2085,0.3433,0.3984,-0.5931,0.6096,0,0,48913,18469,55045,0,0,0,4373,9765,43019,0,0,0,0,0,0,0,0,0,0,0,0,0,0,0,0,0,0,0,0,0,0,0,0,0
1777289585.256637,372822,1777289581.376127,1777289583.6517394,1777289581.5573132,0,0,-2275.6123542785645,-181.18619918823242,1,1,0.0,0.0,0.0,0.0,0.0,0.0,0.0,0.0,0.0,0.0,0.0,0.0,0.0,0.0,0.0,0.0,0.0,0.0,0.0,0.0,0.0,0.0,0.0,0.0,0.0,0.0,0.0,0.0,0.0,0.0,0.0,0.0,0.0,0.0,0.0,0.0,0.0,0.0,0.0,0.0,0.0,0.0,0.0,0.0,0.0,0.0,0.0,0.0,0.0,0.0,0.0,0.0,0.0,0.0,0.0,0.0,0.0,0.0,0.0,0.0,0.0,0.0,0.0,0.0,0.0,0.0,0.0,0.0,0.0,0.0,0.0,0.0,0.0,0.0,0.0,1.8088,8.9674,-0.6891,-1.0376,29.8462,-6.958,84.6826,-1.0876,-35.1178,0.6443,0.1965,-0.2291,0.7027,0.1196,9.0679,-0.3158,144.3481,33.3862,0.7324,87.215,7.2729,-24.9115,0.6622,0.1933,-0.1131,0.7151,-1.3829,9.6995,-2.9237,53.2227,-85.9375,0.6104,102.5464,5.4053,-26.6968,0.7514,0.2086,-0.1085,0.6165,-1.5456,0.6125,9.2593,1.3428,-13.6108,0.9766,1.8127,6.2183,-93.3728,-0.0286,0.0487,-0.7259,0.6855,-0.4498,13.5037,-2.9572,-192.3218,-3.0518,60.791,88.5938,-8.866,-23.0493,0.6933,0.0849,-0.1955,0.6884,2.3112,9.0583,-11.3504,-117.5537,-3.6011,-13.0005,148.678,-14.3152,-30.8496,0.9299,0.2217,-0.1869,0.2263,5.7039,-6.9289,0.9283,-210.8765,56.0303,10.3149,63.3636,4.5044,-91.2085,0.3433,0.3984,-0.5931,0.6096,0,0,48913,18469,55045,0,0,0,4373,9765,43019,0,0,0,0,0,0,0,0,0,0,0,0,0,0,0,0,0,0,0,0,0,0,0,0,0
1777289585.256637,372823,1777289581.3882568,1777289583.6517394,1777289581.5573132,0,0,-2263.4825706481934,-169.05641555786133,1,1,0.0,0.0,0.0,0.0,0.0,0.0,0.0,0.0,0.0,0.0,0.0,0.0,0.0,0.0,0.0,0.0,0.0,0.0,0.0,0.0,0.0,0.0,0.0,0.0,0.0,0.0,0.0,0.0,0.0,0.0,0.0,0.0,0.0,0.0,0.0,0.0,0.0,0.0,0.0,0.0,0.0,0.0,0.0,0.0,0.0,0.0,0.0,0.0,0.0,0.0,0.0,0.0,0.0,0.0,0.0,0.0,0.0,0.0,0.0,0.0,0.0,0.0,0.0,0.0,0.0,0.0,0.0,0.0,0.0,0.0,0.0,0.0,0.0,0.0,0.0,1.8088,8.9674,-0.6891,-1.0376,29.8462,-6.958,84.6826,-1.0876,-35.1178,0.6443,0.1965,-0.2291,0.7027,0.1196,9.0679,-0.3158,144.3481,33.3862,0.7324,87.215,7.2729,-24.9115,0.6622,0.1933,-0.1131,0.7151,-1.3829,9.6995,-2.9237,53.2227,-85.9375,0.6104,102.5464,5.4053,-26.6968,0.7514,0.2086,-0.1085,0.6165,-1.5456,0.6125,9.2593,1.3428,-13.6108,0.9766,1.8127,6.2183,-93.3728,-0.0286,0.0487,-0.7259,0.6855,-0.4498,13.5037,-2.9572,-192.3218,-3.0518,60.791,88.5938,-8.866,-23.0493,0.6933,0.0849,-0.1955,0.6884,2.3112,9.0583,-11.3504,-117.5537,-3.6011,-13.0005,148.678,-14.3152,-30.8496,0.9299,0.2217,-0.1869,0.2263,5.7039,-6.9289,0.9283,-210.8765,56.0303,10.3149,63.3636,4.5044,-91.2085,0.3433,0.3984,-0.5931,0.6096,0,0,48913,18469,55045,0,0,0,4373,9765,43019,0,0,0,0,0,0,0,0,0,0,0,0,0,0,0,0,0,0,0,0,0,0,0,0,0
1777289585.256637,372824,1777289581.397687,1777289583.6517394,1777289581.5573132,0,0,-2254.0524005889893,-159.62624549865723,1,1,0.0,0.0,0.0,0.0,0.0,0.0,0.0,0.0,0.0,0.0,0.0,0.0,0.0,0.0,0.0,0.0,0.0,0.0,0.0,0.0,0.0,0.0,0.0,0.0,0.0,0.0,0.0,0.0,0.0,0.0,0.0,0.0,0.0,0.0,0.0,0.0,0.0,0.0,0.0,0.0,0.0,0.0,0.0,0.0,0.0,0.0,0.0,0.0,0.0,0.0,0.0,0.0,0.0,0.0,0.0,0.0,0.0,0.0,0.0,0.0,0.0,0.0,0.0,0.0,0.0,0.0,0.0,0.0,0.0,0.0,0.0,0.0,0.0,0.0,0.0,1.8088,8.9674,-0.6891,-1.0376,29.8462,-6.958,84.6826,-1.0876,-35.1178,0.6443,0.1965,-0.2291,0.7027,0.1196,9.0679,-0.3158,144.3481,33.3862,0.7324,87.215,7.2729,-24.9115,0.6622,0.1933,-0.1131,0.7151,-1.3829,9.6995,-2.9237,53.2227,-85.9375,0.6104,102.5464,5.4053,-26.6968,0.7514,0.2086,-0.1085,0.6165,-1.5456,0.6125,9.2593,1.3428,-13.6108,0.9766,1.8127,6.2183,-93.3728,-0.0286,0.0487,-0.7259,0.6855,-0.4498,13.5037,-2.9572,-192.3218,-3.0518,60.791,88.5938,-8.866,-23.0493,0.6933,0.0849,-0.1955,0.6884,2.3112,9.0583,-11.3504,-117.5537,-3.6011,-13.0005,148.678,-14.3152,-30.8496,0.9299,0.2217,-0.1869,0.2263,5.7039,-6.9289,0.9283,-210.8765,56.0303,10.3149,63.3636,4.5044,-91.2085,0.3433,0.3984,-0.5931,0.6096,0,0,48913,18469,55045,0,0,0,4373,9765,43019,0,0,0,0,0,0,0,0,0,0,0,0,0,0,0,0,0,0,0,0,0,0,0,0,0
1777289585.256637,372825,1777289581.4148304,1777289583.6517394,1777289581.5573132,0,0,-2236.9089126586914,-142.48275756835938,1,1,0.0,0.0,0.0,0.0,0.0,0.0,0.0,0.0,0.0,0.0,0.0,0.0,0.0,0.0,0.0,0.0,0.0,0.0,0.0,0.0,0.0,0.0,0.0,0.0,0.0,0.0,0.0,0.0,0.0,0.0,0.0,0.0,0.0,0.0,0.0,0.0,0.0,0.0,0.0,0.0,0.0,0.0,0.0,0.0,0.0,0.0,0.0,0.0,0.0,0.0,0.0,0.0,0.0,0.0,0.0,0.0,0.0,0.0,0.0,0.0,0.0,0.0,0.0,0.0,0.0,0.0,0.0,0.0,0.0,0.0,0.0,0.0,0.0,0.0,0.0,1.8088,8.9674,-0.6891,-1.0376,29.8462,-6.958,84.6826,-1.0876,-35.1178,0.6443,0.1965,-0.2291,0.7027,0.1196,9.0679,-0.3158,144.3481,33.3862,0.7324,87.215,7.2729,-24.9115,0.6622,0.1933,-0.1131,0.7151,-1.3829,9.6995,-2.9237,53.2227,-85.9375,0.6104,102.5464,5.4053,-26.6968,0.7514,0.2086,-0.1085,0.6165,-1.5456,0.6125,9.2593,1.3428,-13.6108,0.9766,1.8127,6.2183,-93.3728,-0.0286,0.0487,-0.7259,0.6855,-0.4498,13.5037,-2.9572,-192.3218,-3.0518,60.791,88.5938,-8.866,-23.0493,0.6933,0.0849,-0.1955,0.6884,2.3112,9.0583,-11.3504,-117.5537,-3.6011,-13.0005,148.678,-14.3152,-30.8496,0.9299,0.2217,-0.1869,0.2263,5.7039,-6.9289,0.9283,-210.8765,56.0303,10.3149,63.3636,4.5044,-91.2085,0.3433,0.3984,-0.5931,0.6096,0,0,48913,18469,55045,0,0,0,4373,9765,43019,0,0,0,0,0,0,0,0,0,0,0,0,0,0,0,0,0,0,0,0,0,0,0,0,0
1777289585.256637,372826,1777289581.4168658,1777289583.6517394,1777289581.5573132,0,0,-2234.8735332489014,-140.44737815856934,1,1,0.0,0.0,0.0,0.0,0.0,0.0,0.0,0.0,0.0,0.0,0.0,0.0,0.0,0.0,0.0,0.0,0.0,0.0,0.0,0.0,0.0,0.0,0.0,0.0,0.0,0.0,0.0,0.0,0.0,0.0,0.0,0.0,0.0,0.0,0.0,0.0,0.0,0.0,0.0,0.0,0.0,0.0,0.0,0.0,0.0,0.0,0.0,0.0,0.0,0.0,0.0,0.0,0.0,0.0,0.0,0.0,0.0,0.0,0.0,0.0,0.0,0.0,0.0,0.0,0.0,0.0,0.0,0.0,0.0,0.0,0.0,0.0,0.0,0.0,0.0,1.8088,8.9674,-0.6891,-1.0376,29.8462,-6.958,84.6826,-1.0876,-35.1178,0.6443,0.1965,-0.2291,0.7027,0.1196,9.0679,-0.3158,144.3481,33.3862,0.7324,87.215,7.2729,-24.9115,0.6622,0.1933,-0.1131,0.7151,-1.3829,9.6995,-2.9237,53.2227,-85.9375,0.6104,102.5464,5.4053,-26.6968,0.7514,0.2086,-0.1085,0.6165,-1.5456,0.6125,9.2593,1.3428,-13.6108,0.9766,1.8127,6.2183,-93.3728,-0.0286,0.0487,-0.7259,0.6855,-0.4498,13.5037,-2.9572,-192.3218,-3.0518,60.791,88.5938,-8.866,-23.0493,0.6933,0.0849,-0.1955,0.6884,2.3112,9.0583,-11.3504,-117.5537,-3.6011,-13.0005,148.678,-14.3152,-30.8496,0.9299,0.2217,-0.1869,0.2263,5.7039,-6.9289,0.9283,-210.8765,56.0303,10.3149,63.3636,4.5044,-91.2085,0.3433,0.3984,-0.5931,0.6096,0,0,48913,18469,55045,0,0,0,4373,9765,43019,0,0,0,0,0,0,0,0,0,0,0,0,0,0,0,0,0,0,0,0,0,0,0,0,0
1777289585.256637,372827,1777289581.4276009,1777289583.6517394,1777289581.5573132,0,0,-2224.1384983062744,-129.71234321594238,1,1,0.0,0.0,0.0,0.0,0.0,0.0,0.0,0.0,0.0,0.0,0.0,0.0,0.0,0.0,0.0,0.0,0.0,0.0,0.0,0.0,0.0,0.0,0.0,0.0,0.0,0.0,0.0,0.0,0.0,0.0,0.0,0.0,0.0,0.0,0.0,0.0,0.0,0.0,0.0,0.0,0.0,0.0,0.0,0.0,0.0,0.0,0.0,0.0,0.0,0.0,0.0,0.0,0.0,0.0,0.0,0.0,0.0,0.0,0.0,0.0,0.0,0.0,0.0,0.0,0.0,0.0,0.0,0.0,0.0,0.0,0.0,0.0,0.0,0.0,0.0,1.8088,8.9674,-0.6891,-1.0376,29.8462,-6.958,84.6826,-1.0876,-35.1178,0.6443,0.1965,-0.2291,0.7027,0.1196,9.0679,-0.3158,144.3481,33.3862,0.7324,87.215,7.2729,-24.9115,0.6622,0.1933,-0.1131,0.7151,-1.3829,9.6995,-2.9237,53.2227,-85.9375,0.6104,102.5464,5.4053,-26.6968,0.7514,0.2086,-0.1085,0.6165,-1.5456,0.6125,9.2593,1.3428,-13.6108,0.9766,1.8127,6.2183,-93.3728,-0.0286,0.0487,-0.7259,0.6855,-0.4498,13.5037,-2.9572,-192.3218,-3.0518,60.791,88.5938,-8.866,-23.0493,0.6933,0.0849,-0.1955,0.6884,2.3112,9.0583,-11.3504,-117.5537,-3.6011,-13.0005,148.678,-14.3152,-30.8496,0.9299,0.2217,-0.1869,0.2263,5.7039,-6.9289,0.9283,-210.8765,56.0303,10.3149,63.3636,4.5044,-91.2085,0.3433,0.3984,-0.5931,0.6096,0,0,48913,18469,55045,0,0,0,4373,9765,43019,0,0,0,0,0,0,0,0,0,0,0,0,0,0,0,0,0,0,0,0,0,0,0,0,0
1777289585.256637,372828,1777289581.437906,1777289583.6517394,1777289581.5573132,0,0,-2213.8333320617676,-119.40717697143555,1,1,0.0,0.0,0.0,0.0,0.0,0.0,0.0,0.0,0.0,0.0,0.0,0.0,0.0,0.0,0.0,0.0,0.0,0.0,0.0,0.0,0.0,0.0,0.0,0.0,0.0,0.0,0.0,0.0,0.0,0.0,0.0,0.0,0.0,0.0,0.0,0.0,0.0,0.0,0.0,0.0,0.0,0.0,0.0,0.0,0.0,0.0,0.0,0.0,0.0,0.0,0.0,0.0,0.0,0.0,0.0,0.0,0.0,0.0,0.0,0.0,0.0,0.0,0.0,0.0,0.0,0.0,0.0,0.0,0.0,0.0,0.0,0.0,0.0,0.0,0.0,1.8088,8.9674,-0.6891,-1.0376,29.8462,-6.958,84.6826,-1.0876,-35.1178,0.6443,0.1965,-0.2291,0.7027,0.1196,9.0679,-0.3158,144.3481,33.3862,0.7324,87.215,7.2729,-24.9115,0.6622,0.1933,-0.1131,0.7151,-1.3829,9.6995,-2.9237,53.2227,-85.9375,0.6104,102.5464,5.4053,-26.6968,0.7514,0.2086,-0.1085,0.6165,-1.5456,0.6125,9.2593,1.3428,-13.6108,0.9766,1.8127,6.2183,-93.3728,-0.0286,0.0487,-0.7259,0.6855,-0.4498,13.5037,-2.9572,-192.3218,-3.0518,60.791,88.5938,-8.866,-23.0493,0.6933,0.0849,-0.1955,0.6884,2.3112,9.0583,-11.3504,-117.5537,-3.6011,-13.0005,148.678,-14.3152,-30.8496,0.9299,0.2217,-0.1869,0.2263,5.7039,-6.9289,0.9283,-210.8765,56.0303,10.3149,63.3636,4.5044,-91.2085,0.3433,0.3984,-0.5931,0.6096,0,0,48913,18469,55045,0,0,0,4373,9765,43019,0,0,0,0,0,0,0,0,0,0,0,0,0,0,0,0,0,0,0,0,0,0,0,0,0
1777289585.256637,372829,1777289581.447419,1777289583.6517394,1777289581.5573132,0,0,-2204.3204307556152,-109.8942756652832,1,1,0.0,0.0,0.0,0.0,0.0,0.0,0.0,0.0,0.0,0.0,0.0,0.0,0.0,0.0,0.0,0.0,0.0,0.0,0.0,0.0,0.0,0.0,0.0,0.0,0.0,0.0,0.0,0.0,0.0,0.0,0.0,0.0,0.0,0.0,0.0,0.0,0.0,0.0,0.0,0.0,0.0,0.0,0.0,0.0,0.0,0.0,0.0,0.0,0.0,0.0,0.0,0.0,0.0,0.0,0.0,0.0,0.0,0.0,0.0,0.0,0.0,0.0,0.0,0.0,0.0,0.0,0.0,0.0,0.0,0.0,0.0,0.0,0.0,0.0,0.0,1.8088,8.9674,-0.6891,-1.0376,29.8462,-6.958,84.6826,-1.0876,-35.1178,0.6443,0.1965,-0.2291,0.7027,0.1196,9.0679,-0.3158,144.3481,33.3862,0.7324,87.215,7.2729,-24.9115,0.6622,0.1933,-0.1131,0.7151,-1.3829,9.6995,-2.9237,53.2227,-85.9375,0.6104,102.5464,5.4053,-26.6968,0.7514,0.2086,-0.1085,0.6165,-1.5456,0.6125,9.2593,1.3428,-13.6108,0.9766,1.8127,6.2183,-93.3728,-0.0286,0.0487,-0.7259,0.6855,-0.4498,13.5037,-2.9572,-192.3218,-3.0518,60.791,88.5938,-8.866,-23.0493,0.6933,0.0849,-0.1955,0.6884,2.3112,9.0583,-11.3504,-117.5537,-3.6011,-13.0005,148.678,-14.3152,-30.8496,0.9299,0.2217,-0.1869,0.2263,5.7039,-6.9289,0.9283,-210.8765,56.0303,10.3149,63.3636,4.5044,-91.2085,0.3433,0.3984,-0.5931,0.6096,0,0,48913,18469,55045,0,0,0,4373,9765,43019,0,0,0,0,0,0,0,0,0,0,0,0,0,0,0,0,0,0,0,0,0,0,0,0,0
1777289585.256637,372830,1777289581.4572973,1777289583.6517394,1777289581.5573132,0,0,-2194.4420337677,-100.01587867736816,1,1,0.0,0.0,0.0,0.0,0.0,0.0,0.0,0.0,0.0,0.0,0.0,0.0,0.0,0.0,0.0,0.0,0.0,0.0,0.0,0.0,0.0,0.0,0.0,0.0,0.0,0.0,0.0,0.0,0.0,0.0,0.0,0.0,0.0,0.0,0.0,0.0,0.0,0.0,0.0,0.0,0.0,0.0,0.0,0.0,0.0,0.0,0.0,0.0,0.0,0.0,0.0,0.0,0.0,0.0,0.0,0.0,0.0,0.0,0.0,0.0,0.0,0.0,0.0,0.0,0.0,0.0,0.0,0.0,0.0,0.0,0.0,0.0,0.0,0.0,0.0,1.8088,8.9674,-0.6891,-1.0376,29.8462,-6.958,84.6826,-1.0876,-35.1178,0.6443,0.1965,-0.2291,0.7027,0.1196,9.0679,-0.3158,144.3481,33.3862,0.7324,87.215,7.2729,-24.9115,0.6622,0.1933,-0.1131,0.7151,-1.3829,9.6995,-2.9237,53.2227,-85.9375,0.6104,102.5464,5.4053,-26.6968,0.7514,0.2086,-0.1085,0.6165,-1.5456,0.6125,9.2593,1.3428,-13.6108,0.9766,1.8127,6.2183,-93.3728,-0.0286,0.0487,-0.7259,0.6855,-0.4498,13.5037,-2.9572,-192.3218,-3.0518,60.791,88.5938,-8.866,-23.0493,0.6933,0.0849,-0.1955,0.6884,2.3112,9.0583,-11.3504,-117.5537,-3.6011,-13.0005,148.678,-14.3152,-30.8496,0.9299,0.2217,-0.1869,0.2263,5.7039,-6.9289,0.9283,-210.8765,56.0303,10.3149,63.3636,4.5044,-91.2085,0.3433,0.3984,-0.5931,0.6096,0,0,48913,18469,55045,0,0,0,4373,9765,43019,0,0,0,0,0,0,0,0,0,0,0,0,0,0,0,0,0,0,0,0,0,0,0,0,0
1777289585.256637,372831,1777289581.4682975,1777289583.6517394,1777289581.5573132,0,0,-2183.4418773651123,-89.01572227478027,1,1,0.0,0.0,0.0,0.0,0.0,0.0,0.0,0.0,0.0,0.0,0.0,0.0,0.0,0.0,0.0,0.0,0.0,0.0,0.0,0.0,0.0,0.0,0.0,0.0,0.0,0.0,0.0,0.0,0.0,0.0,0.0,0.0,0.0,0.0,0.0,0.0,0.0,0.0,0.0,0.0,0.0,0.0,0.0,0.0,0.0,0.0,0.0,0.0,0.0,0.0,0.0,0.0,0.0,0.0,0.0,0.0,0.0,0.0,0.0,0.0,0.0,0.0,0.0,0.0,0.0,0.0,0.0,0.0,0.0,0.0,0.0,0.0,0.0,0.0,0.0,1.8088,8.9674,-0.6891,-1.0376,29.8462,-6.958,84.6826,-1.0876,-35.1178,0.6443,0.1965,-0.2291,0.7027,0.1196,9.0679,-0.3158,144.3481,33.3862,0.7324,87.215,7.2729,-24.9115,0.6622,0.1933,-0.1131,0.7151,-1.3829,9.6995,-2.9237,53.2227,-85.9375,0.6104,102.5464,5.4053,-26.6968,0.7514,0.2086,-0.1085,0.6165,-1.5456,0.6125,9.2593,1.3428,-13.6108,0.9766,1.8127,6.2183,-93.3728,-0.0286,0.0487,-0.7259,0.6855,-0.4498,13.5037,-2.9572,-192.3218,-3.0518,60.791,88.5938,-8.866,-23.0493,0.6933,0.0849,-0.1955,0.6884,2.3112,9.0583,-11.3504,-117.5537,-3.6011,-13.0005,148.678,-14.3152,-30.8496,0.9299,0.2217,-0.1869,0.2263,5.7039,-6.9289,0.9283,-210.8765,56.0303,10.3149,63.3636,4.5044,-91.2085,0.3433,0.3984,-0.5931,0.6096,0,0,48913,18469,55045,0,0,0,4373,9765,43019,0,0,0,0,0,0,0,0,0,0,0,0,0,0,0,0,0,0,0,0,0,0,0,0,0
1777289585.256637,372832,1777289581.4817617,1777289583.6517394,1777289581.5573132,0,0,-2169.9776649475098,-75.55150985717773,1,1,0.0,0.0,0.0,0.0,0.0,0.0,0.0,0.0,0.0,0.0,0.0,0.0,0.0,0.0,0.0,0.0,0.0,0.0,0.0,0.0,0.0,0.0,0.0,0.0,0.0,0.0,0.0,0.0,0.0,0.0,0.0,0.0,0.0,0.0,0.0,0.0,0.0,0.0,0.0,0.0,0.0,0.0,0.0,0.0,0.0,0.0,0.0,0.0,0.0,0.0,0.0,0.0,0.0,0.0,0.0,0.0,0.0,0.0,0.0,0.0,0.0,0.0,0.0,0.0,0.0,0.0,0.0,0.0,0.0,0.0,0.0,0.0,0.0,0.0,0.0,1.8088,8.9674,-0.6891,-1.0376,29.8462,-6.958,84.6826,-1.0876,-35.1178,0.6443,0.1965,-0.2291,0.7027,0.1196,9.0679,-0.3158,144.3481,33.3862,0.7324,87.215,7.2729,-24.9115,0.6622,0.1933,-0.1131,0.7151,-1.3829,9.6995,-2.9237,53.2227,-85.9375,0.6104,102.5464,5.4053,-26.6968,0.7514,0.2086,-0.1085,0.6165,-1.5456,0.6125,9.2593,1.3428,-13.6108,0.9766,1.8127,6.2183,-93.3728,-0.0286,0.0487,-0.7259,0.6855,-0.4498,13.5037,-2.9572,-192.3218,-3.0518,60.791,88.5938,-8.866,-23.0493,0.6933,0.0849,-0.1955,0.6884,2.3112,9.0583,-11.3504,-117.5537,-3.6011,-13.0005,148.678,-14.3152,-30.8496,0.9299,0.2217,-0.1869,0.2263,5.7039,-6.9289,0.9283,-210.8765,56.0303,10.3149,63.3636,4.5044,-91.2085,0.3433,0.3984,-0.5931,0.6096,0,0,48913,18469,55045,0,0,0,4373,9765,43019,0,0,0,0,0,0,0,0,0,0,0,0,0,0,0,0,0,0,0,0,0,0,0,0,0
1777289585.2576373,372833,1777289581.4871368,1777289583.6517394,1777289581.5573132,0,0,-2164.602518081665,-70.17636299133301,1,1,0.0,0.0,0.0,0.0,0.0,0.0,0.0,0.0,0.0,0.0,0.0,0.0,0.0,0.0,0.0,0.0,0.0,0.0,0.0,0.0,0.0,0.0,0.0,0.0,0.0,0.0,0.0,0.0,0.0,0.0,0.0,0.0,0.0,0.0,0.0,0.0,0.0,0.0,0.0,0.0,0.0,0.0,0.0,0.0,0.0,0.0,0.0,0.0,0.0,0.0,0.0,0.0,0.0,0.0,0.0,0.0,0.0,0.0,0.0,0.0,0.0,0.0,0.0,0.0,0.0,0.0,0.0,0.0,0.0,0.0,0.0,0.0,0.0,0.0,0.0,1.8088,8.9674,-0.6891,-1.0376,29.8462,-6.958,84.6826,-1.0876,-35.1178,0.6443,0.1965,-0.2291,0.7027,0.1196,9.0679,-0.3158,144.3481,33.3862,0.7324,87.215,7.2729,-24.9115,0.6622,0.1933,-0.1131,0.7151,-1.3829,9.6995,-2.9237,53.2227,-85.9375,0.6104,102.5464,5.4053,-26.6968,0.7514,0.2086,-0.1085,0.6165,-1.5456,0.6125,9.2593,1.3428,-13.6108,0.9766,1.8127,6.2183,-93.3728,-0.0286,0.0487,-0.7259,0.6855,-0.4498,13.5037,-2.9572,-192.3218,-3.0518,60.791,88.5938,-8.866,-23.0493,0.6933,0.0849,-0.1955,0.6884,2.3112,9.0583,-11.3504,-117.5537,-3.6011,-13.0005,148.678,-14.3152,-30.8496,0.9299,0.2217,-0.1869,0.2263,5.7039,-6.9289,0.9283,-210.8765,56.0303,10.3149,63.3636,4.5044,-91.2085,0.3433,0.3984,-0.5931,0.6096,0,0,48913,18469,55045,0,0,0,4373,9765,43019,0,0,0,0,0,0,0,0,0,0,0,0,0,0,0,0,0,0,0,0,0,0,0,0,0
1777289585.2576373,372834,1777289581.5044415,1777289583.6517394,1777289581.5573132,0,0,-2147.2978591918945,-52.8717041015625,1,1,0.0,0.0,0.0,0.0,0.0,0.0,0.0,0.0,0.0,0.0,0.0,0.0,0.0,0.0,0.0,0.0,0.0,0.0,0.0,0.0,0.0,0.0,0.0,0.0,0.0,0.0,0.0,0.0,0.0,0.0,0.0,0.0,0.0,0.0,0.0,0.0,0.0,0.0,0.0,0.0,0.0,0.0,0.0,0.0,0.0,0.0,0.0,0.0,0.0,0.0,0.0,0.0,0.0,0.0,0.0,0.0,0.0,0.0,0.0,0.0,0.0,0.0,0.0,0.0,0.0,0.0,0.0,0.0,0.0,0.0,0.0,0.0,0.0,0.0,0.0,1.8088,8.9674,-0.6891,-1.0376,29.8462,-6.958,84.6826,-1.0876,-35.1178,0.6443,0.1965,-0.2291,0.7027,0.1196,9.0679,-0.3158,144.3481,33.3862,0.7324,87.215,7.2729,-24.9115,0.6622,0.1933,-0.1131,0.7151,-1.3829,9.6995,-2.9237,53.2227,-85.9375,0.6104,102.5464,5.4053,-26.6968,0.7514,0.2086,-0.1085,0.6165,-1.5456,0.6125,9.2593,1.3428,-13.6108,0.9766,1.8127,6.2183,-93.3728,-0.0286,0.0487,-0.7259,0.6855,-0.4498,13.5037,-2.9572,-192.3218,-3.0518,60.791,88.5938,-8.866,-23.0493,0.6933,0.0849,-0.1955,0.6884,2.3112,9.0583,-11.3504,-117.5537,-3.6011,-13.0005,148.678,-14.3152,-30.8496,0.9299,0.2217,-0.1869,0.2263,5.7039,-6.9289,0.9283,-210.8765,56.0303,10.3149,63.3636,4.5044,-91.2085,0.3433,0.3984,-0.5931,0.6096,0,0,48913,18469,55045,0,0,0,4373,9765,43019,0,0,0,0,0,0,0,0,0,0,0,0,0,0,0,0,0,0,0,0,0,0,0,0,0
1777289585.2576373,372835,1777289581.506657,1777289583.6517394,1777289581.5573132,0,0,-2145.082473754883,-50.65631866455078,1,1,0.0,0.0,0.0,0.0,0.0,0.0,0.0,0.0,0.0,0.0,0.0,0.0,0.0,0.0,0.0,0.0,0.0,0.0,0.0,0.0,0.0,0.0,0.0,0.0,0.0,0.0,0.0,0.0,0.0,0.0,0.0,0.0,0.0,0.0,0.0,0.0,0.0,0.0,0.0,0.0,0.0,0.0,0.0,0.0,0.0,0.0,0.0,0.0,0.0,0.0,0.0,0.0,0.0,0.0,0.0,0.0,0.0,0.0,0.0,0.0,0.0,0.0,0.0,0.0,0.0,0.0,0.0,0.0,0.0,0.0,0.0,0.0,0.0,0.0,0.0,1.8088,8.9674,-0.6891,-1.0376,29.8462,-6.958,84.6826,-1.0876,-35.1178,0.6443,0.1965,-0.2291,0.7027,0.1196,9.0679,-0.3158,144.3481,33.3862,0.7324,87.215,7.2729,-24.9115,0.6622,0.1933,-0.1131,0.7151,-1.3829,9.6995,-2.9237,53.2227,-85.9375,0.6104,102.5464,5.4053,-26.6968,0.7514,0.2086,-0.1085,0.6165,-1.5456,0.6125,9.2593,1.3428,-13.6108,0.9766,1.8127,6.2183,-93.3728,-0.0286,0.0487,-0.7259,0.6855,-0.4498,13.5037,-2.9572,-192.3218,-3.0518,60.791,88.5938,-8.866,-23.0493,0.6933,0.0849,-0.1955,0.6884,2.3112,9.0583,-11.3504,-117.5537,-3.6011,-13.0005,148.678,-14.3152,-30.8496,0.9299,0.2217,-0.1869,0.2263,5.7039,-6.9289,0.9283,-210.8765,56.0303,10.3149,63.3636,4.5044,-91.2085,0.3433,0.3984,-0.5931,0.6096,0,0,48913,18469,55045,0,0,0,4373,9765,43019,0,0,0,0,0,0,0,0,0,0,0,0,0,0,0,0,0,0,0,0,0,0,0,0,0
1777289585.2576373,372836,1777289581.517803,1777289583.6517394,1777289581.5573132,0,0,-2133.9364051818848,-39.510250091552734,1,1,0.0,0.0,0.0,0.0,0.0,0.0,0.0,0.0,0.0,0.0,0.0,0.0,0.0,0.0,0.0,0.0,0.0,0.0,0.0,0.0,0.0,0.0,0.0,0.0,0.0,0.0,0.0,0.0,0.0,0.0,0.0,0.0,0.0,0.0,0.0,0.0,0.0,0.0,0.0,0.0,0.0,0.0,0.0,0.0,0.0,0.0,0.0,0.0,0.0,0.0,0.0,0.0,0.0,0.0,0.0,0.0,0.0,0.0,0.0,0.0,0.0,0.0,0.0,0.0,0.0,0.0,0.0,0.0,0.0,0.0,0.0,0.0,0.0,0.0,0.0,1.8088,8.9674,-0.6891,-1.0376,29.8462,-6.958,84.6826,-1.0876,-35.1178,0.6443,0.1965,-0.2291,0.7027,0.1196,9.0679,-0.3158,144.3481,33.3862,0.7324,87.215,7.2729,-24.9115,0.6622,0.1933,-0.1131,0.7151,-1.3829,9.6995,-2.9237,53.2227,-85.9375,0.6104,102.5464,5.4053,-26.6968,0.7514,0.2086,-0.1085,0.6165,-1.5456,0.6125,9.2593,1.3428,-13.6108,0.9766,1.8127,6.2183,-93.3728,-0.0286,0.0487,-0.7259,0.6855,-0.4498,13.5037,-2.9572,-192.3218,-3.0518,60.791,88.5938,-8.866,-23.0493,0.6933,0.0849,-0.1955,0.6884,2.3112,9.0583,-11.3504,-117.5537,-3.6011,-13.0005,148.678,-14.3152,-30.8496,0.9299,0.2217,-0.1869,0.2263,5.7039,-6.9289,0.9283,-210.8765,56.0303,10.3149,63.3636,4.5044,-91.2085,0.3433,0.3984,-0.5931,0.6096,0,0,48913,18469,55045,0,0,0,4373,9765,43019,0,0,0,0,0,0,0,0,0,0,0,0,0,0,0,0,0,0,0,0,0,0,0,0,0
1777289585.2576373,372837,1777289581.5305583,1777289583.6517394,1777289581.5573132,0,0,-2121.181011199951,-26.75485610961914,1,1,0.0,0.0,0.0,0.0,0.0,0.0,0.0,0.0,0.0,0.0,0.0,0.0,0.0,0.0,0.0,0.0,0.0,0.0,0.0,0.0,0.0,0.0,0.0,0.0,0.0,0.0,0.0,0.0,0.0,0.0,0.0,0.0,0.0,0.0,0.0,0.0,0.0,0.0,0.0,0.0,0.0,0.0,0.0,0.0,0.0,0.0,0.0,0.0,0.0,0.0,0.0,0.0,0.0,0.0,0.0,0.0,0.0,0.0,0.0,0.0,0.0,0.0,0.0,0.0,0.0,0.0,0.0,0.0,0.0,0.0,0.0,0.0,0.0,0.0,0.0,1.8088,8.9674,-0.6891,-1.0376,29.8462,-6.958,84.6826,-1.0876,-35.1178,0.6443,0.1965,-0.2291,0.7027,0.1196,9.0679,-0.3158,144.3481,33.3862,0.7324,87.215,7.2729,-24.9115,0.6622,0.1933,-0.1131,0.7151,-1.3829,9.6995,-2.9237,53.2227,-85.9375,0.6104,102.5464,5.4053,-26.6968,0.7514,0.2086,-0.1085,0.6165,-1.5456,0.6125,9.2593,1.3428,-13.6108,0.9766,1.8127,6.2183,-93.3728,-0.0286,0.0487,-0.7259,0.6855,-0.4498,13.5037,-2.9572,-192.3218,-3.0518,60.791,88.5938,-8.866,-23.0493,0.6933,0.0849,-0.1955,0.6884,2.3112,9.0583,-11.3504,-117.5537,-3.6011,-13.0005,148.678,-14.3152,-30.8496,0.9299,0.2217,-0.1869,0.2263,5.7039,-6.9289,0.9283,-210.8765,56.0303,10.3149,63.3636,4.5044,-91.2085,0.3433,0.3984,-0.5931,0.6096,0,0,48913,18469,55045,0,0,0,4373,9765,43019,0,0,0,0,0,0,0,0,0,0,0,0,0,0,0,0,0,0,0,0,0,0,0,0,0
1777289585.2576373,372838,1777289581.5367017,1777289583.6517394,1777289581.5573132,0,0,-2115.037679672241,-20.61152458190918,1,1,0.0,0.0,0.0,0.0,0.0,0.0,0.0,0.0,0.0,0.0,0.0,0.0,0.0,0.0,0.0,0.0,0.0,0.0,0.0,0.0,0.0,0.0,0.0,0.0,0.0,0.0,0.0,0.0,0.0,0.0,0.0,0.0,0.0,0.0,0.0,0.0,0.0,0.0,0.0,0.0,0.0,0.0,0.0,0.0,0.0,0.0,0.0,0.0,0.0,0.0,0.0,0.0,0.0,0.0,0.0,0.0,0.0,0.0,0.0,0.0,0.0,0.0,0.0,0.0,0.0,0.0,0.0,0.0,0.0,0.0,0.0,0.0,0.0,0.0,0.0,1.8088,8.9674,-0.6891,-1.0376,29.8462,-6.958,84.6826,-1.0876,-35.1178,0.6443,0.1965,-0.2291,0.7027,0.1196,9.0679,-0.3158,144.3481,33.3862,0.7324,87.215,7.2729,-24.9115,0.6622,0.1933,-0.1131,0.7151,-1.3829,9.6995,-2.9237,53.2227,-85.9375,0.6104,102.5464,5.4053,-26.6968,0.7514,0.2086,-0.1085,0.6165,-1.5456,0.6125,9.2593,1.3428,-13.6108,0.9766,1.8127,6.2183,-93.3728,-0.0286,0.0487,-0.7259,0.6855,-0.4498,13.5037,-2.9572,-192.3218,-3.0518,60.791,88.5938,-8.866,-23.0493,0.6933,0.0849,-0.1955,0.6884,2.3112,9.0583,-11.3504,-117.5537,-3.6011,-13.0005,148.678,-14.3152,-30.8496,0.9299,0.2217,-0.1869,0.2263,5.7039,-6.9289,0.9283,-210.8765,56.0303,10.3149,63.3636,4.5044,-91.2085,0.3433,0.3984,-0.5931,0.6096,0,0,48913,18469,55045,0,0,0,4373,9765,43019,0,0,0,0,0,0,0,0,0,0,0,0,0,0,0,0,0,0,0,0,0,0,0,0,0
1777289585.2576373,372839,1777289581.5481117,1777289583.6517394,1777289581.5573132,0,0,-2103.6276817321777,-9.201526641845703,1,1,0.0,0.0,0.0,0.0,0.0,0.0,0.0,0.0,0.0,0.0,0.0,0.0,0.0,0.0,0.0,0.0,0.0,0.0,0.0,0.0,0.0,0.0,0.0,0.0,0.0,0.0,0.0,0.0,0.0,0.0,0.0,0.0,0.0,0.0,0.0,0.0,0.0,0.0,0.0,0.0,0.0,0.0,0.0,0.0,0.0,0.0,0.0,0.0,0.0,0.0,0.0,0.0,0.0,0.0,0.0,0.0,0.0,0.0,0.0,0.0,0.0,0.0,0.0,0.0,0.0,0.0,0.0,0.0,0.0,0.0,0.0,0.0,0.0,0.0,0.0,1.8088,8.9674,-0.6891,-1.0376,29.8462,-6.958,84.6826,-1.0876,-35.1178,0.6443,0.1965,-0.2291,0.7027,0.1196,9.0679,-0.3158,144.3481,33.3862,0.7324,87.215,7.2729,-24.9115,0.6622,0.1933,-0.1131,0.7151,-1.3829,9.6995,-2.9237,53.2227,-85.9375,0.6104,102.5464,5.4053,-26.6968,0.7514,0.2086,-0.1085,0.6165,-1.5456,0.6125,9.2593,1.3428,-13.6108,0.9766,1.8127,6.2183,-93.3728,-0.0286,0.0487,-0.7259,0.6855,-0.4498,13.5037,-2.9572,-192.3218,-3.0518,60.791,88.5938,-8.866,-23.0493,0.6933,0.0849,-0.1955,0.6884,2.3112,9.0583,-11.3504,-117.5537,-3.6011,-13.0005,148.678,-14.3152,-30.8496,0.9299,0.2217,-0.1869,0.2263,5.7039,-6.9289,0.9283,-210.8765,56.0303,10.3149,63.3636,4.5044,-91.2085,0.3433,0.3984,-0.5931,0.6096,0,0,48913,18469,55045,0,0,0,4373,9765,43019,0,0,0,0,0,0,0,0,0,0,0,0,0,0,0,0,0,0,0,0,0,0,0,0,0
1777289585.2576373,372840,1777289581.5603147,1777289583.6517394,1777289581.5573132,0,0,-2091.4247035980225,3.0014514923095703,1,1,0.0,0.0,0.0,0.0,0.0,0.0,0.0,0.0,0.0,0.0,0.0,0.0,0.0,0.0,0.0,0.0,0.0,0.0,0.0,0.0,0.0,0.0,0.0,0.0,0.0,0.0,0.0,0.0,0.0,0.0,0.0,0.0,0.0,0.0,0.0,0.0,0.0,0.0,0.0,0.0,0.0,0.0,0.0,0.0,0.0,0.0,0.0,0.0,0.0,0.0,0.0,0.0,0.0,0.0,0.0,0.0,0.0,0.0,0.0,0.0,0.0,0.0,0.0,0.0,0.0,0.0,0.0,0.0,0.0,0.0,0.0,0.0,0.0,0.0,0.0,1.8088,8.9674,-0.6891,-1.0376,29.8462,-6.958,84.6826,-1.0876,-35.1178,0.6443,0.1965,-0.2291,0.7027,0.1196,9.0679,-0.3158,144.3481,33.3862,0.7324,87.215,7.2729,-24.9115,0.6622,0.1933,-0.1131,0.7151,-1.3829,9.6995,-2.9237,53.2227,-85.9375,0.6104,102.5464,5.4053,-26.6968,0.7514,0.2086,-0.1085,0.6165,-1.5456,0.6125,9.2593,1.3428,-13.6108,0.9766,1.8127,6.2183,-93.3728,-0.0286,0.0487,-0.7259,0.6855,-0.4498,13.5037,-2.9572,-192.3218,-3.0518,60.791,88.5938,-8.866,-23.0493,0.6933,0.0849,-0.1955,0.6884,2.3112,9.0583,-11.3504,-117.5537,-3.6011,-13.0005,148.678,-14.3152,-30.8496,0.9299,0.2217,-0.1869,0.2263,5.7039,-6.9289,0.9283,-210.8765,56.0303,10.3149,63.3636,4.5044,-91.2085,0.3433,0.3984,-0.5931,0.6096,0,0,48913,18469,55045,0,0,0,4373,9765,43019,0,0,0,0,0,0,0,0,0,0,0,0,0,0,0,0,0,0,0,0,0,0,0,0,0
1777289585.2576373,372841,1777289581.566904,1777289583.6517394,1777289581.5573132,0,0,-2084.8352909088135,9.590864181518555,1,1,0.0,0.0,0.0,0.0,0.0,0.0,0.0,0.0,0.0,0.0,0.0,0.0,0.0,0.0,0.0,0.0,0.0,0.0,0.0,0.0,0.0,0.0,0.0,0.0,0.0,0.0,0.0,0.0,0.0,0.0,0.0,0.0,0.0,0.0,0.0,0.0,0.0,0.0,0.0,0.0,0.0,0.0,0.0,0.0,0.0,0.0,0.0,0.0,0.0,0.0,0.0,0.0,0.0,0.0,0.0,0.0,0.0,0.0,0.0,0.0,0.0,0.0,0.0,0.0,0.0,0.0,0.0,0.0,0.0,0.0,0.0,0.0,0.0,0.0,0.0,1.8088,8.9674,-0.6891,-1.0376,29.8462,-6.958,84.6826,-1.0876,-35.1178,0.6443,0.1965,-0.2291,0.7027,0.1196,9.0679,-0.3158,144.3481,33.3862,0.7324,87.215,7.2729,-24.9115,0.6622,0.1933,-0.1131,0.7151,-1.3829,9.6995,-2.9237,53.2227,-85.9375,0.6104,102.5464,5.4053,-26.6968,0.7514,0.2086,-0.1085,0.6165,-1.5456,0.6125,9.2593,1.3428,-13.6108,0.9766,1.8127,6.2183,-93.3728,-0.0286,0.0487,-0.7259,0.6855,-0.4498,13.5037,-2.9572,-192.3218,-3.0518,60.791,88.5938,-8.866,-23.0493,0.6933,0.0849,-0.1955,0.6884,2.3112,9.0583,-11.3504,-117.5537,-3.6011,-13.0005,148.678,-14.3152,-30.8496,0.9299,0.2217,-0.1869,0.2263,5.7039,-6.9289,0.9283,-210.8765,56.0303,10.3149,63.3636,4.5044,-91.2085,0.3433,0.3984,-0.5931,0.6096,0,0,48913,18469,55045,0,0,0,4373,9765,43019,0,0,0,0,0,0,0,0,0,0,0,0,0,0,0,0,0,0,0,0,0,0,0,0,0
1777289585.2576373,372842,1777289581.5780678,1777289583.6517394,1777289581.5573132,0,0,-2073.671579360962,20.754575729370117,1,1,0.0,0.0,0.0,0.0,0.0,0.0,0.0,0.0,0.0,0.0,0.0,0.0,0.0,0.0,0.0,0.0,0.0,0.0,0.0,0.0,0.0,0.0,0.0,0.0,0.0,0.0,0.0,0.0,0.0,0.0,0.0,0.0,0.0,0.0,0.0,0.0,0.0,0.0,0.0,0.0,0.0,0.0,0.0,0.0,0.0,0.0,0.0,0.0,0.0,0.0,0.0,0.0,0.0,0.0,0.0,0.0,0.0,0.0,0.0,0.0,0.0,0.0,0.0,0.0,0.0,0.0,0.0,0.0,0.0,0.0,0.0,0.0,0.0,0.0,0.0,1.8088,8.9674,-0.6891,-1.0376,29.8462,-6.958,84.6826,-1.0876,-35.1178,0.6443,0.1965,-0.2291,0.7027,0.1196,9.0679,-0.3158,144.3481,33.3862,0.7324,87.215,7.2729,-24.9115,0.6622,0.1933,-0.1131,0.7151,-1.3829,9.6995,-2.9237,53.2227,-85.9375,0.6104,102.5464,5.4053,-26.6968,0.7514,0.2086,-0.1085,0.6165,-1.5456,0.6125,9.2593,1.3428,-13.6108,0.9766,1.8127,6.2183,-93.3728,-0.0286,0.0487,-0.7259,0.6855,-0.4498,13.5037,-2.9572,-192.3218,-3.0518,60.791,88.5938,-8.866,-23.0493,0.6933,0.0849,-0.1955,0.6884,2.3112,9.0583,-11.3504,-117.5537,-3.6011,-13.0005,148.678,-14.3152,-30.8496,0.9299,0.2217,-0.1869,0.2263,5.7039,-6.9289,0.9283,-210.8765,56.0303,10.3149,63.3636,4.5044,-91.2085,0.3433,0.3984,-0.5931,0.6096,0,0,48913,18469,55045,0,0,0,4373,9765,43019,0,0,0,0,0,0,0,0,0,0,0,0,0,0,0,0,0,0,0,0,0,0,0,0,0
1777289585.2576373,372843,1777289581.5877848,1777289583.6517394,1777289581.5573132,0,0,-2063.9545917510986,30.4715633392334,1,1,0.0,0.0,0.0,0.0,0.0,0.0,0.0,0.0,0.0,0.0,0.0,0.0,0.0,0.0,0.0,0.0,0.0,0.0,0.0,0.0,0.0,0.0,0.0,0.0,0.0,0.0,0.0,0.0,0.0,0.0,0.0,0.0,0.0,0.0,0.0,0.0,0.0,0.0,0.0,0.0,0.0,0.0,0.0,0.0,0.0,0.0,0.0,0.0,0.0,0.0,0.0,0.0,0.0,0.0,0.0,0.0,0.0,0.0,0.0,0.0,0.0,0.0,0.0,0.0,0.0,0.0,0.0,0.0,0.0,0.0,0.0,0.0,0.0,0.0,0.0,1.8088,8.9674,-0.6891,-1.0376,29.8462,-6.958,84.6826,-1.0876,-35.1178,0.6443,0.1965,-0.2291,0.7027,0.1196,9.0679,-0.3158,144.3481,33.3862,0.7324,87.215,7.2729,-24.9115,0.6622,0.1933,-0.1131,0.7151,-1.3829,9.6995,-2.9237,53.2227,-85.9375,0.6104,102.5464,5.4053,-26.6968,0.7514,0.2086,-0.1085,0.6165,-1.5456,0.6125,9.2593,1.3428,-13.6108,0.9766,1.8127,6.2183,-93.3728,-0.0286,0.0487,-0.7259,0.6855,-0.4498,13.5037,-2.9572,-192.3218,-3.0518,60.791,88.5938,-8.866,-23.0493,0.6933,0.0849,-0.1955,0.6884,2.3112,9.0583,-11.3504,-117.5537,-3.6011,-13.0005,148.678,-14.3152,-30.8496,0.9299,0.2217,-0.1869,0.2263,5.7039,-6.9289,0.9283,-210.8765,56.0303,10.3149,63.3636,4.5044,-91.2085,0.3433,0.3984,-0.5931,0.6096,0,0,48913,18469,55045,0,0,0,4373,9765,43019,0,0,0,0,0,0,0,0,0,0,0,0,0,0,0,0,0,0,0,0,0,0,0,0,0
1777289585.2586374,372844,1777289581.597901,1777289583.6517394,1777289581.5573132,0,0,-2053.8382530212402,40.5879020690918,1,1,0.0,0.0,0.0,0.0,0.0,0.0,0.0,0.0,0.0,0.0,0.0,0.0,0.0,0.0,0.0,0.0,0.0,0.0,0.0,0.0,0.0,0.0,0.0,0.0,0.0,0.0,0.0,0.0,0.0,0.0,0.0,0.0,0.0,0.0,0.0,0.0,0.0,0.0,0.0,0.0,0.0,0.0,0.0,0.0,0.0,0.0,0.0,0.0,0.0,0.0,0.0,0.0,0.0,0.0,0.0,0.0,0.0,0.0,0.0,0.0,0.0,0.0,0.0,0.0,0.0,0.0,0.0,0.0,0.0,0.0,0.0,0.0,0.0,0.0,0.0,1.8088,8.9674,-0.6891,-1.0376,29.8462,-6.958,84.6826,-1.0876,-35.1178,0.6443,0.1965,-0.2291,0.7027,0.1196,9.0679,-0.3158,144.3481,33.3862,0.7324,87.215,7.2729,-24.9115,0.6622,0.1933,-0.1131,0.7151,-1.3829,9.6995,-2.9237,53.2227,-85.9375,0.6104,102.5464,5.4053,-26.6968,0.7514,0.2086,-0.1085,0.6165,-1.5456,0.6125,9.2593,1.3428,-13.6108,0.9766,1.8127,6.2183,-93.3728,-0.0286,0.0487,-0.7259,0.6855,-0.4498,13.5037,-2.9572,-192.3218,-3.0518,60.791,88.5938,-8.866,-23.0493,0.6933,0.0849,-0.1955,0.6884,2.3112,9.0583,-11.3504,-117.5537,-3.6011,-13.0005,148.678,-14.3152,-30.8496,0.9299,0.2217,-0.1869,0.2263,5.7039,-6.9289,0.9283,-210.8765,56.0303,10.3149,63.3636,4.5044,-91.2085,0.3433,0.3984,-0.5931,0.6096,0,0,48913,18469,55045,0,0,0,4373,9765,43019,0,0,0,0,0,0,0,0,0,0,0,0,0,0,0,0,0,0,0,0,0,0,0,0,0
1777289585.2586374,372845,1777289581.6081145,1777289583.6517394,1777289581.5573132,0,0,-2043.6248779296875,50.80127716064453,1,1,0.0,0.0,0.0,0.0,0.0,0.0,0.0,0.0,0.0,0.0,0.0,0.0,0.0,0.0,0.0,0.0,0.0,0.0,0.0,0.0,0.0,0.0,0.0,0.0,0.0,0.0,0.0,0.0,0.0,0.0,0.0,0.0,0.0,0.0,0.0,0.0,0.0,0.0,0.0,0.0,0.0,0.0,0.0,0.0,0.0,0.0,0.0,0.0,0.0,0.0,0.0,0.0,0.0,0.0,0.0,0.0,0.0,0.0,0.0,0.0,0.0,0.0,0.0,0.0,0.0,0.0,0.0,0.0,0.0,0.0,0.0,0.0,0.0,0.0,0.0,1.8088,8.9674,-0.6891,-1.0376,29.8462,-6.958,84.6826,-1.0876,-35.1178,0.6443,0.1965,-0.2291,0.7027,0.1196,9.0679,-0.3158,144.3481,33.3862,0.7324,87.215,7.2729,-24.9115,0.6622,0.1933,-0.1131,0.7151,-1.3829,9.6995,-2.9237,53.2227,-85.9375,0.6104,102.5464,5.4053,-26.6968,0.7514,0.2086,-0.1085,0.6165,-1.5456,0.6125,9.2593,1.3428,-13.6108,0.9766,1.8127,6.2183,-93.3728,-0.0286,0.0487,-0.7259,0.6855,-0.4498,13.5037,-2.9572,-192.3218,-3.0518,60.791,88.5938,-8.866,-23.0493,0.6933,0.0849,-0.1955,0.6884,2.3112,9.0583,-11.3504,-117.5537,-3.6011,-13.0005,148.678,-14.3152,-30.8496,0.9299,0.2217,-0.1869,0.2263,5.7039,-6.9289,0.9283,-210.8765,56.0303,10.3149,63.3636,4.5044,-91.2085,0.3433,0.3984,-0.5931,0.6096,0,0,48913,18469,55045,0,0,0,4373,9765,43019,0,0,0,0,0,0,0,0,0,0,0,0,0,0,0,0,0,0,0,0,0,0,0,0,0
1777289585.2586374,372846,1777289581.6168537,1777289583.6517394,1777289581.6168537,0,0,-2034.8856449127197,0.0,1,1,0.0,0.0,0.0,0.0,0.0,0.0,0.0,0.0,0.0,0.0,0.0,0.0,0.0,0.0,0.0,0.0,0.0,0.0,0.0,0.0,0.0,0.0,0.0,0.0,0.0,0.0,0.0,0.0,0.0,0.0,0.0,0.0,0.0,0.0,0.0,0.0,0.0,0.0,0.0,0.0,0.0,0.0,0.0,0.0,0.0,0.0,0.0,0.0,0.0,0.0,0.0,0.0,0.0,0.0,0.0,0.0,0.0,0.0,0.0,0.0,0.0,0.0,0.0,0.0,0.0,0.0,0.0,0.0,0.0,0.0,0.0,0.0,0.0,0.0,0.0,1.8088,8.9674,-0.6891,-1.0376,29.8462,-6.958,84.6826,-1.0876,-35.1178,0.6443,0.1965,-0.2291,0.7027,0.1196,9.0679,-0.3158,144.3481,33.3862,0.7324,87.215,7.2729,-24.9115,0.6622,0.1933,-0.1131,0.7151,-1.3829,9.6995,-2.9237,53.2227,-85.9375,0.6104,102.5464,5.4053,-26.6968,0.7514,0.2086,-0.1085,0.6165,-1.5456,0.6125,9.2593,1.3428,-13.6108,0.9766,1.8127,6.2183,-93.3728,-0.0286,0.0487,-0.7259,0.6855,-0.4498,13.5037,-2.9572,-192.3218,-3.0518,60.791,88.5938,-8.866,-23.0493,0.6933,0.0849,-0.1955,0.6884,2.3112,9.0583,-11.3504,-117.5537,-3.6011,-13.0005,148.678,-14.3152,-30.8496,0.9299,0.2217,-0.1869,0.2263,5.7039,-6.9289,0.9283,-210.8765,56.0303,10.3149,63.3636,4.5044,-91.2085,0.3433,0.3984,-0.5931,0.6096,0,0,48913,18469,55045,0,0,0,4373,9765,43019,0,0,0,0,0,0,0,48137,45060,36099,0,0,0,45058,62726,8960,0,0,0,0,0,0,0,0,0
