Recv_Timestamp,Device_Name,Acc_X,Acc_Y,Acc_Z,Gyro_X,Gyro_Y,Gyro_Z,Roll,Pitch,Yaw,Quat_x,Quat_y,Quat_z,Quat_w
1777289580.7791023,Trunk,0.0,0.0,0.0,0.0,0.0,0.0,0.0,0.0,0.0,0.0,0.0,0.0,1.0
1777289580.7791023,L_Femur,0.0,0.0,0.0,0.0,0.0,0.0,0.0,0.0,0.0,0.0,0.0,0.0,1.0
1777289580.7791023,L_Tibia,-0.3158,9.5177,-3.9573,91.98,27.3438,17.7002,121.6571,2.2632,-20.3851,0.8575,0.164,-0.0693,0.4827
1777289580.7791023,L_Foot,0.0,0.0,0.0,0.0,0.0,0.0,0.0,0.0,0.0,0.0,0.0,0.0,1.0
1777289580.7791023,R_Femur,0.0,0.0,0.0,0.0,0.0,0.0,0.0,0.0,0.0,0.0,0.0,0.0,1.0
1777289580.7791023,R_Tibia,0.0,0.0,0.0,0.0,0.0,0.0,0.0,0.0,0.0,0.0,0.0,0.0,1.0
1777289580.7791023,R_Foot,0.0,0.0,0.0,0.0,0.0,0.0,0.0,0.0,0.0,0.0,0.0,0.0,1.0
1777289580.7791023,Trunk,0.0,0.0,0.0,0.0,0.0,0.0,0.0,0.0,0.0,0.0,0.0,0.0,1.0
1777289580.7791023,L_Femur,0.0,0.0,0.0,0.0,0.0,0.0,0.0,0.0,0.0,0.0,0.0,0.0,1.0
1777289580.7791023,L_Tibia,-0.3158,9.5177,-3.9573,91.98,27.3438,17.7002,121.6571,2.2632,-20.3851,0.8575,0.164,-0.0693,0.4827
1777289580.7791023,L_Foot,-0.8948,1.5552,9.8144,36.1328,-4.3945,2.1973,10.1953,6.4325,-89.1321,0.024,0.1021,-0.6943,0.712
1777289580.7791023,R_Femur,0.0,0.0,0.0,0.0,0.0,0.0,0.0,0.0,0.0,0.0,0.0,0.0,1.0
1777289580.7791023,R_Tibia,0.0,0.0,0.0,0.0,0.0,0.0,0.0,0.0,0.0,0.0,0.0,0.0,1.0
1777289580.7791023,R_Foot,0.0,0.0,0.0,0.0,0.0,0.0,0.0,0.0,0.0,0.0,0.0,0.0,1.0
1777289580.7791023,Trunk,0.0,0.0,0.0,0.0,0.0,0.0,0.0,0.0,0.0,0.0,0.0,0.0,1.0
1777289580.7791023,L_Femur,0.0,0.0,0.0,0.0,0.0,0.0,0.0,0.0,0.0,0.0,0.0,0.0,1.0
1777289580.7791023,L_Tibia,-0.3158,9.5177,-3.9573,91.98,27.3438,17.7002,121.6571,2.2632,-20.3851,0.8575,0.164,-0.0693,0.4827
1777289580.7791023,L_Foot,-0.8948,1.5552,9.8144,36.1328,-4.3945,2.1973,10.1953,6.4325,-89.1321,0.024,0.1021,-0.6943,0.712
1777289580.7791023,R_Femur,0.847,8.7377,6.4504,-30.2734,37.6587,41.1377,72.0538,-4.0375,-12.6013,0.5874,0.0362,-0.1093,0.8011
1777289580.7791023,R_Tibia,0.0,0.0,0.0,0.0,0.0,0.0,0.0,0.0,0.0,0.0,0.0,0.0,1.0
1777289580.7791023,R_Foot,0.0,0.0,0.0,0.0,0.0,0.0,0.0,0.0,0.0,0.0,0.0,0.0,1.0
1777289580.7791023,Trunk,0.0,0.0,0.0,0.0,0.0,0.0,0.0,0.0,0.0,0.0,0.0,0.0,1.0
1777289580.7791023,L_Femur,0.0,0.0,0.0,0.0,0.0,0.0,0.0,0.0,0.0,0.0,0.0,0.0,1.0
1777289580.7791023,L_Tibia,-0.3158,9.5177,-3.9573,91.98,27.3438,17.7002,121.6571,2.2632,-20.3851,0.8575,0.164,-0.0693,0.4827
1777289580.7791023,L_Foot,-0.8948,1.5552,9.8144,36.1328,-4.3945,2.1973,10.1953,6.4325,-89.1321,0.024,0.1021,-0.6943,0.712
1777289580.7791023,R_Femur,0.847,8.7377,6.4504,-30.2734,37.6587,41.1377,72.0538,-4.0375,-12.6013,0.5874,0.0362,-0.1093,0.8011
1777289580.7791023,R_Tibia,3.6989,5.5651,1.8758,127.9297,15.7471,59.3262,69.6643,2.3291,-23.8184,0.5553,0.1342,-0.158,0.8054
1777289580.7791023,R_Foot,0.0,0.0,0.0,0.0,0.0,0.0,0.0,0.0,0.0,0.0,0.0,0.0,1.0
1777289580.7791023,Trunk,0.0,0.0,0.0,0.0,0.0,0.0,0.0,0.0,0.0,0.0,0.0,0.0,1.0
1777289580.7791023,L_Femur,0.0,0.0,0.0,0.0,0.0,0.0,0.0,0.0,0.0,0.0,0.0,0.0,1.0
1777289580.7791023,L_Tibia,-0.3158,9.5177,-3.9573,91.98,27.3438,17.7002,121.6571,2.2632,-20.3851,0.8575,0.164,-0.0693,0.4827
1777289580.7791023,L_Foot,-0.8948,1.5552,9.8144,36.1328,-4.3945,2.1973,10.1953,6.4325,-89.1321,0.024,0.1021,-0.6943,0.712
1777289580.7791023,R_Femur,0.847,8.7377,6.4504,-30.2734,37.6587,41.1377,72.0538,-4.0375,-12.6013,0.5874,0.0362,-0.1093,0.8011
1777289580.7791023,R_Tibia,3.6989,5.5651,1.8758,127.9297,15.7471,59.3262,69.6643,2.3291,-23.8184,0.5553,0.1342,-0.158,0.8054
1777289580.7791023,R_Foot,8.819,13.6473,-3.0673,224.6094,285.4004,5.7983,-21.3904,-11.8707,-87.149,-0.0637,-0.2009,-0.6598,0.7213
1777289580.7791023,Trunk,-1.1437,9.5751,3.4549,18.4326,22.3389,14.9536,84.8145,-0.791,-22.1155,0.6628,0.1243,-0.1462,0.7238
1777289580.7791023,L_Femur,0.0,0.0,0.0,0.0,0.0,0.0,0.0,0.0,0.0,0.0,0.0,0.0,1.0
1777289580.7791023,L_Tibia,-0.3158,9.5177,-3.9573,91.98,27.3438,17.7002,121.6571,2.2632,-20.3851,0.8575,0.164,-0.0693,0.4827
1777289580.7791023,L_Foot,-0.8948,1.5552,9.8144,36.1328,-4.3945,2.1973,10.1953,6.4325,-89.1321,0.024,0.1021,-0.6943,0.712
1777289580.7791023,R_Femur,0.847,8.7377,6.4504,-30.2734,37.6587,41.1377,72.0538,-4.0375,-12.6013,0.5874,0.0362,-0.1093,0.8011
1777289580.7791023,R_Tibia,3.6989,5.5651,1.8758,127.9297,15.7471,59.3262,69.6643,2.3291,-23.8184,0.5553,0.1342,-0.158,0.8054
1777289580.7791023,R_Foot,8.819,13.6473,-3.0673,224.6094,285.4004,5.7983,-21.3904,-11.8707,-87.149,-0.0637,-0.2009,-0.6598,0.7213
1777289580.7804556,Trunk,-1.1437,9.5751,3.4549,18.4326,22.3389,14.9536,84.8145,-0.791,-22.1155,0.6628,0.1243,-0.1462,0.7238
1777289580.7804556,L_Femur,-0.5981,9.6517,-1.7753,60.1807,34.1797,11.5967,116.521,-0.5109,-1.5216,0.8504,0.0089,-0.0108,0.526
1777289580.7804556,L_Tibia,-0.3158,9.5177,-3.9573,91.98,27.3438,17.7002,121.6571,2.2632,-20.3851,0.8575,0.164,-0.0693,0.4827
1777289580.7804556,L_Foot,-0.8948,1.5552,9.8144,36.1328,-4.3945,2.1973,10.1953,6.4325,-89.1321,0.024,0.1021,-0.6943,0.712
1777289580.7804556,R_Femur,0.847,8.7377,6.4504,-30.2734,37.6587,41.1377,72.0538,-4.0375,-12.6013,0.5874,0.0362,-0.1093,0.8011
1777289580.7804556,R_Tibia,3.6989,5.5651,1.8758,127.9297,15.7471,59.3262,69.6643,2.3291,-23.8184,0.5553,0.1342,-0.158,0.8054
1777289580.7804556,R_Foot,8.819,13.6473,-3.0673,224.6094,285.4004,5.7983,-21.3904,-11.8707,-87.149,-0.0637,-0.2009,-0.6598,0.7213
1777289580.7804556,Trunk,-1.1437,9.5751,3.4549,18.4326,22.3389,14.9536,84.8145,-0.791,-22.1155,0.6628,0.1243,-0.1462,0.7238
1777289580.7804556,L_Femur,-0.5981,9.6517,-1.7753,60.1807,34.1797,11.5967,116.521,-0.5109,-1.5216,0.8504,0.0089,-0.0108,0.526
1777289580.7804556,L_Tibia,-0.8805,10.1637,-3.919,98.0835,21.9116,24.231,123.5907,1.6425,-20.2203,0.8663,0.1614,-0.0705,0.4675
1777289580.7804556,L_Foot,-0.8948,1.5552,9.8144,36.1328,-4.3945,2.1973,10.1953,6.4325,-89.1321,0.024,0.1021,-0.6943,0.712
1777289580.7804556,R_Femur,0.847,8.7377,6.4504,-30.2734,37.6587,41.1377,72.0538,-4.0375,-12.6013,0.5874,0.0362,-0.1093,0.8011
1777289580.7804556,R_Tibia,3.6989,5.5651,1.8758,127.9297,15.7471,59.3262,69.6643,2.3291,-23.8184,0.5553,0.1342,-0.158,0.8054
1777289580.7804556,R_Foot,8.819,13.6473,-3.0673,224.6094,285.4004,5.7983,-21.3904,-11.8707,-87.149,-0.0637,-0.2009,-0.6598,0.7213
1777289580.7809327,Trunk,-1.1437,9.5751,3.4549,18.4326,22.3389,14.9536,84.8145,-0.791,-22.1155,0.6628,0.1243,-0.1462,0.7238
1777289580.7809327,L_Femur,-0.5981,9.6517,-1.7753,60.1807,34.1797,11.5967,116.521,-0.5109,-1.5216,0.8504,0.0089,-0.0108,0.526
1777289580.7809327,L_Tibia,-0.8805,10.1637,-3.919,98.0835,21.9116,24.231,123.5907,1.6425,-20.2203,0.8663,0.1614,-0.0705,0.4675
1777289580.7809327,L_Foot,-0.914,1.5121,9.6421,35.4004,-0.5493,3.6621,10.7446,6.4325,-89.0936,0.0274,0.1054,-0.6936,0.7121
1777289580.7809327,R_Femur,0.847,8.7377,6.4504,-30.2734,37.6587,41.1377,72.0538,-4.0375,-12.6013,0.5874,0.0362,-0.1093,0.8011
1777289580.7809327,R_Tibia,3.6989,5.5651,1.8758,127.9297,15.7471,59.3262,69.6643,2.3291,-23.8184,0.5553,0.1342,-0.158,0.8054
1777289580.7809327,R_Foot,8.819,13.6473,-3.0673,224.6094,285.4004,5.7983,-21.3904,-11.8707,-87.149,-0.0637,-0.2009,-0.6598,0.7213
1777289580.7809327,Trunk,-1.1437,9.5751,3.4549,18.4326,22.3389,14.9536,84.8145,-0.791,-22.1155,0.6628,0.1243,-0.1462,0.7238
1777289580.7809327,L_Femur,-0.5981,9.6517,-1.7753,60.1807,34.1797,11.5967,116.521,-0.5109,-1.5216,0.8504,0.0089,-0.0108,0.526
1777289580.7809327,L_Tibia,-0.8805,10.1637,-3.919,98.0835,21.9116,24.231,123.5907,1.6425,-20.2203,0.8663,0.1614,-0.0705,0.4675
1777289580.7809327,L_Foot,-0.914,1.5121,9.6421,35.4004,-0.5493,3.6621,10.7446,6.4325,-89.0936,0.0274,0.1054,-0.6936,0.7121
1777289580.7809327,R_Femur,-0.0431,8.5415,3.3305,-3.7842,30.5786,52.3682,71.7737,-4.79,-11.6565,0.5861,0.0258,-0.1066,0.8028
1777289580.7809327,R_Tibia,3.6989,5.5651,1.8758,127.9297,15.7471,59.3262,69.6643,2.3291,-23.8184,0.5553,0.1342,-0.158,0.8054
1777289580.7809327,R_Foot,8.819,13.6473,-3.0673,224.6094,285.4004,5.7983,-21.3904,-11.8707,-87.149,-0.0637,-0.2009,-0.6598,0.7213
1777289580.7809327,Trunk,-1.2298,10.4508,104.1968,-87.8296,-359.314,-1264.1602,-11.2445,87.0502,147.7222,0.6386,0.2587,0.6744,0.2654
1777289580.7809327,L_Femur,-0.5981,9.6517,-1.7753,60.1807,34.1797,11.5967,116.521,-0.5109,-1.5216,0.8504,0.0089,-0.0108,0.526
1777289580.7809327,L_Tibia,-0.8805,10.1637,-3.919,98.0835,21.9116,24.231,123.5907,1.6425,-20.2203,0.8663,0.1614,-0.0705,0.4675
1777289580.7809327,L_Foot,-0.914,1.5121,9.6421,35.4004,-0.5493,3.6621,10.7446,6.4325,-89.0936,0.0274,0.1054,-0.6936,0.7121
1777289580.7809327,R_Femur,-0.0431,8.5415,3.3305,-3.7842,30.5786,52.3682,71.7737,-4.79,-11.6565,0.5861,0.0258,-0.1066,0.8028
1777289580.7809327,R_Tibia,3.6989,5.5651,1.8758,127.9297,15.7471,59.3262,69.6643,2.3291,-23.8184,0.5553,0.1342,-0.158,0.8054
1777289580.7809327,R_Foot,8.819,13.6473,-3.0673,224.6094,285.4004,5.7983,-21.3904,-11.8707,-87.149,-0.0637,-0.2009,-0.6598,0.7213
1777289580.7809327,Trunk,-1.4451,11.8146,3.2156,4.4556,33.9355,7.1411,85.8307,-0.5109,-26.0815,0.6641,0.1505,-0.1682,0.7128
1777289580.7809327,L_Femur,-0.5981,9.6517,-1.7753,60.1807,34.1797,11.5967,116.521,-0.5109,-1.5216,0.8504,0.0089,-0.0108,0.526
1777289580.7809327,L_Tibia,-0.8805,10.1637,-3.919,98.0835,21.9116,24.231,123.5907,1.6425,-20.2203,0.8663,0.1614,-0.0705,0.4675
1777289580.7809327,L_Foot,-0.914,1.5121,9.6421,35.4004,-0.5493,3.6621,10.7446,6.4325,-89.0936,0.0274,0.1054,-0.6936,0.7121
1777289580.7809327,R_Femur,-0.0431,8.5415,3.3305,-3.7842,30.5786,52.3682,71.7737,-4.79,-11.6565,0.5861,0.0258,-0.1066,0.8028
1777289580.7809327,R_Tibia,3.6989,5.5651,1.8758,127.9297,15.7471,59.3262,69.6643,2.3291,-23.8184,0.5553,0.1342,-0.158,0.8054
1777289580.7809327,R_Foot,8.819,13.6473,-3.0673,224.6094,285.4004,5.7983,-21.3904,-11.8707,-87.149,-0.0637,-0.2009,-0.6598,0.7213
1777289580.7809327,Trunk,-1.4451,11.8146,3.2156,4.4556,33.9355,7.1411,85.8307,-0.5109,-26.0815,0.6641,0.1505,-0.1682,0.7128
1777289580.7809327,L_Femur,-3.273,13.4559,1.0288,47.6074,48.645,7.019,121.7285,-0.6976,-3.2629,0.8732,0.0219,-0.0192,0.4865
1777289580.7809327,L_Tibia,-0.8805,10.1637,-3.919,98.0835,21.9116,24.231,123.5907,1.6425,-20.2203,0.8663,0.1614,-0.0705,0.4675
1777289580.7809327,L_Foot,-0.914,1.5121,9.6421,35.4004,-0.5493,3.6621,10.7446,6.4325,-89.0936,0.0274,0.1054,-0.6936,0.7121
1777289580.7809327,R_Femur,-0.0431,8.5415,3.3305,-3.7842,30.5786,52.3682,71.7737,-4.79,-11.6565,0.5861,0.0258,-0.1066,0.8028
1777289580.7809327,R_Tibia,3.6989,5.5651,1.8758,127.9297,15.7471,59.3262,69.6643,2.3291,-23.8184,0.5553,0.1342,-0.158,0.8054
1777289580.7809327,R_Foot,8.819,13.6473,-3.0673,224.6094,285.4004,5.7983,-21.3904,-11.8707,-87.149,-0.0637,-0.2009,-0.6598,0.7213
1777289580.7819564,Trunk,-1.4451,11.8146,3.2156,4.4556,33.9355,7.1411,85.8307,-0.5109,-26.0815,0.6641,0.1505,-0.1682,0.7128
1777289580.7819564,L_Femur,-3.273,13.4559,1.0288,47.6074,48.645,7.019,121.7285,-0.6976,-3.2629,0.8732,0.0219,-0.0192,0.4865
1777289580.7819564,L_Tibia,-1.56,13.7286,1.7657,181.3965,37.2314,51.0254,128.4412,0.1154,-20.1709,0.8865,0.1581,-0.0753,0.4283
1777289580.7819564,L_Foot,-0.914,1.5121,9.6421,35.4004,-0.5493,3.6621,10.7446,6.4325,-89.0936,0.0274,0.1054,-0.6936,0.7121
1777289580.7819564,R_Femur,-0.0431,8.5415,3.3305,-3.7842,30.5786,52.3682,71.7737,-4.79,-11.6565,0.5861,0.0258,-0.1066,0.8028
1777289580.7819564,R_Tibia,3.6989,5.5651,1.8758,127.9297,15.7471,59.3262,69.6643,2.3291,-23.8184,0.5553,0.1342,-0.158,0.8054
1777289580.7819564,R_Foot,8.819,13.6473,-3.0673,224.6094,285.4004,5.7983,-21.3904,-11.8707,-87.149,-0.0637,-0.2009,-0.6598,0.7213
1777289580.7819564,Trunk,-1.4451,11.8146,3.2156,4.4556,33.9355,7.1411,85.8307,-0.5109,-26.0815,0.6641,0.1505,-0.1682,0.7128
1777289580.7819564,L_Femur,-3.273,13.4559,1.0288,47.6074,48.645,7.019,121.7285,-0.6976,-3.2629,0.8732,0.0219,-0.0192,0.4865
1777289580.7819564,L_Tibia,-1.56,13.7286,1.7657,181.3965,37.2314,51.0254,128.4412,0.1154,-20.1709,0.8865,0.1581,-0.0753,0.4283
1777289580.7819564,L_Foot,-0.5312,1.9236,9.9388,51.6968,-0.9766,-1.2207,10.7556,6.059,-93.5596,0.0257,0.1042,-0.7211,0.6844
1777289580.7819564,R_Femur,-0.0431,8.5415,3.3305,-3.7842,30.5786,52.3682,71.7737,-4.79,-11.6565,0.5861,0.0258,-0.1066,0.8028
1777289580.7819564,R_Tibia,3.6989,5.5651,1.8758,127.9297,15.7471,59.3262,69.6643,2.3291,-23.8184,0.5553,0.1342,-0.158,0.8054
1777289580.7819564,R_Foot,8.819,13.6473,-3.0673,224.6094,285.4004,5.7983,-21.3904,-11.8707,-87.149,-0.0637,-0.2009,-0.6598,0.7213
1777289580.7819564,Trunk,-1.4451,11.8146,3.2156,4.4556,33.9355,7.1411,85.8307,-0.5109,-26.0815,0.6641,0.1505,-0.1682,0.7128
1777289580.7819564,L_Femur,-3.273,13.4559,1.0288,47.6074,48.645,7.019,121.7285,-0.6976,-3.2629,0.8732,0.0219,-0.0192,0.4865
1777289580.7819564,L_Tibia,-1.56,13.7286,1.7657,181.3965,37.2314,51.0254,128.4412,0.1154,-20.1709,0.8865,0.1581,-0.0753,0.4283
1777289580.7819564,L_Foot,-0.5312,1.9236,9.9388,51.6968,-0.9766,-1.2207,10.7556,6.059,-93.5596,0.0257,0.1042,-0.7211,0.6844
1777289580.7819564,R_Femur,0.2345,8.5367,7.015,-3.3569,93.689,70.0073,68.6316,-4.9109,-7.63,0.5643,0.0022,-0.079,0.8217
1777289580.7819564,R_Tibia,3.6989,5.5651,1.8758,127.9297,15.7471,59.3262,69.6643,2.3291,-23.8184,0.5553,0.1342,-0.158,0.8054
1777289580.7819564,R_Foot,8.819,13.6473,-3.0673,224.6094,285.4004,5.7983,-21.3904,-11.8707,-87.149,-0.0637,-0.2009,-0.6598,0.7213
1777289580.7819564,Trunk,-1.8327,11.7715,4.1918,-17.2119,27.71,7.9346,85.578,-0.6152,-25.4498,0.6635,0.1458,-0.1652,0.715
1777289580.7819564,L_Femur,-3.273,13.4559,1.0288,47.6074,48.645,7.019,121.7285,-0.6976,-3.2629,0.8732,0.0219,-0.0192,0.4865
1777289580.7819564,L_Tibia,-1.56,13.7286,1.7657,181.3965,37.2314,51.0254,128.4412,0.1154,-20.1709,0.8865,0.1581,-0.0753,0.4283
1777289580.7819564,L_Foot,-0.5312,1.9236,9.9388,51.6968,-0.9766,-1.2207,10.7556,6.059,-93.5596,0.0257,0.1042,-0.7211,0.6844
1777289580.7819564,R_Femur,0.2345,8.5367,7.015,-3.3569,93.689,70.0073,68.6316,-4.9109,-7.63,0.5643,0.0022,-0.079,0.8217
1777289580.7819564,R_Tibia,3.6989,5.5651,1.8758,127.9297,15.7471,59.3262,69.6643,2.3291,-23.8184,0.5553,0.1342,-0.158,0.8054
1777289580.7819564,R_Foot,8.819,13.6473,-3.0673,224.6094,285.4004,5.7983,-21.3904,-11.8707,-87.149,-0.0637,-0.2009,-0.6598,0.7213
1777289580.7819564,Trunk,-1.8327,11.7715,4.1918,-17.2119,27.71,7.9346,85.578,-0.6152,-25.4498,0.6635,0.1458,-0.1652,0.715
1777289580.7819564,L_Femur,-5.3354,14.2311,2.7467,16.6626,27.4658,0.8545,122.0581,-0.9888,-2.8729,0.8747,0.0178,-0.0197,0.484
1777289580.7819564,L_Tibia,-1.56,13.7286,1.7657,181.3965,37.2314,51.0254,128.4412,0.1154,-20.1709,0.8865,0.1581,-0.0753,0.4283
1777289580.7819564,L_Foot,-0.5312,1.9236,9.9388,51.6968,-0.9766,-1.2207,10.7556,6.059,-93.5596,0.0257,0.1042,-0.7211,0.6844
1777289580.7819564,R_Femur,0.2345,8.5367,7.015,-3.3569,93.689,70.0073,68.6316,-4.9109,-7.63,0.5643,0.0022,-0.079,0.8217
1777289580.7819564,R_Tibia,3.6989,5.5651,1.8758,127.9297,15.7471,59.3262,69.6643,2.3291,-23.8184,0.5553,0.1342,-0.158,0.8054
1777289580.7819564,R_Foot,8.819,13.6473,-3.0673,224.6094,285.4004,5.7983,-21.3904,-11.8707,-87.149,-0.0637,-0.2009,-0.6598,0.7213
1777289580.7819564,Trunk,-1.8327,11.7715,4.1918,-17.2119,27.71,7.9346,85.578,-0.6152,-25.4498,0.6635,0.1458,-0.1652,0.715
1777289580.7819564,L_Femur,-5.3354,14.2311,2.7467,16.6626,27.4658,0.8545,122.0581,-0.9888,-2.8729,0.8747,0.0178,-0.0197,0.484
1777289580.7819564,L_Tibia,-0.6699,14.4368,2.7084,203.3691,38.208,63.2324,131.4294,-0.9338,-20.3192,0.8978,0.1575,-0.0799,0.4035
1777289580.7819564,L_Foot,-0.5312,1.9236,9.9388,51.6968,-0.9766,-1.2207,10.7556,6.059,-93.5596,0.0257,0.1042,-0.7211,0.6844
1777289580.7819564,R_Femur,0.2345,8.5367,7.015,-3.3569,93.689,70.0073,68.6316,-4.9109,-7.63,0.5643,0.0022,-0.079,0.8217
1777289580.7819564,R_Tibia,3.6989,5.5651,1.8758,127.9297,15.7471,59.3262,69.6643,2.3291,-23.8184,0.5553,0.1342,-0.158,0.8054
1777289580.7819564,R_Foot,8.819,13.6473,-3.0673,224.6094,285.4004,5.7983,-21.3904,-11.8707,-87.149,-0.0637,-0.2009,-0.6598,0.7213
1777289580.7829566,Trunk,-1.8327,11.7715,4.1918,-17.2119,27.71,7.9346,85.578,-0.6152,-25.4498,0.6635,0.1458,-0.1652,0.715
1777289580.7829566,L_Femur,-5.3354,14.2311,2.7467,16.6626,27.4658,0.8545,122.0581,-0.9888,-2.8729,0.8747,0.0178,-0.0197,0.484
1777289580.7829566,L_Tibia,-0.6699,14.4368,2.7084,203.3691,38.208,63.2324,131.4294,-0.9338,-20.3192,0.8978,0.1575,-0.0799,0.4035
1777289580.7829566,L_Foot,-0.5312,1.9236,9.9388,51.6968,-0.9766,-1.2207,10.7556,6.059,-93.5596,0.0257,0.1042,-0.7211,0.6844
1777289580.7829566,R_Femur,-1.9141,6.9241,6.2733,7.0801,97.168,78.7964,68.4943,-5.4877,-5.8337,0.5634,-0.0109,-0.0689,0.8232
1777289580.7829566,R_Tibia,3.6989,5.5651,1.8758,127.9297,15.7471,59.3262,69.6643,2.3291,-23.8184,0.5553,0.1342,-0.158,0.8054
1777289580.7829566,R_Foot,8.819,13.6473,-3.0673,224.6094,285.4004,5.7983,-21.3904,-11.8707,-87.149,-0.0637,-0.2009,-0.6598,0.7213
1777289580.7829566,Trunk,-1.8327,11.7715,4.1918,-17.2119,27.71,7.9346,85.578,-0.6152,-25.4498,0.6635,0.1458,-0.1652,0.715
1777289580.7829566,L_Femur,-5.3354,14.2311,2.7467,16.6626,27.4658,0.8545,122.0581,-0.9888,-2.8729,0.8747,0.0178,-0.0197,0.484
1777289580.7829566,L_Tibia,-0.6699,14.4368,2.7084,203.3691,38.208,63.2324,131.4294,-0.9338,-20.3192,0.8978,0.1575,-0.0799,0.4035
1777289580.7829566,L_Foot,-0.5312,1.9236,9.9388,51.6968,-0.9766,-1.2207,10.7556,6.059,-93.5596,0.0257,0.1042,-0.7211,0.6844
1777289580.7829566,R_Femur,-1.9141,6.9241,6.2733,7.0801,97.168,78.7964,68.4943,-5.4877,-5.8337,0.5634,-0.0109,-0.0689,0.8232
1777289580.7829566,R_Tibia,3.6989,5.5651,1.8758,127.9297,15.7471,59.3262,69.6643,2.3291,-23.8184,0.5553,0.1342,-0.158,0.8054
1777289580.7829566,R_Foot,-1.8327,-0.8565,4.4358,358.1543,132.2632,78.3691,-17.4573,-6.7566,-86.2701,-0.0707,-0.1461,-0.6681,0.7262
1777289580.7829566,Trunk,-1.7035,12.2356,4.7373,-28.0151,24.292,9.0332,85.166,-0.7416,-25.0763,0.6615,0.1422,-0.1641,0.7178
1777289580.7829566,L_Femur,-5.3354,14.2311,2.7467,16.6626,27.4658,0.8545,122.0581,-0.9888,-2.8729,0.8747,0.0178,-0.0197,0.484
1777289580.7829566,L_Tibia,-0.6699,14.4368,2.7084,203.3691,38.208,63.2324,131.4294,-0.9338,-20.3192,0.8978,0.1575,-0.0799,0.4035
1777289580.7829566,L_Foot,-0.5312,1.9236,9.9388,51.6968,-0.9766,-1.2207,10.7556,6.059,-93.5596,0.0257,0.1042,-0.7211,0.6844
1777289580.7829566,R_Femur,-1.9141,6.9241,6.2733,7.0801,97.168,78.7964,68.4943,-5.4877,-5.8337,0.5634,-0.0109,-0.0689,0.8232
1777289580.7829566,R_Tibia,3.6989,5.5651,1.8758,127.9297,15.7471,59.3262,69.6643,2.3291,-23.8184,0.5553,0.1342,-0.158,0.8054
1777289580.7829566,R_Foot,-1.8327,-0.8565,4.4358,358.1543,132.2632,78.3691,-17.4573,-6.7566,-86.2701,-0.0707,-0.1461,-0.6681,0.7262
1777289580.7829566,Trunk,-1.7035,12.2356,4.7373,-28.0151,24.292,9.0332,85.166,-0.7416,-25.0763,0.6615,0.1422,-0.1641,0.7178
1777289580.7829566,L_Femur,-5.3354,14.2311,2.7467,16.6626,27.4658,0.8545,122.0581,-0.9888,-2.8729,0.8747,0.0178,-0.0197,0.484
1777289580.7829566,L_Tibia,-0.6651,15.8102,4.077,214.9048,39.0625,70.0684,134.61,-2.0874,-20.5939,0.9088,0.158,-0.0855,0.3765
1777289580.7829566,L_Foot,-0.5312,1.9236,9.9388,51.6968,-0.9766,-1.2207,10.7556,6.059,-93.5596,0.0257,0.1042,-0.7211,0.6844
1777289580.7829566,R_Femur,-1.9141,6.9241,6.2733,7.0801,97.168,78.7964,68.4943,-5.4877,-5.8337,0.5634,-0.0109,-0.0689,0.8232
1777289580.7829566,R_Tibia,3.6989,5.5651,1.8758,127.9297,15.7471,59.3262,69.6643,2.3291,-23.8184,0.5553,0.1342,-0.158,0.8054
1777289580.7829566,R_Foot,-1.8327,-0.8565,4.4358,358.1543,132.2632,78.3691,-17.4573,-6.7566,-86.2701,-0.0707,-0.1461,-0.6681,0.7262
1777289580.7829566,Trunk,-1.7035,12.2356,4.7373,-28.0151,24.292,9.0332,85.166,-0.7416,-25.0763,0.6615,0.1422,-0.1641,0.7178
1777289580.7829566,L_Femur,-5.3354,14.2311,2.7467,16.6626,27.4658,0.8545,122.0581,-0.9888,-2.8729,0.8747,0.0178,-0.0197,0.484
1777289580.7829566,L_Tibia,-0.6651,15.8102,4.077,214.9048,39.0625,70.0684,134.61,-2.0874,-20.5939,0.9088,0.158,-0.0855,0.3765
1777289580.7829566,L_Foot,-0.9235,-0.5072,10.8719,39.6729,7.019,2.7466,12.3871,6.3062,-93.4827,0.034,0.1159,-0.7189,0.6846
1777289580.7829566,R_Femur,-1.9141,6.9241,6.2733,7.0801,97.168,78.7964,68.4943,-5.4877,-5.8337,0.5634,-0.0109,-0.0689,0.8232
1777289580.7829566,R_Tibia,3.6989,5.5651,1.8758,127.9297,15.7471,59.3262,69.6643,2.3291,-23.8184,0.5553,0.1342,-0.158,0.8054
1777289580.7829566,R_Foot,-1.8327,-0.8565,4.4358,358.1543,132.2632,78.3691,-17.4573,-6.7566,-86.2701,-0.0707,-0.1461,-0.6681,0.7262
1777289580.783956,Trunk,-1.7035,12.2356,4.7373,-28.0151,24.292,9.0332,85.166,-0.7416,-25.0763,0.6615,0.1422,-0.1641,0.7178
1777289580.783956,L_Femur,-5.3354,14.2311,2.7467,16.6626,27.4658,0.8545,122.0581,-0.9888,-2.8729,0.8747,0.0178,-0.0197,0.484
1777289580.783956,L_Tibia,-0.6651,15.8102,4.077,214.9048,39.0625,70.0684,134.61,-2.0874,-20.5939,0.9088,0.158,-0.0855,0.3765
1777289580.783956,L_Foot,-0.9235,-0.5072,10.8719,39.6729,7.019,2.7466,12.3871,6.3062,-93.4827,0.034,0.1159,-0.7189,0.6846
1777289580.783956,R_Femur,-2.3112,13.9822,-3.4692,28.7476,-56.2134,17.8833,68.5931,-6.1633,-5.4712,0.5641,-0.0175,-0.0696,0.8226
1777289580.783956,R_Tibia,3.6989,5.5651,1.8758,127.9297,15.7471,59.3262,69.6643,2.3291,-23.8184,0.5553,0.1342,-0.158,0.8054
1777289580.783956,R_Foot,-1.8327,-0.8565,4.4358,358.1543,132.2632,78.3691,-17.4573,-6.7566,-86.2701,-0.0707,-0.1461,-0.6681,0.7262
1777289580.783956,Trunk,-1.7035,12.2356,4.7373,-28.0151,24.292,9.0332,85.166,-0.7416,-25.0763,0.6615,0.1422,-0.1641,0.7178
1777289580.783956,L_Femur,-5.3354,14.2311,2.7467,16.6626,27.4658,0.8545,122.0581,-0.9888,-2.8729,0.8747,0.0178,-0.0197,0.484
1777289580.783956,L_Tibia,-0.6651,15.8102,4.077,214.9048,39.0625,70.0684,134.61,-2.0874,-20.5939,0.9088,0.158,-0.0855,0.3765
1777289580.783956,L_Foot,-0.9235,-0.5072,10.8719,39.6729,7.019,2.7466,12.3871,6.3062,-93.4827,0.034,0.1159,-0.7189,0.6846
1777289580.783956,R_Femur,-2.3112,13.9822,-3.4692,28.7476,-56.2134,17.8833,68.5931,-6.1633,-5.4712,0.5641,-0.0175,-0.0696,0.8226
1777289580.783956,R_Tibia,-6.1441,27.4381,6.2973,60.3638,298.8281,-33.8745,74.6576,4.4385,-14.1943,0.5975,0.1054,-0.0749,0.7914
1777289580.783956,R_Foot,-1.8327,-0.8565,4.4358,358.1543,132.2632,78.3691,-17.4573,-6.7566,-86.2701,-0.0707,-0.1461,-0.6681,0.7262
1777289580.8480542,Trunk,1.4834,14.5756,-2.2442,-24.9023,34.3018,3.8452,84.6112,-0.8185,-24.4611,0.6589,0.1374,-0.1614,0.7217
1777289580.8480542,L_Femur,-5.3354,14.2311,2.7467,16.6626,27.4658,0.8545,122.0581,-0.9888,-2.8729,0.8747,0.0178,-0.0197,0.484
1777289580.8480542,L_Tibia,-0.6651,15.8102,4.077,214.9048,39.0625,70.0684,134.61,-2.0874,-20.5939,0.9088,0.158,-0.0855,0.3765
1777289580.8480542,L_Foot,-0.9235,-0.5072,10.8719,39.6729,7.019,2.7466,12.3871,6.3062,-93.4827,0.034,0.1159,-0.7189,0.6846
1777289580.8480542,R_Femur,-2.3112,13.9822,-3.4692,28.7476,-56.2134,17.8833,68.5931,-6.1633,-5.4712,0.5641,-0.0175,-0.0696,0.8226
1777289580.8480542,R_Tibia,-6.1441,27.4381,6.2973,60.3638,298.8281,-33.8745,74.6576,4.4385,-14.1943,0.5975,0.1054,-0.0749,0.7914
1777289580.8480542,R_Foot,-1.8327,-0.8565,4.4358,358.1543,132.2632,78.3691,-17.4573,-6.7566,-86.2701,-0.0707,-0.1461,-0.6681,0.7262
1777289580.8480542,Trunk,1.4834,14.5756,-2.2442,-24.9023,34.3018,3.8452,84.6112,-0.8185,-24.4611,0.6589,0.1374,-0.1614,0.7217
1777289580.8480542,L_Femur,-5.3354,16.4992,3.4357,-94.5435,-12.7563,-19.3481,120.174,-0.7251,-2.5983,0.8666,0.0165,-0.0168,0.4984
1777289580.8480542,L_Tibia,-0.6651,15.8102,4.077,214.9048,39.0625,70.0684,134.61,-2.0874,-20.5939,0.9088,0.158,-0.0855,0.3765
1777289580.8480542,L_Foot,-0.9235,-0.5072,10.8719,39.6729,7.019,2.7466,12.3871,6.3062,-93.4827,0.034,0.1159,-0.7189,0.6846
1777289580.8480542,R_Femur,-2.3112,13.9822,-3.4692,28.7476,-56.2134,17.8833,68.5931,-6.1633,-5.4712,0.5641,-0.0175,-0.0696,0.8226
1777289580.8480542,R_Tibia,-6.1441,27.4381,6.2973,60.3638,298.8281,-33.8745,74.6576,4.4385,-14.1943,0.5975,0.1054,-0.0749,0.7914
1777289580.8480542,R_Foot,-1.8327,-0.8565,4.4358,358.1543,132.2632,78.3691,-17.4573,-6.7566,-86.2701,-0.0707,-0.1461,-0.6681,0.7262
1777289580.8480542,Trunk,1.4834,14.5756,-2.2442,-24.9023,34.3018,3.8452,84.6112,-0.8185,-24.4611,0.6589,0.1374,-0.1614,0.7217
1777289580.8480542,L_Femur,-5.3354,16.4992,3.4357,-94.5435,-12.7563,-19.3481,120.174,-0.7251,-2.5983,0.8666,0.0165,-0.0168,0.4984
1777289580.8480542,L_Tibia,-2.694,18.5855,6.2829,250.5493,15.8691,72.0825,139.1528,-3.4772,-21.286,0.9225,0.1626,-0.0924,0.3375
1777289580.8480542,L_Foot,-0.9235,-0.5072,10.8719,39.6729,7.019,2.7466,12.3871,6.3062,-93.4827,0.034,0.1159,-0.7189,0.6846
1777289580.8480542,R_Femur,-2.3112,13.9822,-3.4692,28.7476,-56.2134,17.8833,68.5931,-6.1633,-5.4712,0.5641,-0.0175,-0.0696,0.8226
1777289580.8480542,R_Tibia,-6.1441,27.4381,6.2973,60.3638,298.8281,-33.8745,74.6576,4.4385,-14.1943,0.5975,0.1054,-0.0749,0.7914
1777289580.8480542,R_Foot,-1.8327,-0.8565,4.4358,358.1543,132.2632,78.3691,-17.4573,-6.7566,-86.2701,-0.0707,-0.1461,-0.6681,0.7262
1777289580.8480542,Trunk,1.4834,14.5756,-2.2442,-24.9023,34.3018,3.8452,84.6112,-0.8185,-24.4611,0.6589,0.1374,-0.1614,0.7217
1777289580.8480542,L_Femur,-5.3354,16.4992,3.4357,-94.5435,-12.7563,-19.3481,120.174,-0.7251,-2.5983,0.8666,0.0165,-0.0168,0.4984
1777289580.8480542,L_Tibia,-2.694,18.5855,6.2829,250.5493,15.8691,72.0825,139.1528,-3.4772,-21.286,0.9225,0.1626,-0.0924,0.3375
1777289580.8480542,L_Foot,-3.6224,-7.1395,15.035,157.7148,44.9219,25.8789,14.2603,6.8939,-93.0377,0.042,0.131,-0.7136,0.687
1777289580.8480542,R_Femur,-2.3112,13.9822,-3.4692,28.7476,-56.2134,17.8833,68.5931,-6.1633,-5.4712,0.5641,-0.0175,-0.0696,0.8226
1777289580.8480542,R_Tibia,-6.1441,27.4381,6.2973,60.3638,298.8281,-33.8745,74.6576,4.4385,-14.1943,0.5975,0.1054,-0.0749,0.7914
1777289580.8480542,R_Foot,-1.8327,-0.8565,4.4358,358.1543,132.2632,78.3691,-17.4573,-6.7566,-86.2701,-0.0707,-0.1461,-0.6681,0.7262
1777289580.8493097,Trunk,1.4834,14.5756,-2.2442,-24.9023,34.3018,3.8452,84.6112,-0.8185,-24.4611,0.6589,0.1374,-0.1614,0.7217
1777289580.8493097,L_Femur,-5.3354,16.4992,3.4357,-94.5435,-12.7563,-19.3481,120.174,-0.7251,-2.5983,0.8666,0.0165,-0.0168,0.4984
1777289580.8493097,L_Tibia,-2.694,18.5855,6.2829,250.5493,15.8691,72.0825,139.1528,-3.4772,-21.286,0.9225,0.1626,-0.0924,0.3375
1777289580.8493097,L_Foot,-3.6224,-7.1395,15.035,157.7148,44.9219,25.8789,14.2603,6.8939,-93.0377,0.042,0.131,-0.7136,0.687
1777289580.8493097,R_Femur,-2.2729,19.4373,-1.5647,26.9165,49.3774,44.1284,69.115,-6.6632,-5.1361,0.5679,-0.0224,-0.0698,0.8199
1777289580.8493097,R_Tibia,-6.1441,27.4381,6.2973,60.3638,298.8281,-33.8745,74.6576,4.4385,-14.1943,0.5975,0.1054,-0.0749,0.7914
1777289580.8493097,R_Foot,-1.8327,-0.8565,4.4358,358.1543,132.2632,78.3691,-17.4573,-6.7566,-86.2701,-0.0707,-0.1461,-0.6681,0.7262
1777289580.8493097,Trunk,2.0768,13.8195,-8.3692,3.2349,53.772,-9.2773,84.5343,-0.6537,-23.7085,0.6591,0.134,-0.1558,0.7234
1777289580.8493097,L_Femur,-5.3354,16.4992,3.4357,-94.5435,-12.7563,-19.3481,120.174,-0.7251,-2.5983,0.8666,0.0165,-0.0168,0.4984
1777289580.8493097,L_Tibia,-2.694,18.5855,6.2829,250.5493,15.8691,72.0825,139.1528,-3.4772,-21.286,0.9225,0.1626,-0.0924,0.3375
1777289580.8493097,L_Foot,-3.6224,-7.1395,15.035,157.7148,44.9219,25.8789,14.2603,6.8939,-93.0377,0.042,0.131,-0.7136,0.687
1777289580.8493097,R_Femur,-2.2729,19.4373,-1.5647,26.9165,49.3774,44.1284,69.115,-6.6632,-5.1361,0.5679,-0.0224,-0.0698,0.8199
1777289580.8493097,R_Tibia,-6.1441,27.4381,6.2973,60.3638,298.8281,-33.8745,74.6576,4.4385,-14.1943,0.5975,0.1054,-0.0749,0.7914
1777289580.8493097,R_Foot,-1.8327,-0.8565,4.4358,358.1543,132.2632,78.3691,-17.4573,-6.7566,-86.2701,-0.0707,-0.1461,-0.6681,0.7262
1777289580.8493097,Trunk,2.0768,13.8195,-8.3692,3.2349,53.772,-9.2773,84.5343,-0.6537,-23.7085,0.6591,0.134,-0.1558,0.7234
1777289580.8493097,L_Femur,-3.0912,17.2696,2.9429,-135.8643,-52.3071,-25.3906,118.2513,-0.0879,-2.9993,0.858,0.0221,-0.0141,0.513
1777289580.8493097,L_Tibia,-2.694,18.5855,6.2829,250.5493,15.8691,72.0825,139.1528,-3.4772,-21.286,0.9225,0.1626,-0.0924,0.3375
1777289580.8493097,L_Foot,-3.6224,-7.1395,15.035,157.7148,44.9219,25.8789,14.2603,6.8939,-93.0377,0.042,0.131,-0.7136,0.687
1777289580.8493097,R_Femur,-2.2729,19.4373,-1.5647,26.9165,49.3774,44.1284,69.115,-6.6632,-5.1361,0.5679,-0.0224,-0.0698,0.8199
1777289580.8493097,R_Tibia,-6.1441,27.4381,6.2973,60.3638,298.8281,-33.8745,74.6576,4.4385,-14.1943,0.5975,0.1054,-0.0749,0.7914
1777289580.8493097,R_Foot,-1.8327,-0.8565,4.4358,358.1543,132.2632,78.3691,-17.4573,-6.7566,-86.2701,-0.0707,-0.1461,-0.6681,0.7262
1777289580.8493097,Trunk,2.0768,13.8195,-8.3692,3.2349,53.772,-9.2773,84.5343,-0.6537,-23.7085,0.6591,0.134,-0.1558,0.7234
1777289580.8493097,L_Femur,-3.0912,17.2696,2.9429,-135.8643,-52.3071,-25.3906,118.2513,-0.0879,-2.9993,0.858,0.0221,-0.0141,0.513
1777289580.8493097,L_Tibia,-4.9718,19.6287,3.1438,292.9688,-27.6489,65.7349,143.4595,-3.8507,-22.2418,0.9333,0.1727,-0.0917,0.3013
1777289580.8493097,L_Foot,-3.6224,-7.1395,15.035,157.7148,44.9219,25.8789,14.2603,6.8939,-93.0377,0.042,0.131,-0.7136,0.687
1777289580.8493097,R_Femur,-2.2729,19.4373,-1.5647,26.9165,49.3774,44.1284,69.115,-6.6632,-5.1361,0.5679,-0.0224,-0.0698,0.8199
1777289580.8493097,R_Tibia,-6.1441,27.4381,6.2973,60.3638,298.8281,-33.8745,74.6576,4.4385,-14.1943,0.5975,0.1054,-0.0749,0.7914
1777289580.8493097,R_Foot,-1.8327,-0.8565,4.4358,358.1543,132.2632,78.3691,-17.4573,-6.7566,-86.2701,-0.0707,-0.1461,-0.6681,0.7262
1777289580.8493097,Trunk,2.0768,13.8195,-8.3692,3.2349,53.772,-9.2773,84.5343,-0.6537,-23.7085,0.6591,0.134,-0.1558,0.7234
1777289580.8493097,L_Femur,-3.0912,17.2696,2.9429,-135.8643,-52.3071,-25.3906,118.2513,-0.0879,-2.9993,0.858,0.0221,-0.0141,0.513
1777289580.8493097,L_Tibia,-4.9718,19.6287,3.1438,292.9688,-27.6489,65.7349,143.4595,-3.8507,-22.2418,0.9333,0.1727,-0.0917,0.3013
1777289580.8493097,L_Foot,-3.6224,-7.1395,15.035,157.7148,44.9219,25.8789,14.2603,6.8939,-93.0377,0.042,0.131,-0.7136,0.687
1777289580.8493097,R_Femur,3.1821,25.8159,15.5613,-89.5386,235.0464,63.6597,67.6263,-6.3721,-1.9226,0.5563,-0.0368,-0.0448,0.8289
1777289580.8493097,R_Tibia,-6.1441,27.4381,6.2973,60.3638,298.8281,-33.8745,74.6576,4.4385,-14.1943,0.5975,0.1054,-0.0749,0.7914
1777289580.8493097,R_Foot,-1.8327,-0.8565,4.4358,358.1543,132.2632,78.3691,-17.4573,-6.7566,-86.2701,-0.0707,-0.1461,-0.6681,0.7262
1777289580.8503091,Trunk,2.0768,13.8195,-8.3692,3.2349,53.772,-9.2773,84.5343,-0.6537,-23.7085,0.6591,0.134,-0.1558,0.7234
1777289580.8503091,L_Femur,-3.0912,17.2696,2.9429,-135.8643,-52.3071,-25.3906,118.2513,-0.0879,-2.9993,0.858,0.0221,-0.0141,0.513
1777289580.8503091,L_Tibia,-4.9718,19.6287,3.1438,292.9688,-27.6489,65.7349,143.4595,-3.8507,-22.2418,0.9333,0.1727,-0.0917,0.3013
1777289580.8503091,L_Foot,-3.6224,-7.1395,15.035,157.7148,44.9219,25.8789,14.2603,6.8939,-93.0377,0.042,0.131,-0.7136,0.687
1777289580.8503091,R_Femur,3.1821,25.8159,15.5613,-89.5386,235.0464,63.6597,67.6263,-6.3721,-1.9226,0.5563,-0.0368,-0.0448,0.8289
1777289580.8503091,R_Tibia,-9.2928,5.5986,-6.6801,172.6685,54.0161,108.8257,79.173,3.0212,-9.0967,0.6334,0.0708,-0.0443,0.7693
1777289580.8503091,R_Foot,-1.8327,-0.8565,4.4358,358.1543,132.2632,78.3691,-17.4573,-6.7566,-86.2701,-0.0707,-0.1461,-0.6681,0.7262
1777289580.8503091,Trunk,0.2728,14.3698,-7.4313,-10.1929,22.522,-23.6816,84.4409,-0.3021,-23.2965,0.6585,0.1338,-0.1513,0.725
1777289580.8503091,L_Femur,-3.0912,17.2696,2.9429,-135.8643,-52.3071,-25.3906,118.2513,-0.0879,-2.9993,0.858,0.0221,-0.0141,0.513
1777289580.8503091,L_Tibia,-4.9718,19.6287,3.1438,292.9688,-27.6489,65.7349,143.4595,-3.8507,-22.2418,0.9333,0.1727,-0.0917,0.3013
1777289580.8503091,L_Foot,-3.6224,-7.1395,15.035,157.7148,44.9219,25.8789,14.2603,6.8939,-93.0377,0.042,0.131,-0.7136,0.687
1777289580.8503091,R_Femur,3.1821,25.8159,15.5613,-89.5386,235.0464,63.6597,67.6263,-6.3721,-1.9226,0.5563,-0.0368,-0.0448,0.8289
1777289580.8503091,R_Tibia,-9.2928,5.5986,-6.6801,172.6685,54.0161,108.8257,79.173,3.0212,-9.0967,0.6334,0.0708,-0.0443,0.7693
1777289580.8503091,R_Foot,-1.8327,-0.8565,4.4358,358.1543,132.2632,78.3691,-17.4573,-6.7566,-86.2701,-0.0707,-0.1461,-0.6681,0.7262
1777289580.8503091,Trunk,0.2728,14.3698,-7.4313,-10.1929,22.522,-23.6816,84.4409,-0.3021,-23.2965,0.6585,0.1338,-0.1513,0.725
1777289580.8503091,L_Femur,-1.3159,15.5709,0.3972,-166.5649,-35.4004,-34.3628,115.0323,0.9119,-3.5651,0.843,0.0305,-0.01,0.537
1777289580.8503091,L_Tibia,-4.9718,19.6287,3.1438,292.9688,-27.6489,65.7349,143.4595,-3.8507,-22.2418,0.9333,0.1727,-0.0917,0.3013
1777289580.8503091,L_Foot,-3.6224,-7.1395,15.035,157.7148,44.9219,25.8789,14.2603,6.8939,-93.0377,0.042,0.131,-0.7136,0.687
1777289580.8503091,R_Femur,3.1821,25.8159,15.5613,-89.5386,235.0464,63.6597,67.6263,-6.3721,-1.9226,0.5563,-0.0368,-0.0448,0.8289
1777289580.8503091,R_Tibia,-9.2928,5.5986,-6.6801,172.6685,54.0161,108.8257,79.173,3.0212,-9.0967,0.6334,0.0708,-0.0443,0.7693
1777289580.8503091,R_Foot,-1.8327,-0.8565,4.4358,358.1543,132.2632,78.3691,-17.4573,-6.7566,-86.2701,-0.0707,-0.1461,-0.6681,0.7262
1777289580.850821,Trunk,0.2728,14.3698,-7.4313,-10.1929,22.522,-23.6816,84.4409,-0.3021,-23.2965,0.6585,0.1338,-0.1513,0.725
1777289580.850821,L_Femur,-1.3159,15.5709,0.3972,-166.5649,-35.4004,-34.3628,115.0323,0.9119,-3.5651,0.843,0.0305,-0.01,0.537
1777289580.850821,L_Tibia,-4.9718,19.6287,3.1438,292.9688,-27.6489,65.7349,143.4595,-3.8507,-22.2418,0.9333,0.1727,-0.0917,0.3013
1777289580.850821,L_Foot,-3.6224,-7.1395,15.035,157.7148,44.9219,25.8789,14.2603,6.8939,-93.0377,0.042,0.131,-0.7136,0.687
1777289580.850821,R_Femur,-7.1586,8.3692,-5.5029,28.4424,52.9175,-18.5547,67.5439,-5.4767,0.4889,0.5551,-0.0421,-0.023,0.8304
1777289580.850821,R_Tibia,-9.2928,5.5986,-6.6801,172.6685,54.0161,108.8257,79.173,3.0212,-9.0967,0.6334,0.0708,-0.0443,0.7693
1777289580.850821,R_Foot,-1.8327,-0.8565,4.4358,358.1543,132.2632,78.3691,-17.4573,-6.7566,-86.2701,-0.0707,-0.1461,-0.6681,0.7262
1777289580.850821,Trunk,0.2728,14.3698,-7.4313,-10.1929,22.522,-23.6816,84.4409,-0.3021,-23.2965,0.6585,0.1338,-0.1513,0.725
1777289580.850821,L_Femur,-1.3159,15.5709,0.3972,-166.5649,-35.4004,-34.3628,115.0323,0.9119,-3.5651,0.843,0.0305,-0.01,0.537
1777289580.850821,L_Tibia,-4.9718,19.6287,3.1438,292.9688,-27.6489,65.7349,143.4595,-3.8507,-22.2418,0.9333,0.1727,-0.0917,0.3013
1777289580.850821,L_Foot,-3.6224,-7.1395,15.035,157.7148,44.9219,25.8789,14.2603,6.8939,-93.0377,0.042,0.131,-0.7136,0.687
1777289580.850821,R_Femur,-7.1586,8.3692,-5.5029,28.4424,52.9175,-18.5547,67.5439,-5.4767,0.4889,0.5551,-0.0421,-0.023,0.8304
1777289580.850821,R_Tibia,-9.2928,5.5986,-6.6801,172.6685,54.0161,108.8257,79.173,3.0212,-9.0967,0.6334,0.0708,-0.0443,0.7693
1777289580.850821,R_Foot,4.0961,9.3167,34.7067,80.2612,-53.772,4.0894,1.5656,-4.3121,-86.6547,0.0357,-0.018,-0.686,0.7265
1777289580.850821,Trunk,0.6891,14.767,-1.0958,-48.9502,-19.5312,-39.2456,83.606,0.3516,-23.5382,0.6521,0.1382,-0.15,0.7302
1777289580.850821,L_Femur,-1.3159,15.5709,0.3972,-166.5649,-35.4004,-34.3628,115.0323,0.9119,-3.5651,0.843,0.0305,-0.01,0.537
1777289580.850821,L_Tibia,-4.9718,19.6287,3.1438,292.9688,-27.6489,65.7349,143.4595,-3.8507,-22.2418,0.9333,0.1727,-0.0917,0.3013
1777289580.850821,L_Foot,-3.6224,-7.1395,15.035,157.7148,44.9219,25.8789,14.2603,6.8939,-93.0377,0.042,0.131,-0.7136,0.687
1777289580.850821,R_Femur,-7.1586,8.3692,-5.5029,28.4424,52.9175,-18.5547,67.5439,-5.4767,0.4889,0.5551,-0.0421,-0.023,0.8304
1777289580.850821,R_Tibia,-9.2928,5.5986,-6.6801,172.6685,54.0161,108.8257,79.173,3.0212,-9.0967,0.6334,0.0708,-0.0443,0.7693
1777289580.850821,R_Foot,4.0961,9.3167,34.7067,80.2612,-53.772,4.0894,1.5656,-4.3121,-86.6547,0.0357,-0.018,-0.686,0.7265
1777289580.850821,Trunk,0.6891,14.767,-1.0958,-48.9502,-19.5312,-39.2456,83.606,0.3516,-23.5382,0.6521,0.1382,-0.15,0.7302
1777289580.850821,L_Femur,-1.3877,15.0589,-4.833,-174.3774,1.9531,-35.3394,112.4341,1.4172,-3.4058,0.8305,0.0316,-0.0062,0.5561
1777289580.850821,L_Tibia,-4.9718,19.6287,3.1438,292.9688,-27.6489,65.7349,143.4595,-3.8507,-22.2418,0.9333,0.1727,-0.0917,0.3013
1777289580.850821,L_Foot,-3.6224,-7.1395,15.035,157.7148,44.9219,25.8789,14.2603,6.8939,-93.0377,0.042,0.131,-0.7136,0.687
1777289580.850821,R_Femur,-7.1586,8.3692,-5.5029,28.4424,52.9175,-18.5547,67.5439,-5.4767,0.4889,0.5551,-0.0421,-0.023,0.8304
1777289580.850821,R_Tibia,-9.2928,5.5986,-6.6801,172.6685,54.0161,108.8257,79.173,3.0212,-9.0967,0.6334,0.0708,-0.0443,0.7693
1777289580.850821,R_Foot,4.0961,9.3167,34.7067,80.2612,-53.772,4.0894,1.5656,-4.3121,-86.6547,0.0357,-0.018,-0.686,0.7265
1777289580.850821,Trunk,0.6891,14.767,-1.0958,-48.9502,-19.5312,-39.2456,83.606,0.3516,-23.5382,0.6521,0.1382,-0.15,0.7302
1777289580.850821,L_Femur,-1.3877,15.0589,-4.833,-174.3774,1.9531,-35.3394,112.4341,1.4172,-3.4058,0.8305,0.0316,-0.0062,0.5561
1777289580.850821,L_Tibia,-0.3254,19.1837,-6.7279,236.5112,0.6104,57.8613,152.7484,-4.2078,-24.6918,0.9506,0.1992,-0.0852,0.2223
1777289580.850821,L_Foot,-3.6224,-7.1395,15.035,157.7148,44.9219,25.8789,14.2603,6.8939,-93.0377,0.042,0.131,-0.7136,0.687
1777289580.850821,R_Femur,-7.1586,8.3692,-5.5029,28.4424,52.9175,-18.5547,67.5439,-5.4767,0.4889,0.5551,-0.0421,-0.023,0.8304
1777289580.850821,R_Tibia,-9.2928,5.5986,-6.6801,172.6685,54.0161,108.8257,79.173,3.0212,-9.0967,0.6334,0.0708,-0.0443,0.7693
1777289580.850821,R_Foot,4.0961,9.3167,34.7067,80.2612,-53.772,4.0894,1.5656,-4.3121,-86.6547,0.0357,-0.018,-0.686,0.7265
1777289580.8518333,Trunk,0.6891,14.767,-1.0958,-48.9502,-19.5312,-39.2456,83.606,0.3516,-23.5382,0.6521,0.1382,-0.15,0.7302
1777289580.8518333,L_Femur,-1.3877,15.0589,-4.833,-174.3774,1.9531,-35.3394,112.4341,1.4172,-3.4058,0.8305,0.0316,-0.0062,0.5561
1777289580.8518333,L_Tibia,-0.3254,19.1837,-6.7279,236.5112,0.6104,57.8613,152.7484,-4.2078,-24.6918,0.9506,0.1992,-0.0852,0.2223
1777289580.8518333,L_Foot,-3.6224,-7.1395,15.035,157.7148,44.9219,25.8789,14.2603,6.8939,-93.0377,0.042,0.131,-0.7136,0.687
1777289580.8518333,R_Femur,-8.2113,-1.6461,-17.485,68.6035,-61.3403,12.6953,68.4668,-5.7843,-0.1428,0.5619,-0.041,-0.0294,0.8257
1777289580.8518333,R_Tibia,-9.2928,5.5986,-6.6801,172.6685,54.0161,108.8257,79.173,3.0212,-9.0967,0.6334,0.0708,-0.0443,0.7693
1777289580.8518333,R_Foot,4.0961,9.3167,34.7067,80.2612,-53.772,4.0894,1.5656,-4.3121,-86.6547,0.0357,-0.018,-0.686,0.7265
1777289580.8518333,Trunk,0.6891,14.767,-1.0958,-48.9502,-19.5312,-39.2456,83.606,0.3516,-23.5382,0.6521,0.1382,-0.15,0.7302
1777289580.8518333,L_Femur,-1.3877,15.0589,-4.833,-174.3774,1.9531,-35.3394,112.4341,1.4172,-3.4058,0.8305,0.0316,-0.0062,0.5561
1777289580.8518333,L_Tibia,-0.3254,19.1837,-6.7279,236.5112,0.6104,57.8613,152.7484,-4.2078,-24.6918,0.9506,0.1992,-0.0852,0.2223
1777289580.8518333,L_Foot,-3.6224,-7.1395,15.035,157.7148,44.9219,25.8789,14.2603,6.8939,-93.0377,0.042,0.131,-0.7136,0.687
1777289580.8518333,R_Femur,-8.2113,-1.6461,-17.485,68.6035,-61.3403,12.6953,68.4668,-5.7843,-0.1428,0.5619,-0.041,-0.0294,0.8257
1777289580.8518333,R_Tibia,13.2645,9.7809,-11.9485,162.8418,-19.9585,89.4775,84.8914,-0.9723,-9.8657,0.6729,0.0518,-0.0692,0.7347
1777289580.8518333,R_Foot,4.0961,9.3167,34.7067,80.2612,-53.772,4.0894,1.5656,-4.3121,-86.6547,0.0357,-0.018,-0.686,0.7265
1777289580.8982832,Trunk,1.469,13.3841,0.9953,-45.7764,-37.6587,-46.7529,82.8809,0.9613,-24.137,0.6459,0.1445,-0.1513,0.7342
1777289580.8982832,L_Femur,-1.3877,15.0589,-4.833,-174.3774,1.9531,-35.3394,112.4341,1.4172,-3.4058,0.8305,0.0316,-0.0062,0.5561
1777289580.8982832,L_Tibia,-0.3254,19.1837,-6.7279,236.5112,0.6104,57.8613,152.7484,-4.2078,-24.6918,0.9506,0.1992,-0.0852,0.2223
1777289580.8982832,L_Foot,-3.6224,-7.1395,15.035,157.7148,44.9219,25.8789,14.2603,6.8939,-93.0377,0.042,0.131,-0.7136,0.687
1777289580.8982832,R_Femur,-8.2113,-1.6461,-17.485,68.6035,-61.3403,12.6953,68.4668,-5.7843,-0.1428,0.5619,-0.041,-0.0294,0.8257
1777289580.8982832,R_Tibia,13.2645,9.7809,-11.9485,162.8418,-19.9585,89.4775,84.8914,-0.9723,-9.8657,0.6729,0.0518,-0.0692,0.7347
1777289580.8982832,R_Foot,4.0961,9.3167,34.7067,80.2612,-53.772,4.0894,1.5656,-4.3121,-86.6547,0.0357,-0.018,-0.686,0.7265
1777289580.8982832,Trunk,1.469,13.3841,0.9953,-45.7764,-37.6587,-46.7529,82.8809,0.9613,-24.137,0.6459,0.1445,-0.1513,0.7342
1777289580.8982832,L_Femur,-1.4308,15.8149,-10.6326,-187.2559,-32.2266,-38.6353,108.7427,2.2412,-3.4827,0.8119,0.0361,-0.0018,0.5826
1777289580.8982832,L_Tibia,-0.3254,19.1837,-6.7279,236.5112,0.6104,57.8613,152.7484,-4.2078,-24.6918,0.9506,0.1992,-0.0852,0.2223
1777289580.8982832,L_Foot,-3.6224,-7.1395,15.035,157.7148,44.9219,25.8789,14.2603,6.8939,-93.0377,0.042,0.131,-0.7136,0.687
1777289580.8982832,R_Femur,-8.2113,-1.6461,-17.485,68.6035,-61.3403,12.6953,68.4668,-5.7843,-0.1428,0.5619,-0.041,-0.0294,0.8257
1777289580.8982832,R_Tibia,13.2645,9.7809,-11.9485,162.8418,-19.9585,89.4775,84.8914,-0.9723,-9.8657,0.6729,0.0518,-0.0692,0.7347
1777289580.8982832,R_Foot,4.0961,9.3167,34.7067,80.2612,-53.772,4.0894,1.5656,-4.3121,-86.6547,0.0357,-0.018,-0.686,0.7265
1777289580.8982832,Trunk,1.469,13.3841,0.9953,-45.7764,-37.6587,-46.7529,82.8809,0.9613,-24.137,0.6459,0.1445,-0.1513,0.7342
1777289580.8982832,L_Femur,-1.4308,15.8149,-10.6326,-187.2559,-32.2266,-38.6353,108.7427,2.2412,-3.4827,0.8119,0.0361,-0.0018,0.5826
1777289580.8982832,L_Tibia,1.6461,19.9062,-4.7229,149.4751,48.645,41.626,155.3412,-5.0482,-25.0378,0.9548,0.2024,-0.0882,0.1989
1777289580.8982832,L_Foot,-3.6224,-7.1395,15.035,157.7148,44.9219,25.8789,14.2603,6.8939,-93.0377,0.042,0.131,-0.7136,0.687
1777289580.8982832,R_Femur,-8.2113,-1.6461,-17.485,68.6035,-61.3403,12.6953,68.4668,-5.7843,-0.1428,0.5619,-0.041,-0.0294,0.8257
1777289580.8982832,R_Tibia,13.2645,9.7809,-11.9485,162.8418,-19.9585,89.4775,84.8914,-0.9723,-9.8657,0.6729,0.0518,-0.0692,0.7347
1777289580.8982832,R_Foot,4.0961,9.3167,34.7067,80.2612,-53.772,4.0894,1.5656,-4.3121,-86.6547,0.0357,-0.018,-0.686,0.7265
1777289580.8992884,Trunk,1.469,13.3841,0.9953,-45.7764,-37.6587,-46.7529,82.8809,0.9613,-24.137,0.6459,0.1445,-0.1513,0.7342
1777289580.8992884,L_Femur,-1.4308,15.8149,-10.6326,-187.2559,-32.2266,-38.6353,108.7427,2.2412,-3.4827,0.8119,0.0361,-0.0018,0.5826
1777289580.8992884,L_Tibia,1.6461,19.9062,-4.7229,149.4751,48.645,41.626,155.3412,-5.0482,-25.0378,0.9548,0.2024,-0.0882,0.1989
1777289580.8992884,L_Foot,1.2824,9.154,-2.2395,891.3574,-155.0293,169.0063,68.4064,0.3296,-91.0822,0.392,0.4029,-0.5892,0.5804
1777289580.8992884,R_Femur,-8.2113,-1.6461,-17.485,68.6035,-61.3403,12.6953,68.4668,-5.7843,-0.1428,0.5619,-0.041,-0.0294,0.8257
1777289580.8992884,R_Tibia,13.2645,9.7809,-11.9485,162.8418,-19.9585,89.4775,84.8914,-0.9723,-9.8657,0.6729,0.0518,-0.0692,0.7347
1777289580.8992884,R_Foot,4.0961,9.3167,34.7067,80.2612,-53.772,4.0894,1.5656,-4.3121,-86.6547,0.0357,-0.018,-0.686,0.7265
1777289580.8992884,Trunk,1.469,13.3841,0.9953,-45.7764,-37.6587,-46.7529,82.8809,0.9613,-24.137,0.6459,0.1445,-0.1513,0.7342
1777289580.8992884,L_Femur,-1.4308,15.8149,-10.6326,-187.2559,-32.2266,-38.6353,108.7427,2.2412,-3.4827,0.8119,0.0361,-0.0018,0.5826
1777289580.8992884,L_Tibia,1.6461,19.9062,-4.7229,149.4751,48.645,41.626,155.3412,-5.0482,-25.0378,0.9548,0.2024,-0.0882,0.1989
1777289580.8992884,L_Foot,1.2824,9.154,-2.2395,891.3574,-155.0293,169.0063,68.4064,0.3296,-91.0822,0.392,0.4029,-0.5892,0.5804
1777289580.8992884,R_Femur,-0.0383,5.9384,-5.5699,99.2432,-105.4688,52.6733,70.3455,-7.3334,-1.5601,0.5755,-0.0444,-0.0479,0.8152
1777289580.8992884,R_Tibia,13.2645,9.7809,-11.9485,162.8418,-19.9585,89.4775,84.8914,-0.9723,-9.8657,0.6729,0.0518,-0.0692,0.7347
1777289580.8992884,R_Foot,4.0961,9.3167,34.7067,80.2612,-53.772,4.0894,1.5656,-4.3121,-86.6547,0.0357,-0.018,-0.686,0.7265
1777289580.8992884,Trunk,1.4212,10.9149,1.6652,-18.9209,-35.2173,-34.4849,82.4744,1.4502,-24.7522,0.6418,0.1506,-0.153,0.7362
1777289580.8992884,L_Femur,-1.4308,15.8149,-10.6326,-187.2559,-32.2266,-38.6353,108.7427,2.2412,-3.4827,0.8119,0.0361,-0.0018,0.5826
1777289580.8992884,L_Tibia,1.6461,19.9062,-4.7229,149.4751,48.645,41.626,155.3412,-5.0482,-25.0378,0.9548,0.2024,-0.0882,0.1989
1777289580.8992884,L_Foot,1.2824,9.154,-2.2395,891.3574,-155.0293,169.0063,68.4064,0.3296,-91.0822,0.392,0.4029,-0.5892,0.5804
1777289580.8992884,R_Femur,-0.0383,5.9384,-5.5699,99.2432,-105.4688,52.6733,70.3455,-7.3334,-1.5601,0.5755,-0.0444,-0.0479,0.8152
1777289580.8992884,R_Tibia,13.2645,9.7809,-11.9485,162.8418,-19.9585,89.4775,84.8914,-0.9723,-9.8657,0.6729,0.0518,-0.0692,0.7347
1777289580.8992884,R_Foot,4.0961,9.3167,34.7067,80.2612,-53.772,4.0894,1.5656,-4.3121,-86.6547,0.0357,-0.018,-0.686,0.7265
1777289580.8992884,Trunk,1.4212,10.9149,1.6652,-18.9209,-35.2173,-34.4849,82.4744,1.4502,-24.7522,0.6418,0.1506,-0.153,0.7362
1777289580.8992884,L_Femur,-0.8709,16.0207,-9.7474,-194.519,-71.7163,-36.6821,105.8093,3.0597,-4.2352,0.7962,0.0456,-0.001,0.6033
1777289580.8992884,L_Tibia,1.6461,19.9062,-4.7229,149.4751,48.645,41.626,155.3412,-5.0482,-25.0378,0.9548,0.2024,-0.0882,0.1989
1777289580.8992884,L_Foot,1.2824,9.154,-2.2395,891.3574,-155.0293,169.0063,68.4064,0.3296,-91.0822,0.392,0.4029,-0.5892,0.5804
1777289580.8992884,R_Femur,-0.0383,5.9384,-5.5699,99.2432,-105.4688,52.6733,70.3455,-7.3334,-1.5601,0.5755,-0.0444,-0.0479,0.8152
1777289580.8992884,R_Tibia,13.2645,9.7809,-11.9485,162.8418,-19.9585,89.4775,84.8914,-0.9723,-9.8657,0.6729,0.0518,-0.0692,0.7347
1777289580.8992884,R_Foot,4.0961,9.3167,34.7067,80.2612,-53.772,4.0894,1.5656,-4.3121,-86.6547,0.0357,-0.018,-0.686,0.7265
1777289580.9002888,Trunk,1.4212,10.9149,1.6652,-18.9209,-35.2173,-34.4849,82.4744,1.4502,-24.7522,0.6418,0.1506,-0.153,0.7362
1777289580.9002888,L_Femur,-0.8709,16.0207,-9.7474,-194.519,-71.7163,-36.6821,105.8093,3.0597,-4.2352,0.7962,0.0456,-0.001,0.6033
1777289580.9002888,L_Tibia,2.4165,9.5799,-11.8433,74.707,6.958,45.4712,157.1869,-5.8557,-25.6201,0.9568,0.2072,-0.0926,0.1815
1777289580.9002888,L_Foot,1.2824,9.154,-2.2395,891.3574,-155.0293,169.0063,68.4064,0.3296,-91.0822,0.392,0.4029,-0.5892,0.5804
1777289580.9002888,R_Femur,-0.0383,5.9384,-5.5699,99.2432,-105.4688,52.6733,70.3455,-7.3334,-1.5601,0.5755,-0.0444,-0.0479,0.8152
1777289580.9002888,R_Tibia,13.2645,9.7809,-11.9485,162.8418,-19.9585,89.4775,84.8914,-0.9723,-9.8657,0.6729,0.0518,-0.0692,0.7347
1777289580.9002888,R_Foot,4.0961,9.3167,34.7067,80.2612,-53.772,4.0894,1.5656,-4.3121,-86.6547,0.0357,-0.018,-0.686,0.7265
1777289580.9006305,Trunk,1.4212,10.9149,1.6652,-18.9209,-35.2173,-34.4849,82.4744,1.4502,-24.7522,0.6418,0.1506,-0.153,0.7362
1777289580.9006305,L_Femur,-0.8709,16.0207,-9.7474,-194.519,-71.7163,-36.6821,105.8093,3.0597,-4.2352,0.7962,0.0456,-0.001,0.6033
1777289580.9006305,L_Tibia,2.4165,9.5799,-11.8433,74.707,6.958,45.4712,157.1869,-5.8557,-25.6201,0.9568,0.2072,-0.0926,0.1815
1777289580.9006305,L_Foot,-7.0007,28.7827,66.3845,349.6094,-45.166,183.4717,75.0421,-1.9281,-89.6869,0.4412,0.42,-0.5665,0.5551
1777289580.9006305,R_Femur,-0.0383,5.9384,-5.5699,99.2432,-105.4688,52.6733,70.3455,-7.3334,-1.5601,0.5755,-0.0444,-0.0479,0.8152
1777289580.9006305,R_Tibia,13.2645,9.7809,-11.9485,162.8418,-19.9585,89.4775,84.8914,-0.9723,-9.8657,0.6729,0.0518,-0.0692,0.7347
1777289580.9006305,R_Foot,4.0961,9.3167,34.7067,80.2612,-53.772,4.0894,1.5656,-4.3121,-86.6547,0.0357,-0.018,-0.686,0.7265
1777289580.9006305,Trunk,1.4212,10.9149,1.6652,-18.9209,-35.2173,-34.4849,82.4744,1.4502,-24.7522,0.6418,0.1506,-0.153,0.7362
1777289580.9006305,L_Femur,-0.8709,16.0207,-9.7474,-194.519,-71.7163,-36.6821,105.8093,3.0597,-4.2352,0.7962,0.0456,-0.001,0.6033
1777289580.9006305,L_Tibia,2.4165,9.5799,-11.8433,74.707,6.958,45.4712,157.1869,-5.8557,-25.6201,0.9568,0.2072,-0.0926,0.1815
1777289580.9006305,L_Foot,-7.0007,28.7827,66.3845,349.6094,-45.166,183.4717,75.0421,-1.9281,-89.6869,0.4412,0.42,-0.5665,0.5551
1777289580.9006305,R_Femur,7.4026,13.8004,-5.5556,112.6099,-80.3223,24.7803,72.1967,-8.2233,-2.6862,0.5889,-0.0441,-0.0611,0.8047
1777289580.9006305,R_Tibia,13.2645,9.7809,-11.9485,162.8418,-19.9585,89.4775,84.8914,-0.9723,-9.8657,0.6729,0.0518,-0.0692,0.7347
1777289580.9006305,R_Foot,4.0961,9.3167,34.7067,80.2612,-53.772,4.0894,1.5656,-4.3121,-86.6547,0.0357,-0.018,-0.686,0.7265
1777289580.9006305,Trunk,1.4212,10.9149,1.6652,-18.9209,-35.2173,-34.4849,82.4744,1.4502,-24.7522,0.6418,0.1506,-0.153,0.7362
1777289580.9006305,L_Femur,-0.8709,16.0207,-9.7474,-194.519,-71.7163,-36.6821,105.8093,3.0597,-4.2352,0.7962,0.0456,-0.001,0.6033
1777289580.9006305,L_Tibia,2.4165,9.5799,-11.8433,74.707,6.958,45.4712,157.1869,-5.8557,-25.6201,0.9568,0.2072,-0.0926,0.1815
1777289580.9006305,L_Foot,-7.0007,28.7827,66.3845,349.6094,-45.166,183.4717,75.0421,-1.9281,-89.6869,0.4412,0.42,-0.5665,0.5551
1777289580.9006305,R_Femur,7.4026,13.8004,-5.5556,112.6099,-80.3223,24.7803,72.1967,-8.2233,-2.6862,0.5889,-0.0441,-0.0611,0.8047
1777289580.9006305,R_Tibia,7.8046,8.7999,-8.0582,100.9521,182.8003,67.627,88.0829,-2.4445,-6.0315,0.6949,0.0213,-0.0526,0.7169
1777289580.9006305,R_Foot,4.0961,9.3167,34.7067,80.2612,-53.772,4.0894,1.5656,-4.3121,-86.6547,0.0357,-0.018,-0.686,0.7265
1777289580.9006305,Trunk,1.4212,10.9149,1.6652,-18.9209,-35.2173,-34.4849,82.4744,1.4502,-24.7522,0.6418,0.1506,-0.153,0.7362
1777289580.9006305,L_Femur,-0.8709,16.0207,-9.7474,-194.519,-71.7163,-36.6821,105.8093,3.0597,-4.2352,0.7962,0.0456,-0.001,0.6033
1777289580.9006305,L_Tibia,2.4165,9.5799,-11.8433,74.707,6.958,45.4712,157.1869,-5.8557,-25.6201,0.9568,0.2072,-0.0926,0.1815
1777289580.9006305,L_Foot,-7.0007,28.7827,66.3845,349.6094,-45.166,183.4717,75.0421,-1.9281,-89.6869,0.4412,0.42,-0.5665,0.5551
1777289580.9006305,R_Femur,7.4026,13.8004,-5.5556,112.6099,-80.3223,24.7803,72.1967,-8.2233,-2.6862,0.5889,-0.0441,-0.0611,0.8047
1777289580.9006305,R_Tibia,7.8046,8.7999,-8.0582,100.9521,182.8003,67.627,88.0829,-2.4445,-6.0315,0.6949,0.0213,-0.0526,0.7169
1777289580.9006305,R_Foot,1.469,0.5981,11.805,-7.8125,1.0986,0.9155,2.8235,-5.224,-86.6656,0.0492,-0.0162,-0.6861,0.7256
1777289580.9486554,Trunk,1.4212,10.9149,1.6652,-18.9209,-35.2173,-34.4849,82.4744,1.4502,-24.7522,0.6418,0.1506,-0.153,0.7362
1777289580.9486554,L_Femur,0.6508,16.6141,-6.6322,-210.144,-94.0552,-22.522,102.6233,3.7628,-5.4547,0.7783,0.0576,-0.0041,0.6253
1777289580.9486554,L_Tibia,2.4165,9.5799,-11.8433,74.707,6.958,45.4712,157.1869,-5.8557,-25.6201,0.9568,0.2072,-0.0926,0.1815
1777289580.9486554,L_Foot,-7.0007,28.7827,66.3845,349.6094,-45.166,183.4717,75.0421,-1.9281,-89.6869,0.4412,0.42,-0.5665,0.5551
1777289580.9486554,R_Femur,7.4026,13.8004,-5.5556,112.6099,-80.3223,24.7803,72.1967,-8.2233,-2.6862,0.5889,-0.0441,-0.0611,0.8047
1777289580.9486554,R_Tibia,7.8046,8.7999,-8.0582,100.9521,182.8003,67.627,88.0829,-2.4445,-6.0315,0.6949,0.0213,-0.0526,0.7169
1777289580.9486554,R_Foot,1.469,0.5981,11.805,-7.8125,1.0986,0.9155,2.8235,-5.224,-86.6656,0.0492,-0.0162,-0.6861,0.7256
1777289580.949226,Trunk,1.4212,10.9149,1.6652,-18.9209,-35.2173,-34.4849,82.4744,1.4502,-24.7522,0.6418,0.1506,-0.153,0.7362
1777289580.949226,L_Femur,0.6508,16.6141,-6.6322,-210.144,-94.0552,-22.522,102.6233,3.7628,-5.4547,0.7783,0.0576,-0.0041,0.6253
1777289580.949226,L_Tibia,0.9235,4.5363,-18.1118,94.7266,-3.54,14.4043,158.5876,-5.9491,-25.9332,0.9584,0.2108,-0.0913,0.1694
1777289580.949226,L_Foot,-7.0007,28.7827,66.3845,349.6094,-45.166,183.4717,75.0421,-1.9281,-89.6869,0.4412,0.42,-0.5665,0.5551
1777289580.949226,R_Femur,7.4026,13.8004,-5.5556,112.6099,-80.3223,24.7803,72.1967,-8.2233,-2.6862,0.5889,-0.0441,-0.0611,0.8047
1777289580.949226,R_Tibia,7.8046,8.7999,-8.0582,100.9521,182.8003,67.627,88.0829,-2.4445,-6.0315,0.6949,0.0213,-0.0526,0.7169
1777289580.949226,R_Foot,1.469,0.5981,11.805,-7.8125,1.0986,0.9155,2.8235,-5.224,-86.6656,0.0492,-0.0162,-0.6861,0.7256
1777289580.949226,Trunk,1.4212,10.9149,1.6652,-18.9209,-35.2173,-34.4849,82.4744,1.4502,-24.7522,0.6418,0.1506,-0.153,0.7362
1777289580.949226,L_Femur,0.6508,16.6141,-6.6322,-210.144,-94.0552,-22.522,102.6233,3.7628,-5.4547,0.7783,0.0576,-0.0041,0.6253
1777289580.949226,L_Tibia,0.9235,4.5363,-18.1118,94.7266,-3.54,14.4043,158.5876,-5.9491,-25.9332,0.9584,0.2108,-0.0913,0.1694
1777289580.949226,L_Foot,-19.3033,7.7185,72.4329,-137.146,91.0645,32.0435,73.7787,-2.4225,-87.995,0.4435,0.4047,-0.5646,0.5664
1777289580.949226,R_Femur,7.4026,13.8004,-5.5556,112.6099,-80.3223,24.7803,72.1967,-8.2233,-2.6862,0.5889,-0.0441,-0.0611,0.8047
1777289580.949226,R_Tibia,7.8046,8.7999,-8.0582,100.9521,182.8003,67.627,88.0829,-2.4445,-6.0315,0.6949,0.0213,-0.0526,0.7169
1777289580.949226,R_Foot,1.469,0.5981,11.805,-7.8125,1.0986,0.9155,2.8235,-5.224,-86.6656,0.0492,-0.0162,-0.6861,0.7256
1777289580.949226,Trunk,1.4212,10.9149,1.6652,-18.9209,-35.2173,-34.4849,82.4744,1.4502,-24.7522,0.6418,0.1506,-0.153,0.7362
1777289580.949226,L_Femur,0.6508,16.6141,-6.6322,-210.144,-94.0552,-22.522,102.6233,3.7628,-5.4547,0.7783,0.0576,-0.0041,0.6253
1777289580.949226,L_Tibia,0.9235,4.5363,-18.1118,94.7266,-3.54,14.4043,158.5876,-5.9491,-25.9332,0.9584,0.2108,-0.0913,0.1694
1777289580.949226,L_Foot,-19.3033,7.7185,72.4329,-137.146,91.0645,32.0435,73.7787,-2.4225,-87.995,0.4435,0.4047,-0.5646,0.5664
1777289580.949226,R_Femur,9.9005,14.2885,-5.168,107.1777,38.3301,3.2959,73.7512,-8.2727,-2.4445,0.5996,-0.0449,-0.0603,0.7968
1777289580.949226,R_Tibia,7.8046,8.7999,-8.0582,100.9521,182.8003,67.627,88.0829,-2.4445,-6.0315,0.6949,0.0213,-0.0526,0.7169
1777289580.949226,R_Foot,1.469,0.5981,11.805,-7.8125,1.0986,0.9155,2.8235,-5.224,-86.6656,0.0492,-0.0162,-0.6861,0.7256
1777289580.949226,Trunk,1.4212,10.9149,1.6652,-18.9209,-35.2173,-34.4849,82.4744,1.4502,-24.7522,0.6418,0.1506,-0.153,0.7362
1777289580.949226,L_Femur,1.8997,17.8726,-4.1344,-216.4307,-83.0688,-25.3296,98.1464,4.5154,-7.1356,0.7519,0.0727,-0.011,0.6552
1777289580.949226,L_Tibia,0.9235,4.5363,-18.1118,94.7266,-3.54,14.4043,158.5876,-5.9491,-25.9332,0.9584,0.2108,-0.0913,0.1694
1777289580.949226,L_Foot,-19.3033,7.7185,72.4329,-137.146,91.0645,32.0435,73.7787,-2.4225,-87.995,0.4435,0.4047,-0.5646,0.5664
1777289580.949226,R_Femur,9.9005,14.2885,-5.168,107.1777,38.3301,3.2959,73.7512,-8.2727,-2.4445,0.5996,-0.0449,-0.0603,0.7968
1777289580.949226,R_Tibia,7.8046,8.7999,-8.0582,100.9521,182.8003,67.627,88.0829,-2.4445,-6.0315,0.6949,0.0213,-0.0526,0.7169
1777289580.949226,R_Foot,1.469,0.5981,11.805,-7.8125,1.0986,0.9155,2.8235,-5.224,-86.6656,0.0492,-0.0162,-0.6861,0.7256
1777289580.9501443,Trunk,1.4212,10.9149,1.6652,-18.9209,-35.2173,-34.4849,82.4744,1.4502,-24.7522,0.6418,0.1506,-0.153,0.7362
1777289580.9501443,L_Femur,1.8997,17.8726,-4.1344,-216.4307,-83.0688,-25.3296,98.1464,4.5154,-7.1356,0.7519,0.0727,-0.011,0.6552
1777289580.9501443,L_Tibia,1.2298,10.8623,-13.3075,11.6577,17.5781,2.1362,159.0546,-6.1414,-25.9058,0.9591,0.2106,-0.092,0.1651
1777289580.9501443,L_Foot,-19.3033,7.7185,72.4329,-137.146,91.0645,32.0435,73.7787,-2.4225,-87.995,0.4435,0.4047,-0.5646,0.5664
1777289580.9501443,R_Femur,9.9005,14.2885,-5.168,107.1777,38.3301,3.2959,73.7512,-8.2727,-2.4445,0.5996,-0.0449,-0.0603,0.7968
1777289580.9501443,R_Tibia,7.8046,8.7999,-8.0582,100.9521,182.8003,67.627,88.0829,-2.4445,-6.0315,0.6949,0.0213,-0.0526,0.7169
1777289580.9501443,R_Foot,1.469,0.5981,11.805,-7.8125,1.0986,0.9155,2.8235,-5.224,-86.6656,0.0492,-0.0162,-0.6861,0.7256
1777289580.9508102,Trunk,1.4212,10.9149,1.6652,-18.9209,-35.2173,-34.4849,82.4744,1.4502,-24.7522,0.6418,0.1506,-0.153,0.7362
1777289580.9508102,L_Femur,1.8997,17.8726,-4.1344,-216.4307,-83.0688,-25.3296,98.1464,4.5154,-7.1356,0.7519,0.0727,-0.011,0.6552
1777289580.9508102,L_Tibia,1.2298,10.8623,-13.3075,11.6577,17.5781,2.1362,159.0546,-6.1414,-25.9058,0.9591,0.2106,-0.092,0.1651
1777289580.9508102,L_Foot,-11.6423,-10.446,6.4217,-150.0244,-162.9639,-3.6621,70.6421,-2.9498,-89.9561,0.4237,0.3937,-0.5871,0.5665
1777289580.9508102,R_Femur,9.9005,14.2885,-5.168,107.1777,38.3301,3.2959,73.7512,-8.2727,-2.4445,0.5996,-0.0449,-0.0603,0.7968
1777289580.9508102,R_Tibia,7.8046,8.7999,-8.0582,100.9521,182.8003,67.627,88.0829,-2.4445,-6.0315,0.6949,0.0213,-0.0526,0.7169
1777289580.9508102,R_Foot,1.469,0.5981,11.805,-7.8125,1.0986,0.9155,2.8235,-5.224,-86.6656,0.0492,-0.0162,-0.6861,0.7256
1777289580.9508102,Trunk,1.4212,10.9149,1.6652,-18.9209,-35.2173,-34.4849,82.4744,1.4502,-24.7522,0.6418,0.1506,-0.153,0.7362
1777289580.9508102,L_Femur,1.8997,17.8726,-4.1344,-216.4307,-83.0688,-25.3296,98.1464,4.5154,-7.1356,0.7519,0.0727,-0.011,0.6552
1777289580.9508102,L_Tibia,1.2298,10.8623,-13.3075,11.6577,17.5781,2.1362,159.0546,-6.1414,-25.9058,0.9591,0.2106,-0.092,0.1651
1777289580.9508102,L_Foot,-11.6423,-10.446,6.4217,-150.0244,-162.9639,-3.6621,70.6421,-2.9498,-89.9561,0.4237,0.3937,-0.5871,0.5665
1777289580.9508102,R_Femur,1.7992,11.5753,-3.0769,109.6191,64.27,-9.3994,75.7892,-7.8113,-1.2195,0.6133,-0.0472,-0.0502,0.7868
1777289580.9508102,R_Tibia,7.8046,8.7999,-8.0582,100.9521,182.8003,67.627,88.0829,-2.4445,-6.0315,0.6949,0.0213,-0.0526,0.7169
1777289580.9508102,R_Foot,1.469,0.5981,11.805,-7.8125,1.0986,0.9155,2.8235,-5.224,-86.6656,0.0492,-0.0162,-0.6861,0.7256
1777289580.9508102,Trunk,1.4212,10.9149,1.6652,-18.9209,-35.2173,-34.4849,82.4744,1.4502,-24.7522,0.6418,0.1506,-0.153,0.7362
1777289580.9508102,L_Femur,1.8997,17.8726,-4.1344,-216.4307,-83.0688,-25.3296,98.1464,4.5154,-7.1356,0.7519,0.0727,-0.011,0.6552
1777289580.9508102,L_Tibia,1.2298,10.8623,-13.3075,11.6577,17.5781,2.1362,159.0546,-6.1414,-25.9058,0.9591,0.2106,-0.092,0.1651
1777289580.9508102,L_Foot,-11.6423,-10.446,6.4217,-150.0244,-162.9639,-3.6621,70.6421,-2.9498,-89.9561,0.4237,0.3937,-0.5871,0.5665
1777289580.9508102,R_Femur,1.7992,11.5753,-3.0769,109.6191,64.27,-9.3994,75.7892,-7.8113,-1.2195,0.6133,-0.0472,-0.0502,0.7868
1777289580.9508102,R_Tibia,-11.1398,13.3889,-5.8188,54.7485,-165.7104,62.9883,90.5823,-4.9493,-5.5426,0.7107,0.004,-0.0646,0.7005
1777289580.9508102,R_Foot,1.469,0.5981,11.805,-7.8125,1.0986,0.9155,2.8235,-5.224,-86.6656,0.0492,-0.0162,-0.6861,0.7256
1777289580.9508102,Trunk,1.4212,10.9149,1.6652,-18.9209,-35.2173,-34.4849,82.4744,1.4502,-24.7522,0.6418,0.1506,-0.153,0.7362
1777289580.9508102,L_Femur,1.8997,17.8726,-4.1344,-216.4307,-83.0688,-25.3296,98.1464,4.5154,-7.1356,0.7519,0.0727,-0.011,0.6552
1777289580.9508102,L_Tibia,1.2298,10.8623,-13.3075,11.6577,17.5781,2.1362,159.0546,-6.1414,-25.9058,0.9591,0.2106,-0.092,0.1651
1777289580.9508102,L_Foot,-11.6423,-10.446,6.4217,-150.0244,-162.9639,-3.6621,70.6421,-2.9498,-89.9561,0.4237,0.3937,-0.5871,0.5665
1777289580.9508102,R_Femur,1.7992,11.5753,-3.0769,109.6191,64.27,-9.3994,75.7892,-7.8113,-1.2195,0.6133,-0.0472,-0.0502,0.7868
1777289580.9508102,R_Tibia,-11.1398,13.3889,-5.8188,54.7485,-165.7104,62.9883,90.5823,-4.9493,-5.5426,0.7107,0.004,-0.0646,0.7005
1777289580.9508102,R_Foot,0.7752,0.0383,10.8432,8.9722,-5.0049,-2.0752,2.8015,-5.2899,-86.7371,0.0494,-0.0168,-0.6866,0.7252
1777289580.9508102,Trunk,1.4212,10.9149,1.6652,-18.9209,-35.2173,-34.4849,82.4744,1.4502,-24.7522,0.6418,0.1506,-0.153,0.7362
1777289580.9508102,L_Femur,2.8998,16.7815,-3.7037,-199.585,-46.5088,-45.7764,95.0372,5.224,-7.8772,0.7329,0.0813,-0.0128,0.6754
1777289580.9508102,L_Tibia,1.2298,10.8623,-13.3075,11.6577,17.5781,2.1362,159.0546,-6.1414,-25.9058,0.9591,0.2106,-0.092,0.1651
1777289580.9508102,L_Foot,-11.6423,-10.446,6.4217,-150.0244,-162.9639,-3.6621,70.6421,-2.9498,-89.9561,0.4237,0.3937,-0.5871,0.5665
1777289580.9508102,R_Femur,1.7992,11.5753,-3.0769,109.6191,64.27,-9.3994,75.7892,-7.8113,-1.2195,0.6133,-0.0472,-0.0502,0.7868
1777289580.9508102,R_Tibia,-11.1398,13.3889,-5.8188,54.7485,-165.7104,62.9883,90.5823,-4.9493,-5.5426,0.7107,0.004,-0.0646,0.7005
1777289580.9508102,R_Foot,0.7752,0.0383,10.8432,8.9722,-5.0049,-2.0752,2.8015,-5.2899,-86.7371,0.0494,-0.0168,-0.6866,0.7252
1777289580.9518998,Trunk,1.4212,10.9149,1.6652,-18.9209,-35.2173,-34.4849,82.4744,1.4502,-24.7522,0.6418,0.1506,-0.153,0.7362
1777289580.9518998,L_Femur,2.8998,16.7815,-3.7037,-199.585,-46.5088,-45.7764,95.0372,5.224,-7.8772,0.7329,0.0813,-0.0128,0.6754
1777289580.9518998,L_Tibia,1.6126,7.8572,-5.5221,-67.9932,19.7144,-2.9907,157.9834,-6.6193,-25.697,0.9579,0.2072,-0.0976,0.1733
1777289580.9518998,L_Foot,-11.6423,-10.446,6.4217,-150.0244,-162.9639,-3.6621,70.6421,-2.9498,-89.9561,0.4237,0.3937,-0.5871,0.5665
1777289580.9518998,R_Femur,1.7992,11.5753,-3.0769,109.6191,64.27,-9.3994,75.7892,-7.8113,-1.2195,0.6133,-0.0472,-0.0502,0.7868
1777289580.9518998,R_Tibia,-11.1398,13.3889,-5.8188,54.7485,-165.7104,62.9883,90.5823,-4.9493,-5.5426,0.7107,0.004,-0.0646,0.7005
1777289580.9518998,R_Foot,0.7752,0.0383,10.8432,8.9722,-5.0049,-2.0752,2.8015,-5.2899,-86.7371,0.0494,-0.0168,-0.6866,0.7252
1777289580.9518998,Trunk,1.4212,10.9149,1.6652,-18.9209,-35.2173,-34.4849,82.4744,1.4502,-24.7522,0.6418,0.1506,-0.153,0.7362
1777289580.9518998,L_Femur,2.8998,16.7815,-3.7037,-199.585,-46.5088,-45.7764,95.0372,5.224,-7.8772,0.7329,0.0813,-0.0128,0.6754
1777289580.9518998,L_Tibia,1.6126,7.8572,-5.5221,-67.9932,19.7144,-2.9907,157.9834,-6.6193,-25.697,0.9579,0.2072,-0.0976,0.1733
1777289580.9518998,L_Foot,0.1053,-6.1346,2.9572,-159.9121,-80.4443,-1.2207,68.3844,-3.4058,-91.3239,0.4102,0.3846,-0.603,0.5659
1777289580.9518998,R_Femur,1.7992,11.5753,-3.0769,109.6191,64.27,-9.3994,75.7892,-7.8113,-1.2195,0.6133,-0.0472,-0.0502,0.7868
1777289580.9518998,R_Tibia,-11.1398,13.3889,-5.8188,54.7485,-165.7104,62.9883,90.5823,-4.9493,-5.5426,0.7107,0.004,-0.0646,0.7005
1777289580.9518998,R_Foot,0.7752,0.0383,10.8432,8.9722,-5.0049,-2.0752,2.8015,-5.2899,-86.7371,0.0494,-0.0168,-0.6866,0.7252
1777289580.9518998,Trunk,1.4212,10.9149,1.6652,-18.9209,-35.2173,-34.4849,82.4744,1.4502,-24.7522,0.6418,0.1506,-0.153,0.7362
1777289580.9518998,L_Femur,2.8998,16.7815,-3.7037,-199.585,-46.5088,-45.7764,95.0372,5.224,-7.8772,0.7329,0.0813,-0.0128,0.6754
1777289580.9518998,L_Tibia,1.6126,7.8572,-5.5221,-67.9932,19.7144,-2.9907,157.9834,-6.6193,-25.697,0.9579,0.2072,-0.0976,0.1733
1777289580.9518998,L_Foot,0.1053,-6.1346,2.9572,-159.9121,-80.4443,-1.2207,68.3844,-3.4058,-91.3239,0.4102,0.3846,-0.603,0.5659
1777289580.9518998,R_Femur,-1.9571,10.757,-1.7849,122.7417,27.2217,-3.7842,77.4866,-7.619,-0.6976,0.6248,-0.048,-0.0463,0.778
1777289580.9518998,R_Tibia,-11.1398,13.3889,-5.8188,54.7485,-165.7104,62.9883,90.5823,-4.9493,-5.5426,0.7107,0.004,-0.0646,0.7005
1777289580.9518998,R_Foot,0.7752,0.0383,10.8432,8.9722,-5.0049,-2.0752,2.8015,-5.2899,-86.7371,0.0494,-0.0168,-0.6866,0.7252
1777289580.9518998,Trunk,0.6221,10.4556,-0.4259,19.8364,-33.9966,2.5635,84.0234,1.3019,-26.076,0.6501,0.1592,-0.1602,0.7255
1777289580.9518998,L_Femur,2.8998,16.7815,-3.7037,-199.585,-46.5088,-45.7764,95.0372,5.224,-7.8772,0.7329,0.0813,-0.0128,0.6754
1777289580.9518998,L_Tibia,1.6126,7.8572,-5.5221,-67.9932,19.7144,-2.9907,157.9834,-6.6193,-25.697,0.9579,0.2072,-0.0976,0.1733
1777289580.9518998,L_Foot,0.1053,-6.1346,2.9572,-159.9121,-80.4443,-1.2207,68.3844,-3.4058,-91.3239,0.4102,0.3846,-0.603,0.5659
1777289580.9518998,R_Femur,-1.9571,10.757,-1.7849,122.7417,27.2217,-3.7842,77.4866,-7.619,-0.6976,0.6248,-0.048,-0.0463,0.778
1777289580.9518998,R_Tibia,-11.1398,13.3889,-5.8188,54.7485,-165.7104,62.9883,90.5823,-4.9493,-5.5426,0.7107,0.004,-0.0646,0.7005
1777289580.9518998,R_Foot,0.7752,0.0383,10.8432,8.9722,-5.0049,-2.0752,2.8015,-5.2899,-86.7371,0.0494,-0.0168,-0.6866,0.7252
1777289580.9518998,Trunk,0.6221,10.4556,-0.4259,19.8364,-33.9966,2.5635,84.0234,1.3019,-26.076,0.6501,0.1592,-0.1602,0.7255
1777289580.9518998,L_Femur,3.5171,14.3698,-3.5984,-186.8896,-10.2539,-54.9927,92.1753,6.0535,-8.0804,0.715,0.0872,-0.0109,0.6935
1777289580.9518998,L_Tibia,1.6126,7.8572,-5.5221,-67.9932,19.7144,-2.9907,157.9834,-6.6193,-25.697,0.9579,0.2072,-0.0976,0.1733
1777289580.9518998,L_Foot,0.1053,-6.1346,2.9572,-159.9121,-80.4443,-1.2207,68.3844,-3.4058,-91.3239,0.4102,0.3846,-0.603,0.5659
1777289580.9518998,R_Femur,-1.9571,10.757,-1.7849,122.7417,27.2217,-3.7842,77.4866,-7.619,-0.6976,0.6248,-0.048,-0.0463,0.778
1777289580.9518998,R_Tibia,-11.1398,13.3889,-5.8188,54.7485,-165.7104,62.9883,90.5823,-4.9493,-5.5426,0.7107,0.004,-0.0646,0.7005
1777289580.9518998,R_Foot,0.7752,0.0383,10.8432,8.9722,-5.0049,-2.0752,2.8015,-5.2899,-86.7371,0.0494,-0.0168,-0.6866,0.7252
1777289580.9518998,Trunk,0.6221,10.4556,-0.4259,19.8364,-33.9966,2.5635,84.0234,1.3019,-26.076,0.6501,0.1592,-0.1602,0.7255
1777289580.9518998,L_Femur,3.5171,14.3698,-3.5984,-186.8896,-10.2539,-54.9927,92.1753,6.0535,-8.0804,0.715,0.0872,-0.0109,0.6935
1777289580.9518998,L_Tibia,1.7227,3.9621,-7.9434,-116.8823,-10.6812,-8.3008,156.3684,-6.4929,-25.6311,0.9555,0.2055,-0.0994,0.187
1777289580.9518998,L_Foot,0.1053,-6.1346,2.9572,-159.9121,-80.4443,-1.2207,68.3844,-3.4058,-91.3239,0.4102,0.3846,-0.603,0.5659
1777289580.9518998,R_Femur,-1.9571,10.757,-1.7849,122.7417,27.2217,-3.7842,77.4866,-7.619,-0.6976,0.6248,-0.048,-0.0463,0.778
1777289580.9518998,R_Tibia,-11.1398,13.3889,-5.8188,54.7485,-165.7104,62.9883,90.5823,-4.9493,-5.5426,0.7107,0.004,-0.0646,0.7005
1777289580.9518998,R_Foot,0.7752,0.0383,10.8432,8.9722,-5.0049,-2.0752,2.8015,-5.2899,-86.7371,0.0494,-0.0168,-0.6866,0.7252
1777289580.9528983,Trunk,0.6221,10.4556,-0.4259,19.8364,-33.9966,2.5635,84.0234,1.3019,-26.076,0.6501,0.1592,-0.1602,0.7255
1777289580.9528983,L_Femur,3.5171,14.3698,-3.5984,-186.8896,-10.2539,-54.9927,92.1753,6.0535,-8.0804,0.715,0.0872,-0.0109,0.6935
1777289580.9528983,L_Tibia,1.7227,3.9621,-7.9434,-116.8823,-10.6812,-8.3008,156.3684,-6.4929,-25.6311,0.9555,0.2055,-0.0994,0.187
1777289580.9528983,L_Foot,0.8996,-1.7562,13.231,-227.0508,27.4658,0.6104,64.2206,-3.4003,-91.3293,0.3893,0.3625,-0.6166,0.5804
1777289580.9528983,R_Femur,-1.9571,10.757,-1.7849,122.7417,27.2217,-3.7842,77.4866,-7.619,-0.6976,0.6248,-0.048,-0.0463,0.778
1777289580.9528983,R_Tibia,-11.1398,13.3889,-5.8188,54.7485,-165.7104,62.9883,90.5823,-4.9493,-5.5426,0.7107,0.004,-0.0646,0.7005
1777289580.9528983,R_Foot,0.7752,0.0383,10.8432,8.9722,-5.0049,-2.0752,2.8015,-5.2899,-86.7371,0.0494,-0.0168,-0.6866,0.7252
1777289580.9528983,Trunk,0.6221,10.4556,-0.4259,19.8364,-33.9966,2.5635,84.0234,1.3019,-26.076,0.6501,0.1592,-0.1602,0.7255
1777289580.9528983,L_Femur,3.5171,14.3698,-3.5984,-186.8896,-10.2539,-54.9927,92.1753,6.0535,-8.0804,0.715,0.0872,-0.0109,0.6935
1777289580.9528983,L_Tibia,1.7227,3.9621,-7.9434,-116.8823,-10.6812,-8.3008,156.3684,-6.4929,-25.6311,0.9555,0.2055,-0.0994,0.187
1777289580.9528983,L_Foot,0.8996,-1.7562,13.231,-227.0508,27.4658,0.6104,64.2206,-3.4003,-91.3293,0.3893,0.3625,-0.6166,0.5804
1777289580.9528983,R_Femur,-2.828,8.8813,-3.34,138.3057,-19.8975,6.2866,79.541,-7.7179,-0.8295,0.6386,-0.0471,-0.0486,0.7665
1777289580.9528983,R_Tibia,-11.1398,13.3889,-5.8188,54.7485,-165.7104,62.9883,90.5823,-4.9493,-5.5426,0.7107,0.004,-0.0646,0.7005
1777289580.9528983,R_Foot,0.7752,0.0383,10.8432,8.9722,-5.0049,-2.0752,2.8015,-5.2899,-86.7371,0.0494,-0.0168,-0.6866,0.7252
1777289580.9528983,Trunk,0.6221,10.4556,-0.4259,19.8364,-33.9966,2.5635,84.0234,1.3019,-26.076,0.6501,0.1592,-0.1602,0.7255
1777289580.9528983,L_Femur,3.5171,14.3698,-3.5984,-186.8896,-10.2539,-54.9927,92.1753,6.0535,-8.0804,0.715,0.0872,-0.0109,0.6935
1777289580.9528983,L_Tibia,1.7227,3.9621,-7.9434,-116.8823,-10.6812,-8.3008,156.3684,-6.4929,-25.6311,0.9555,0.2055,-0.0994,0.187
1777289580.9528983,L_Foot,0.8996,-1.7562,13.231,-227.0508,27.4658,0.6104,64.2206,-3.4003,-91.3293,0.3893,0.3625,-0.6166,0.5804
1777289580.9528983,R_Femur,-2.828,8.8813,-3.34,138.3057,-19.8975,6.2866,79.541,-7.7179,-0.8295,0.6386,-0.0471,-0.0486,0.7665
1777289580.9528983,R_Tibia,8.9004,10.6518,-5.9049,34.79,-201.355,28.9917,92.9224,-5.6799,-14.2932,0.7226,0.0562,-0.1212,0.6782
1777289580.9528983,R_Foot,0.7752,0.0383,10.8432,8.9722,-5.0049,-2.0752,2.8015,-5.2899,-86.7371,0.0494,-0.0168,-0.6866,0.7252
1777289580.9528983,Trunk,0.6221,10.4556,-0.4259,19.8364,-33.9966,2.5635,84.0234,1.3019,-26.076,0.6501,0.1592,-0.1602,0.7255
1777289580.9528983,L_Femur,3.5171,14.3698,-3.5984,-186.8896,-10.2539,-54.9927,92.1753,6.0535,-8.0804,0.715,0.0872,-0.0109,0.6935
1777289580.9528983,L_Tibia,1.7227,3.9621,-7.9434,-116.8823,-10.6812,-8.3008,156.3684,-6.4929,-25.6311,0.9555,0.2055,-0.0994,0.187
1777289580.9528983,L_Foot,0.8996,-1.7562,13.231,-227.0508,27.4658,0.6104,64.2206,-3.4003,-91.3293,0.3893,0.3625,-0.6166,0.5804
1777289580.9528983,R_Femur,-2.828,8.8813,-3.34,138.3057,-19.8975,6.2866,79.541,-7.7179,-0.8295,0.6386,-0.0471,-0.0486,0.7665
1777289580.9528983,R_Tibia,8.9004,10.6518,-5.9049,34.79,-201.355,28.9917,92.9224,-5.6799,-14.2932,0.7226,0.0562,-0.1212,0.6782
1777289580.9528983,R_Foot,0.3924,1.469,9.3023,6.1035,-5.188,4.7607,2.9224,-5.4272,-86.5887,0.051,-0.017,-0.6856,0.726
1777289580.9528983,Trunk,0.9762,8.819,-0.2775,15.1978,-30.0293,3.7231,84.2432,1.192,-26.543,0.651,0.1615,-0.1635,0.7235
1777289580.9528983,L_Femur,3.5171,14.3698,-3.5984,-186.8896,-10.2539,-54.9927,92.1753,6.0535,-8.0804,0.715,0.0872,-0.0109,0.6935
1777289580.9528983,L_Tibia,1.7227,3.9621,-7.9434,-116.8823,-10.6812,-8.3008,156.3684,-6.4929,-25.6311,0.9555,0.2055,-0.0994,0.187
1777289580.9528983,L_Foot,0.8996,-1.7562,13.231,-227.0508,27.4658,0.6104,64.2206,-3.4003,-91.3293,0.3893,0.3625,-0.6166,0.5804
1777289580.9528983,R_Femur,-2.828,8.8813,-3.34,138.3057,-19.8975,6.2866,79.541,-7.7179,-0.8295,0.6386,-0.0471,-0.0486,0.7665
1777289580.9528983,R_Tibia,8.9004,10.6518,-5.9049,34.79,-201.355,28.9917,92.9224,-5.6799,-14.2932,0.7226,0.0562,-0.1212,0.6782
1777289580.9528983,R_Foot,0.3924,1.469,9.3023,6.1035,-5.188,4.7607,2.9224,-5.4272,-86.5887,0.051,-0.017,-0.6856,0.726
1777289580.9538965,Trunk,0.9762,8.819,-0.2775,15.1978,-30.0293,3.7231,84.2432,1.192,-26.543,0.651,0.1615,-0.1635,0.7235
1777289580.9538965,L_Femur,1.9811,11.4461,-4.3066,-173.2178,-8.1787,-55.7861,88.6157,7.1906,-8.1903,0.6922,0.0945,-0.0073,0.7155
1777289580.9538965,L_Tibia,1.7227,3.9621,-7.9434,-116.8823,-10.6812,-8.3008,156.3684,-6.4929,-25.6311,0.9555,0.2055,-0.0994,0.187
1777289580.9538965,L_Foot,0.8996,-1.7562,13.231,-227.0508,27.4658,0.6104,64.2206,-3.4003,-91.3293,0.3893,0.3625,-0.6166,0.5804
1777289580.9538965,R_Femur,-2.828,8.8813,-3.34,138.3057,-19.8975,6.2866,79.541,-7.7179,-0.8295,0.6386,-0.0471,-0.0486,0.7665
1777289580.9538965,R_Tibia,8.9004,10.6518,-5.9049,34.79,-201.355,28.9917,92.9224,-5.6799,-14.2932,0.7226,0.0562,-0.1212,0.6782
1777289580.9538965,R_Foot,0.3924,1.469,9.3023,6.1035,-5.188,4.7607,2.9224,-5.4272,-86.5887,0.051,-0.017,-0.6856,0.726
1777289580.9538965,Trunk,0.9762,8.819,-0.2775,15.1978,-30.0293,3.7231,84.2432,1.192,-26.543,0.651,0.1615,-0.1635,0.7235
1777289580.9538965,L_Femur,1.9811,11.4461,-4.3066,-173.2178,-8.1787,-55.7861,88.6157,7.1906,-8.1903,0.6922,0.0945,-0.0073,0.7155
1777289580.9538965,L_Tibia,2.5983,2.6653,-9.2688,-165.8936,-2.0142,-21.2402,154.0009,-6.3116,-25.4114,0.9518,0.2019,-0.1017,0.2073
1777289580.9538965,L_Foot,0.8996,-1.7562,13.231,-227.0508,27.4658,0.6104,64.2206,-3.4003,-91.3293,0.3893,0.3625,-0.6166,0.5804
1777289580.9538965,R_Femur,-2.828,8.8813,-3.34,138.3057,-19.8975,6.2866,79.541,-7.7179,-0.8295,0.6386,-0.0471,-0.0486,0.7665
1777289580.9538965,R_Tibia,8.9004,10.6518,-5.9049,34.79,-201.355,28.9917,92.9224,-5.6799,-14.2932,0.7226,0.0562,-0.1212,0.6782
1777289580.9538965,R_Foot,0.3924,1.469,9.3023,6.1035,-5.188,4.7607,2.9224,-5.4272,-86.5887,0.051,-0.017,-0.6856,0.726
1777289580.9538965,Trunk,0.9762,8.819,-0.2775,15.1978,-30.0293,3.7231,84.2432,1.192,-26.543,0.651,0.1615,-0.1635,0.7235
1777289580.9538965,L_Femur,1.9811,11.4461,-4.3066,-173.2178,-8.1787,-55.7861,88.6157,7.1906,-8.1903,0.6922,0.0945,-0.0073,0.7155
1777289580.9538965,L_Tibia,2.5983,2.6653,-9.2688,-165.8936,-2.0142,-21.2402,154.0009,-6.3116,-25.4114,0.9518,0.2019,-0.1017,0.2073
1777289580.9538965,L_Foot,-2.5361,-1.7083,12.4845,-262.7563,3.7842,-5.3101,60.3918,-3.2739,-91.2415,0.3693,0.3421,-0.6275,0.594
1777289580.9538965,R_Femur,-2.828,8.8813,-3.34,138.3057,-19.8975,6.2866,79.541,-7.7179,-0.8295,0.6386,-0.0471,-0.0486,0.7665
1777289580.9538965,R_Tibia,8.9004,10.6518,-5.9049,34.79,-201.355,28.9917,92.9224,-5.6799,-14.2932,0.7226,0.0562,-0.1212,0.6782
1777289580.9538965,R_Foot,0.3924,1.469,9.3023,6.1035,-5.188,4.7607,2.9224,-5.4272,-86.5887,0.051,-0.017,-0.6856,0.726
1777289580.9538965,Trunk,0.9762,8.819,-0.2775,15.1978,-30.0293,3.7231,84.2432,1.192,-26.543,0.651,0.1615,-0.1635,0.7235
1777289580.9538965,L_Femur,1.9811,11.4461,-4.3066,-173.2178,-8.1787,-55.7861,88.6157,7.1906,-8.1903,0.6922,0.0945,-0.0073,0.7155
1777289580.9538965,L_Tibia,2.5983,2.6653,-9.2688,-165.8936,-2.0142,-21.2402,154.0009,-6.3116,-25.4114,0.9518,0.2019,-0.1017,0.2073
1777289580.9538965,L_Foot,-2.5361,-1.7083,12.4845,-262.7563,3.7842,-5.3101,60.3918,-3.2739,-91.2415,0.3693,0.3421,-0.6275,0.594
1777289580.9538965,R_Femur,-3.5649,7.6945,-2.4883,146.5454,-91.5527,13.2446,82.6117,-8.2068,-2.2357,0.6593,-0.0409,-0.0618,0.7482
1777289580.9538965,R_Tibia,8.9004,10.6518,-5.9049,34.79,-201.355,28.9917,92.9224,-5.6799,-14.2932,0.7226,0.0562,-0.1212,0.6782
1777289580.9538965,R_Foot,0.3924,1.469,9.3023,6.1035,-5.188,4.7607,2.9224,-5.4272,-86.5887,0.051,-0.017,-0.6856,0.726
1777289581.0082967,Trunk,0.2632,7.3404,0.3302,11.9629,-17.7002,9.6436,84.4739,0.9888,-26.9385,0.6522,0.1628,-0.1668,0.7213
1777289581.0082967,L_Femur,1.9811,11.4461,-4.3066,-173.2178,-8.1787,-55.7861,88.6157,7.1906,-8.1903,0.6922,0.0945,-0.0073,0.7155
1777289581.0082967,L_Tibia,2.5983,2.6653,-9.2688,-165.8936,-2.0142,-21.2402,154.0009,-6.3116,-25.4114,0.9518,0.2019,-0.1017,0.2073
1777289581.0082967,L_Foot,-2.5361,-1.7083,12.4845,-262.7563,3.7842,-5.3101,60.3918,-3.2739,-91.2415,0.3693,0.3421,-0.6275,0.594
1777289581.0082967,R_Femur,-3.5649,7.6945,-2.4883,146.5454,-91.5527,13.2446,82.6117,-8.2068,-2.2357,0.6593,-0.0409,-0.0618,0.7482
1777289581.0082967,R_Tibia,8.9004,10.6518,-5.9049,34.79,-201.355,28.9917,92.9224,-5.6799,-14.2932,0.7226,0.0562,-0.1212,0.6782
1777289581.0082967,R_Foot,0.3924,1.469,9.3023,6.1035,-5.188,4.7607,2.9224,-5.4272,-86.5887,0.051,-0.017,-0.6856,0.726
1777289581.0082967,Trunk,0.2632,7.3404,0.3302,11.9629,-17.7002,9.6436,84.4739,0.9888,-26.9385,0.6522,0.1628,-0.1668,0.7213
1777289581.0082967,L_Femur,1.8614,9.6469,-4.4263,-166.8701,-26.001,-49.6826,86.0449,7.9376,-8.5529,0.675,0.1012,-0.0073,0.7308
1777289581.0082967,L_Tibia,2.5983,2.6653,-9.2688,-165.8936,-2.0142,-21.2402,154.0009,-6.3116,-25.4114,0.9518,0.2019,-0.1017,0.2073
1777289581.0082967,L_Foot,-2.5361,-1.7083,12.4845,-262.7563,3.7842,-5.3101,60.3918,-3.2739,-91.2415,0.3693,0.3421,-0.6275,0.594
1777289581.0082967,R_Femur,-3.5649,7.6945,-2.4883,146.5454,-91.5527,13.2446,82.6117,-8.2068,-2.2357,0.6593,-0.0409,-0.0618,0.7482
1777289581.0082967,R_Tibia,8.9004,10.6518,-5.9049,34.79,-201.355,28.9917,92.9224,-5.6799,-14.2932,0.7226,0.0562,-0.1212,0.6782
1777289581.0082967,R_Foot,0.3924,1.469,9.3023,6.1035,-5.188,4.7607,2.9224,-5.4272,-86.5887,0.051,-0.017,-0.6856,0.726
1777289581.0082967,Trunk,0.2632,7.3404,0.3302,11.9629,-17.7002,9.6436,84.4739,0.9888,-26.9385,0.6522,0.1628,-0.1668,0.7213
1777289581.0082967,L_Femur,1.8614,9.6469,-4.4263,-166.8701,-26.001,-49.6826,86.0449,7.9376,-8.5529,0.675,0.1012,-0.0073,0.7308
1777289581.0082967,L_Tibia,2.785,2.0863,-8.1013,-212.3413,12.085,-39.7339,149.8755,-6.1578,-24.6808,0.945,0.1924,-0.1061,0.2424
1777289581.0082967,L_Foot,-2.5361,-1.7083,12.4845,-262.7563,3.7842,-5.3101,60.3918,-3.2739,-91.2415,0.3693,0.3421,-0.6275,0.594
1777289581.0082967,R_Femur,-3.5649,7.6945,-2.4883,146.5454,-91.5527,13.2446,82.6117,-8.2068,-2.2357,0.6593,-0.0409,-0.0618,0.7482
1777289581.0082967,R_Tibia,8.9004,10.6518,-5.9049,34.79,-201.355,28.9917,92.9224,-5.6799,-14.2932,0.7226,0.0562,-0.1212,0.6782
1777289581.0082967,R_Foot,0.3924,1.469,9.3023,6.1035,-5.188,4.7607,2.9224,-5.4272,-86.5887,0.051,-0.017,-0.6856,0.726
1777289581.0092993,Trunk,0.2632,7.3404,0.3302,11.9629,-17.7002,9.6436,84.4739,0.9888,-26.9385,0.6522,0.1628,-0.1668,0.7213
1777289581.0092993,L_Femur,1.8614,9.6469,-4.4263,-166.8701,-26.001,-49.6826,86.0449,7.9376,-8.5529,0.675,0.1012,-0.0073,0.7308
1777289581.0092993,L_Tibia,2.785,2.0863,-8.1013,-212.3413,12.085,-39.7339,149.8755,-6.1578,-24.6808,0.945,0.1924,-0.1061,0.2424
1777289581.0092993,L_Foot,-2.4213,0.2632,15.614,-321.7163,-25.6348,-9.8877,55.7941,-3.3234,-91.6205,0.3444,0.3175,-0.6429,0.606
1777289581.0092993,R_Femur,-3.5649,7.6945,-2.4883,146.5454,-91.5527,13.2446,82.6117,-8.2068,-2.2357,0.6593,-0.0409,-0.0618,0.7482
1777289581.0092993,R_Tibia,8.9004,10.6518,-5.9049,34.79,-201.355,28.9917,92.9224,-5.6799,-14.2932,0.7226,0.0562,-0.1212,0.6782
1777289581.0092993,R_Foot,0.3924,1.469,9.3023,6.1035,-5.188,4.7607,2.9224,-5.4272,-86.5887,0.051,-0.017,-0.6856,0.726
1777289581.0092993,Trunk,0.2632,7.3404,0.3302,11.9629,-17.7002,9.6436,84.4739,0.9888,-26.9385,0.6522,0.1628,-0.1668,0.7213
1777289581.0092993,L_Femur,1.8614,9.6469,-4.4263,-166.8701,-26.001,-49.6826,86.0449,7.9376,-8.5529,0.675,0.1012,-0.0073,0.7308
1777289581.0092993,L_Tibia,2.785,2.0863,-8.1013,-212.3413,12.085,-39.7339,149.8755,-6.1578,-24.6808,0.945,0.1924,-0.1061,0.2424
1777289581.0092993,L_Foot,-2.4213,0.2632,15.614,-321.7163,-25.6348,-9.8877,55.7941,-3.3234,-91.6205,0.3444,0.3175,-0.6429,0.606
1777289581.0092993,R_Femur,-1.2441,8.9674,-1.6413,159.4849,-117.6758,17.8223,85.199,-8.6353,-3.9221,0.6764,-0.0323,-0.076,0.7318
1777289581.0092993,R_Tibia,8.9004,10.6518,-5.9049,34.79,-201.355,28.9917,92.9224,-5.6799,-14.2932,0.7226,0.0562,-0.1212,0.6782
1777289581.0092993,R_Foot,0.3924,1.469,9.3023,6.1035,-5.188,4.7607,2.9224,-5.4272,-86.5887,0.051,-0.017,-0.6856,0.726
1777289581.0092993,Trunk,0.2632,7.3404,0.3302,11.9629,-17.7002,9.6436,84.4739,0.9888,-26.9385,0.6522,0.1628,-0.1668,0.7213
1777289581.0092993,L_Femur,1.8614,9.6469,-4.4263,-166.8701,-26.001,-49.6826,86.0449,7.9376,-8.5529,0.675,0.1012,-0.0073,0.7308
1777289581.0092993,L_Tibia,2.785,2.0863,-8.1013,-212.3413,12.085,-39.7339,149.8755,-6.1578,-24.6808,0.945,0.1924,-0.1061,0.2424
1777289581.0092993,L_Foot,-2.4213,0.2632,15.614,-321.7163,-25.6348,-9.8877,55.7941,-3.3234,-91.6205,0.3444,0.3175,-0.6429,0.606
1777289581.0092993,R_Femur,-1.2441,8.9674,-1.6413,159.4849,-117.6758,17.8223,85.199,-8.6353,-3.9221,0.6764,-0.0323,-0.076,0.7318
1777289581.0092993,R_Tibia,7.1012,9.867,-2.5026,47.3022,215.21,38.8184,94.1089,-7.3718,-10.7556,0.7314,0.0249,-0.1106,0.6725
1777289581.0092993,R_Foot,0.3924,1.469,9.3023,6.1035,-5.188,4.7607,2.9224,-5.4272,-86.5887,0.051,-0.017,-0.6856,0.726
1777289581.0092993,Trunk,0.2632,7.3404,0.3302,11.9629,-17.7002,9.6436,84.4739,0.9888,-26.9385,0.6522,0.1628,-0.1668,0.7213
1777289581.0092993,L_Femur,1.8614,9.6469,-4.4263,-166.8701,-26.001,-49.6826,86.0449,7.9376,-8.5529,0.675,0.1012,-0.0073,0.7308
1777289581.0092993,L_Tibia,2.785,2.0863,-8.1013,-212.3413,12.085,-39.7339,149.8755,-6.1578,-24.6808,0.945,0.1924,-0.1061,0.2424
1777289581.0092993,L_Foot,-2.4213,0.2632,15.614,-321.7163,-25.6348,-9.8877,55.7941,-3.3234,-91.6205,0.3444,0.3175,-0.6429,0.606
1777289581.0092993,R_Femur,-1.2441,8.9674,-1.6413,159.4849,-117.6758,17.8223,85.199,-8.6353,-3.9221,0.6764,-0.0323,-0.076,0.7318
1777289581.0092993,R_Tibia,7.1012,9.867,-2.5026,47.3022,215.21,38.8184,94.1089,-7.3718,-10.7556,0.7314,0.0249,-0.1106,0.6725
1777289581.0092993,R_Foot,0.7273,0.512,9.6182,6.0425,-3.479,1.709,3.0267,-5.5481,-86.4569,0.0524,-0.0172,-0.6848,0.7266
1777289581.0092993,Trunk,-0.6604,6.7854,0.7608,5.9814,-17.6392,12.5122,84.5673,0.769,-27.1747,0.6528,0.1629,-0.1694,0.7202
1777289581.0092993,L_Femur,1.8614,9.6469,-4.4263,-166.8701,-26.001,-49.6826,86.0449,7.9376,-8.5529,0.675,0.1012,-0.0073,0.7308
1777289581.0092993,L_Tibia,2.785,2.0863,-8.1013,-212.3413,12.085,-39.7339,149.8755,-6.1578,-24.6808,0.945,0.1924,-0.1061,0.2424
1777289581.0092993,L_Foot,-2.4213,0.2632,15.614,-321.7163,-25.6348,-9.8877,55.7941,-3.3234,-91.6205,0.3444,0.3175,-0.6429,0.606
1777289581.0092993,R_Femur,-1.2441,8.9674,-1.6413,159.4849,-117.6758,17.8223,85.199,-8.6353,-3.9221,0.6764,-0.0323,-0.076,0.7318
1777289581.0092993,R_Tibia,7.1012,9.867,-2.5026,47.3022,215.21,38.8184,94.1089,-7.3718,-10.7556,0.7314,0.0249,-0.1106,0.6725
1777289581.0092993,R_Foot,0.7273,0.512,9.6182,6.0425,-3.479,1.709,3.0267,-5.5481,-86.4569,0.0524,-0.0172,-0.6848,0.7266
1777289581.010298,Trunk,-0.6604,6.7854,0.7608,5.9814,-17.6392,12.5122,84.5673,0.769,-27.1747,0.6528,0.1629,-0.1694,0.7202
1777289581.010298,L_Femur,1.8088,7.6563,-5.0914,-149.9634,-46.6309,-47.0581,82.8589,8.822,-9.4263,0.6528,0.1117,-0.0107,0.7492
1777289581.010298,L_Tibia,2.785,2.0863,-8.1013,-212.3413,12.085,-39.7339,149.8755,-6.1578,-24.6808,0.945,0.1924,-0.1061,0.2424
1777289581.010298,L_Foot,-2.4213,0.2632,15.614,-321.7163,-25.6348,-9.8877,55.7941,-3.3234,-91.6205,0.3444,0.3175,-0.6429,0.606
1777289581.010298,R_Femur,-1.2441,8.9674,-1.6413,159.4849,-117.6758,17.8223,85.199,-8.6353,-3.9221,0.6764,-0.0323,-0.076,0.7318
1777289581.010298,R_Tibia,7.1012,9.867,-2.5026,47.3022,215.21,38.8184,94.1089,-7.3718,-10.7556,0.7314,0.0249,-0.1106,0.6725
1777289581.010298,R_Foot,0.7273,0.512,9.6182,6.0425,-3.479,1.709,3.0267,-5.5481,-86.4569,0.0524,-0.0172,-0.6848,0.7266
1777289581.010298,Trunk,-0.6604,6.7854,0.7608,5.9814,-17.6392,12.5122,84.5673,0.769,-27.1747,0.6528,0.1629,-0.1694,0.7202
1777289581.010298,L_Femur,1.8088,7.6563,-5.0914,-149.9634,-46.6309,-47.0581,82.8589,8.822,-9.4263,0.6528,0.1117,-0.0107,0.7492
1777289581.010298,L_Tibia,3.163,2.0528,-8.3357,-240.5396,7.8735,-48.4009,146.2885,-5.8942,-24.0106,0.938,0.1842,-0.1084,0.273
1777289581.010298,L_Foot,-2.4213,0.2632,15.614,-321.7163,-25.6348,-9.8877,55.7941,-3.3234,-91.6205,0.3444,0.3175,-0.6429,0.606
1777289581.010298,R_Femur,-1.2441,8.9674,-1.6413,159.4849,-117.6758,17.8223,85.199,-8.6353,-3.9221,0.6764,-0.0323,-0.076,0.7318
1777289581.010298,R_Tibia,7.1012,9.867,-2.5026,47.3022,215.21,38.8184,94.1089,-7.3718,-10.7556,0.7314,0.0249,-0.1106,0.6725
1777289581.010298,R_Foot,0.7273,0.512,9.6182,6.0425,-3.479,1.709,3.0267,-5.5481,-86.4569,0.0524,-0.0172,-0.6848,0.7266
1777289581.010298,Trunk,-0.6604,6.7854,0.7608,5.9814,-17.6392,12.5122,84.5673,0.769,-27.1747,0.6528,0.1629,-0.1694,0.7202
1777289581.010298,L_Femur,1.8088,7.6563,-5.0914,-149.9634,-46.6309,-47.0581,82.8589,8.822,-9.4263,0.6528,0.1117,-0.0107,0.7492
1777289581.010298,L_Tibia,3.163,2.0528,-8.3357,-240.5396,7.8735,-48.4009,146.2885,-5.8942,-24.0106,0.938,0.1842,-0.1084,0.273
1777289581.010298,L_Foot,0.7321,3.2826,15.279,-401.4893,-5.6152,-3.2349,48.1531,-3.3838,-91.9336,0.3028,0.2744,-0.6645,0.6257
1777289581.010298,R_Femur,-1.2441,8.9674,-1.6413,159.4849,-117.6758,17.8223,85.199,-8.6353,-3.9221,0.6764,-0.0323,-0.076,0.7318
1777289581.010298,R_Tibia,7.1012,9.867,-2.5026,47.3022,215.21,38.8184,94.1089,-7.3718,-10.7556,0.7314,0.0249,-0.1106,0.6725
1777289581.010298,R_Foot,0.7273,0.512,9.6182,6.0425,-3.479,1.709,3.0267,-5.5481,-86.4569,0.0524,-0.0172,-0.6848,0.7266
1777289581.010298,Trunk,-0.6604,6.7854,0.7608,5.9814,-17.6392,12.5122,84.5673,0.769,-27.1747,0.6528,0.1629,-0.1694,0.7202
1777289581.010298,L_Femur,1.8088,7.6563,-5.0914,-149.9634,-46.6309,-47.0581,82.8589,8.822,-9.4263,0.6528,0.1117,-0.0107,0.7492
1777289581.010298,L_Tibia,3.163,2.0528,-8.3357,-240.5396,7.8735,-48.4009,146.2885,-5.8942,-24.0106,0.938,0.1842,-0.1084,0.273
1777289581.010298,L_Foot,0.7321,3.2826,15.279,-401.4893,-5.6152,-3.2349,48.1531,-3.3838,-91.9336,0.3028,0.2744,-0.6645,0.6257
1777289581.010298,R_Femur,1.7992,8.5032,-2.0672,163.269,-103.7598,20.5078,88.7805,-9.1736,-6.0809,0.6994,-0.0201,-0.0936,0.7083
1777289581.010298,R_Tibia,7.1012,9.867,-2.5026,47.3022,215.21,38.8184,94.1089,-7.3718,-10.7556,0.7314,0.0249,-0.1106,0.6725
1777289581.010298,R_Foot,0.7273,0.512,9.6182,6.0425,-3.479,1.709,3.0267,-5.5481,-86.4569,0.0524,-0.0172,-0.6848,0.7266
1777289581.0756783,Trunk,-1.1915,5.8762,1.0049,5.8594,-22.1558,11.5356,84.6277,0.5548,-27.4713,0.6531,0.1633,-0.1724,0.7191
1777289581.0756783,L_Femur,1.8088,7.6563,-5.0914,-149.9634,-46.6309,-47.0581,82.8589,8.822,-9.4263,0.6528,0.1117,-0.0107,0.7492
1777289581.0756783,L_Tibia,3.163,2.0528,-8.3357,-240.5396,7.8735,-48.4009,146.2885,-5.8942,-24.0106,0.938,0.1842,-0.1084,0.273
1777289581.0756783,L_Foot,0.7321,3.2826,15.279,-401.4893,-5.6152,-3.2349,48.1531,-3.3838,-91.9336,0.3028,0.2744,-0.6645,0.6257
1777289581.0756783,R_Femur,1.7992,8.5032,-2.0672,163.269,-103.7598,20.5078,88.7805,-9.1736,-6.0809,0.6994,-0.0201,-0.0936,0.7083
1777289581.0756783,R_Tibia,7.1012,9.867,-2.5026,47.3022,215.21,38.8184,94.1089,-7.3718,-10.7556,0.7314,0.0249,-0.1106,0.6725
1777289581.0756783,R_Foot,0.7273,0.512,9.6182,6.0425,-3.479,1.709,3.0267,-5.5481,-86.4569,0.0524,-0.0172,-0.6848,0.7266
1777289581.0756783,Trunk,-1.1915,5.8762,1.0049,5.8594,-22.1558,11.5356,84.6277,0.5548,-27.4713,0.6531,0.1633,-0.1724,0.7191
1777289581.0756783,L_Femur,1.2441,6.1394,-5.8618,-143.9819,-64.9414,-33.7524,80.5078,9.223,-10.437,0.6358,0.1197,-0.0175,0.7623
1777289581.0756783,L_Tibia,3.163,2.0528,-8.3357,-240.5396,7.8735,-48.4009,146.2885,-5.8942,-24.0106,0.938,0.1842,-0.1084,0.273
1777289581.0756783,L_Foot,0.7321,3.2826,15.279,-401.4893,-5.6152,-3.2349,48.1531,-3.3838,-91.9336,0.3028,0.2744,-0.6645,0.6257
1777289581.0756783,R_Femur,1.7992,8.5032,-2.0672,163.269,-103.7598,20.5078,88.7805,-9.1736,-6.0809,0.6994,-0.0201,-0.0936,0.7083
1777289581.0756783,R_Tibia,7.1012,9.867,-2.5026,47.3022,215.21,38.8184,94.1089,-7.3718,-10.7556,0.7314,0.0249,-0.1106,0.6725
1777289581.0756783,R_Foot,0.7273,0.512,9.6182,6.0425,-3.479,1.709,3.0267,-5.5481,-86.4569,0.0524,-0.0172,-0.6848,0.7266
1777289581.0756783,Trunk,-1.1915,5.8762,1.0049,5.8594,-22.1558,11.5356,84.6277,0.5548,-27.4713,0.6531,0.1633,-0.1724,0.7191
1777289581.0756783,L_Femur,1.2441,6.1394,-5.8618,-143.9819,-64.9414,-33.7524,80.5078,9.223,-10.437,0.6358,0.1197,-0.0175,0.7623
1777289581.0756783,L_Tibia,3.0769,2.5313,-5.7135,-281.8604,9.9487,-60.0586,140.7898,-5.3723,-22.9779,0.9253,0.172,-0.11,0.3197
1777289581.0756783,L_Foot,0.7321,3.2826,15.279,-401.4893,-5.6152,-3.2349,48.1531,-3.3838,-91.9336,0.3028,0.2744,-0.6645,0.6257
1777289581.0756783,R_Femur,1.7992,8.5032,-2.0672,163.269,-103.7598,20.5078,88.7805,-9.1736,-6.0809,0.6994,-0.0201,-0.0936,0.7083
1777289581.0756783,R_Tibia,7.1012,9.867,-2.5026,47.3022,215.21,38.8184,94.1089,-7.3718,-10.7556,0.7314,0.0249,-0.1106,0.6725
1777289581.0756783,R_Foot,0.7273,0.512,9.6182,6.0425,-3.479,1.709,3.0267,-5.5481,-86.4569,0.0524,-0.0172,-0.6848,0.7266
1777289581.0756783,Trunk,-1.1915,5.8762,1.0049,5.8594,-22.1558,11.5356,84.6277,0.5548,-27.4713,0.6531,0.1633,-0.1724,0.7191
1777289581.0756783,L_Femur,1.2441,6.1394,-5.8618,-143.9819,-64.9414,-33.7524,80.5078,9.223,-10.437,0.6358,0.1197,-0.0175,0.7623
1777289581.0756783,L_Tibia,3.0769,2.5313,-5.7135,-281.8604,9.9487,-60.0586,140.7898,-5.3723,-22.9779,0.9253,0.172,-0.11,0.3197
1777289581.0756783,L_Foot,1.6365,3.1104,8.1683,-398.9868,19.043,5.9204,42.1326,-3.2684,-91.7468,0.2693,0.2394,-0.6767,0.6421
1777289581.0756783,R_Femur,1.7992,8.5032,-2.0672,163.269,-103.7598,20.5078,88.7805,-9.1736,-6.0809,0.6994,-0.0201,-0.0936,0.7083
1777289581.0756783,R_Tibia,7.1012,9.867,-2.5026,47.3022,215.21,38.8184,94.1089,-7.3718,-10.7556,0.7314,0.0249,-0.1106,0.6725
1777289581.0756783,R_Foot,0.7273,0.512,9.6182,6.0425,-3.479,1.709,3.0267,-5.5481,-86.4569,0.0524,-0.0172,-0.6848,0.7266
1777289581.0756783,Trunk,-1.1915,5.8762,1.0049,5.8594,-22.1558,11.5356,84.6277,0.5548,-27.4713,0.6531,0.1633,-0.1724,0.7191
1777289581.0756783,L_Femur,1.2441,6.1394,-5.8618,-143.9819,-64.9414,-33.7524,80.5078,9.223,-10.437,0.6358,0.1197,-0.0175,0.7623
1777289581.0756783,L_Tibia,3.0769,2.5313,-5.7135,-281.8604,9.9487,-60.0586,140.7898,-5.3723,-22.9779,0.9253,0.172,-0.11,0.3197
1777289581.0756783,L_Foot,1.6365,3.1104,8.1683,-398.9868,19.043,5.9204,42.1326,-3.2684,-91.7468,0.2693,0.2394,-0.6767,0.6421
1777289581.0756783,R_Femur,2.1677,8.24,-1.804,162.7808,-105.4688,10.8032,91.4722,-9.3713,-7.674,0.716,-0.0091,-0.1049,0.6902
1777289581.0756783,R_Tibia,7.1012,9.867,-2.5026,47.3022,215.21,38.8184,94.1089,-7.3718,-10.7556,0.7314,0.0249,-0.1106,0.6725
1777289581.0756783,R_Foot,0.7273,0.512,9.6182,6.0425,-3.479,1.709,3.0267,-5.5481,-86.4569,0.0524,-0.0172,-0.6848,0.7266
1777289581.076757,Trunk,-1.1915,5.8762,1.0049,5.8594,-22.1558,11.5356,84.6277,0.5548,-27.4713,0.6531,0.1633,-0.1724,0.7191
1777289581.076757,L_Femur,1.2441,6.1394,-5.8618,-143.9819,-64.9414,-33.7524,80.5078,9.223,-10.437,0.6358,0.1197,-0.0175,0.7623
1777289581.076757,L_Tibia,3.0769,2.5313,-5.7135,-281.8604,9.9487,-60.0586,140.7898,-5.3723,-22.9779,0.9253,0.172,-0.11,0.3197
1777289581.076757,L_Foot,1.6365,3.1104,8.1683,-398.9868,19.043,5.9204,42.1326,-3.2684,-91.7468,0.2693,0.2394,-0.6767,0.6421
1777289581.076757,R_Femur,2.1677,8.24,-1.804,162.7808,-105.4688,10.8032,91.4722,-9.3713,-7.674,0.716,-0.0091,-0.1049,0.6902
1777289581.076757,R_Tibia,-9.8,9.6182,-1.9571,33.1421,-45.105,32.7759,95.0208,-8.4485,-8.6407,0.7371,0.0058,-0.1049,0.6676
1777289581.076757,R_Foot,0.7273,0.512,9.6182,6.0425,-3.479,1.709,3.0267,-5.5481,-86.4569,0.0524,-0.0172,-0.6848,0.7266
1777289581.076757,Trunk,-1.1915,5.8762,1.0049,5.8594,-22.1558,11.5356,84.6277,0.5548,-27.4713,0.6531,0.1633,-0.1724,0.7191
1777289581.076757,L_Femur,1.2441,6.1394,-5.8618,-143.9819,-64.9414,-33.7524,80.5078,9.223,-10.437,0.6358,0.1197,-0.0175,0.7623
1777289581.076757,L_Tibia,3.0769,2.5313,-5.7135,-281.8604,9.9487,-60.0586,140.7898,-5.3723,-22.9779,0.9253,0.172,-0.11,0.3197
1777289581.076757,L_Foot,1.6365,3.1104,8.1683,-398.9868,19.043,5.9204,42.1326,-3.2684,-91.7468,0.2693,0.2394,-0.6767,0.6421
1777289581.076757,R_Femur,2.1677,8.24,-1.804,162.7808,-105.4688,10.8032,91.4722,-9.3713,-7.674,0.716,-0.0091,-0.1049,0.6902
1777289581.076757,R_Tibia,-9.8,9.6182,-1.9571,33.1421,-45.105,32.7759,95.0208,-8.4485,-8.6407,0.7371,0.0058,-0.1049,0.6676
1777289581.076757,R_Foot,1.359,0.7943,10.111,1.0376,-2.8076,-0.2441,3.1256,-5.658,-86.4844,0.0536,-0.0173,-0.685,0.7264
1777289581.076757,Trunk,-1.0862,5.4024,1.1437,10.8032,-28.5034,8.0566,84.809,0.3186,-27.9932,0.6538,0.1651,-0.1768,0.7169
1777289581.076757,L_Femur,1.2441,6.1394,-5.8618,-143.9819,-64.9414,-33.7524,80.5078,9.223,-10.437,0.6358,0.1197,-0.0175,0.7623
1777289581.076757,L_Tibia,3.0769,2.5313,-5.7135,-281.8604,9.9487,-60.0586,140.7898,-5.3723,-22.9779,0.9253,0.172,-0.11,0.3197
1777289581.076757,L_Foot,1.6365,3.1104,8.1683,-398.9868,19.043,5.9204,42.1326,-3.2684,-91.7468,0.2693,0.2394,-0.6767,0.6421
1777289581.076757,R_Femur,2.1677,8.24,-1.804,162.7808,-105.4688,10.8032,91.4722,-9.3713,-7.674,0.716,-0.0091,-0.1049,0.6902
1777289581.076757,R_Tibia,-9.8,9.6182,-1.9571,33.1421,-45.105,32.7759,95.0208,-8.4485,-8.6407,0.7371,0.0058,-0.1049,0.6676
1777289581.076757,R_Foot,1.359,0.7943,10.111,1.0376,-2.8076,-0.2441,3.1256,-5.658,-86.4844,0.0536,-0.0173,-0.685,0.7264
1777289581.076757,Trunk,-1.0862,5.4024,1.1437,10.8032,-28.5034,8.0566,84.809,0.3186,-27.9932,0.6538,0.1651,-0.1768,0.7169
1777289581.076757,L_Femur,1.2441,6.1394,-5.8618,-143.9819,-64.9414,-33.7524,80.5078,9.223,-10.437,0.6358,0.1197,-0.0175,0.7623
1777289581.076757,L_Tibia,3.1056,3.0434,-4.8282,-318.0542,4.9438,-68.9697,136.0437,-4.7681,-22.1649,0.9122,0.1628,-0.1097,0.3595
1777289581.076757,L_Foot,1.6365,3.1104,8.1683,-398.9868,19.043,5.9204,42.1326,-3.2684,-91.7468,0.2693,0.2394,-0.6767,0.6421
1777289581.076757,R_Femur,2.1677,8.24,-1.804,162.7808,-105.4688,10.8032,91.4722,-9.3713,-7.674,0.716,-0.0091,-0.1049,0.6902
1777289581.076757,R_Tibia,-9.8,9.6182,-1.9571,33.1421,-45.105,32.7759,95.0208,-8.4485,-8.6407,0.7371,0.0058,-0.1049,0.6676
1777289581.076757,R_Foot,1.359,0.7943,10.111,1.0376,-2.8076,-0.2441,3.1256,-5.658,-86.4844,0.0536,-0.0173,-0.685,0.7264
1777289581.076757,Trunk,-1.0862,5.4024,1.1437,10.8032,-28.5034,8.0566,84.809,0.3186,-27.9932,0.6538,0.1651,-0.1768,0.7169
1777289581.076757,L_Femur,1.2441,6.1394,-5.8618,-143.9819,-64.9414,-33.7524,80.5078,9.223,-10.437,0.6358,0.1197,-0.0175,0.7623
1777289581.076757,L_Tibia,3.1056,3.0434,-4.8282,-318.0542,4.9438,-68.9697,136.0437,-4.7681,-22.1649,0.9122,0.1628,-0.1097,0.3595
1777289581.076757,L_Foot,1.1054,3.2539,5.2302,-373.5962,45.3491,12.6343,36.4252,-2.9114,-91.2579,0.2357,0.2065,-0.6843,0.6584
1777289581.076757,R_Femur,2.1677,8.24,-1.804,162.7808,-105.4688,10.8032,91.4722,-9.3713,-7.674,0.716,-0.0091,-0.1049,0.6902
1777289581.076757,R_Tibia,-9.8,9.6182,-1.9571,33.1421,-45.105,32.7759,95.0208,-8.4485,-8.6407,0.7371,0.0058,-0.1049,0.6676
1777289581.076757,R_Foot,1.359,0.7943,10.111,1.0376,-2.8076,-0.2441,3.1256,-5.658,-86.4844,0.0536,-0.0173,-0.685,0.7264
1777289581.0777576,Trunk,-1.0862,5.4024,1.1437,10.8032,-28.5034,8.0566,84.809,0.3186,-27.9932,0.6538,0.1651,-0.1768,0.7169
1777289581.0777576,L_Femur,1.2441,6.1394,-5.8618,-143.9819,-64.9414,-33.7524,80.5078,9.223,-10.437,0.6358,0.1197,-0.0175,0.7623
1777289581.0777576,L_Tibia,3.1056,3.0434,-4.8282,-318.0542,4.9438,-68.9697,136.0437,-4.7681,-22.1649,0.9122,0.1628,-0.1097,0.3595
1777289581.0777576,L_Foot,1.1054,3.2539,5.2302,-373.5962,45.3491,12.6343,36.4252,-2.9114,-91.2579,0.2357,0.2065,-0.6843,0.6584
1777289581.0777576,R_Femur,1.7035,9.5129,-1.2776,153.4424,-112.4878,1.4648,94.0759,-9.3494,-9.3494,0.7315,0.0041,-0.1148,0.6721
1777289581.0777576,R_Tibia,-9.8,9.6182,-1.9571,33.1421,-45.105,32.7759,95.0208,-8.4485,-8.6407,0.7371,0.0058,-0.1049,0.6676
1777289581.0777576,R_Foot,1.359,0.7943,10.111,1.0376,-2.8076,-0.2441,3.1256,-5.658,-86.4844,0.0536,-0.0173,-0.685,0.7264
1777289581.0777576,Trunk,-0.7226,5.5125,1.2633,12.3901,-35.4004,7.8735,84.9738,0.1483,-28.4875,0.6544,0.1671,-0.1806,0.715
1777289581.0777576,L_Femur,1.2441,6.1394,-5.8618,-143.9819,-64.9414,-33.7524,80.5078,9.223,-10.437,0.6358,0.1197,-0.0175,0.7623
1777289581.0777576,L_Tibia,3.1056,3.0434,-4.8282,-318.0542,4.9438,-68.9697,136.0437,-4.7681,-22.1649,0.9122,0.1628,-0.1097,0.3595
1777289581.0777576,L_Foot,1.1054,3.2539,5.2302,-373.5962,45.3491,12.6343,36.4252,-2.9114,-91.2579,0.2357,0.2065,-0.6843,0.6584
1777289581.0777576,R_Femur,1.7035,9.5129,-1.2776,153.4424,-112.4878,1.4648,94.0759,-9.3494,-9.3494,0.7315,0.0041,-0.1148,0.6721
1777289581.0777576,R_Tibia,-9.8,9.6182,-1.9571,33.1421,-45.105,32.7759,95.0208,-8.4485,-8.6407,0.7371,0.0058,-0.1049,0.6676
1777289581.0777576,R_Foot,1.359,0.7943,10.111,1.0376,-2.8076,-0.2441,3.1256,-5.658,-86.4844,0.0536,-0.0173,-0.685,0.7264
1777289581.0777576,Trunk,-0.7226,5.5125,1.2633,12.3901,-35.4004,7.8735,84.9738,0.1483,-28.4875,0.6544,0.1671,-0.1806,0.715
1777289581.0777576,L_Femur,1.1867,3.4597,-3.7994,-96.1914,-56.7017,-8.1787,76.1133,9.4043,-12.6508,0.6035,0.1318,-0.0362,0.7855
1777289581.0777576,L_Tibia,3.1056,3.0434,-4.8282,-318.0542,4.9438,-68.9697,136.0437,-4.7681,-22.1649,0.9122,0.1628,-0.1097,0.3595
1777289581.0777576,L_Foot,1.1054,3.2539,5.2302,-373.5962,45.3491,12.6343,36.4252,-2.9114,-91.2579,0.2357,0.2065,-0.6843,0.6584
1777289581.0777576,R_Femur,1.7035,9.5129,-1.2776,153.4424,-112.4878,1.4648,94.0759,-9.3494,-9.3494,0.7315,0.0041,-0.1148,0.6721
1777289581.0777576,R_Tibia,-9.8,9.6182,-1.9571,33.1421,-45.105,32.7759,95.0208,-8.4485,-8.6407,0.7371,0.0058,-0.1049,0.6676
1777289581.0777576,R_Foot,1.359,0.7943,10.111,1.0376,-2.8076,-0.2441,3.1256,-5.658,-86.4844,0.0536,-0.0173,-0.685,0.7264
1777289581.0777576,Trunk,-0.7226,5.5125,1.2633,12.3901,-35.4004,7.8735,84.9738,0.1483,-28.4875,0.6544,0.1671,-0.1806,0.715
1777289581.0777576,L_Femur,1.1867,3.4597,-3.7994,-96.1914,-56.7017,-8.1787,76.1133,9.4043,-12.6508,0.6035,0.1318,-0.0362,0.7855
1777289581.0777576,L_Tibia,2.7419,3.1773,-5.613,-352.7832,3.1128,-76.1108,130.8032,-3.9825,-21.3464,0.8957,0.1541,-0.1081,0.403
1777289581.0777576,L_Foot,1.1054,3.2539,5.2302,-373.5962,45.3491,12.6343,36.4252,-2.9114,-91.2579,0.2357,0.2065,-0.6843,0.6584
1777289581.0777576,R_Femur,1.7035,9.5129,-1.2776,153.4424,-112.4878,1.4648,94.0759,-9.3494,-9.3494,0.7315,0.0041,-0.1148,0.6721
1777289581.0777576,R_Tibia,-9.8,9.6182,-1.9571,33.1421,-45.105,32.7759,95.0208,-8.4485,-8.6407,0.7371,0.0058,-0.1049,0.6676
1777289581.0777576,R_Foot,1.359,0.7943,10.111,1.0376,-2.8076,-0.2441,3.1256,-5.658,-86.4844,0.0536,-0.0173,-0.685,0.7264
1777289581.0777576,Trunk,-0.7226,5.5125,1.2633,12.3901,-35.4004,7.8735,84.9738,0.1483,-28.4875,0.6544,0.1671,-0.1806,0.715
1777289581.0777576,L_Femur,1.1867,3.4597,-3.7994,-96.1914,-56.7017,-8.1787,76.1133,9.4043,-12.6508,0.6035,0.1318,-0.0362,0.7855
1777289581.0777576,L_Tibia,2.7419,3.1773,-5.613,-352.7832,3.1128,-76.1108,130.8032,-3.9825,-21.3464,0.8957,0.1541,-0.1081,0.403
1777289581.0777576,L_Foot,-0.2871,4.4693,8.4362,-345.52,81.604,9.2163,29.361,-1.8292,-90.3461,0.1896,0.1688,-0.6888,0.679
1777289581.0777576,R_Femur,1.7035,9.5129,-1.2776,153.4424,-112.4878,1.4648,94.0759,-9.3494,-9.3494,0.7315,0.0041,-0.1148,0.6721
1777289581.0777576,R_Tibia,-9.8,9.6182,-1.9571,33.1421,-45.105,32.7759,95.0208,-8.4485,-8.6407,0.7371,0.0058,-0.1049,0.6676
1777289581.0777576,R_Foot,1.359,0.7943,10.111,1.0376,-2.8076,-0.2441,3.1256,-5.658,-86.4844,0.0536,-0.0173,-0.685,0.7264
1777289581.0787559,Trunk,-0.7226,5.5125,1.2633,12.3901,-35.4004,7.8735,84.9738,0.1483,-28.4875,0.6544,0.1671,-0.1806,0.715
1777289581.0787559,L_Femur,1.1867,3.4597,-3.7994,-96.1914,-56.7017,-8.1787,76.1133,9.4043,-12.6508,0.6035,0.1318,-0.0362,0.7855
1777289581.0787559,L_Tibia,2.7419,3.1773,-5.613,-352.7832,3.1128,-76.1108,130.8032,-3.9825,-21.3464,0.8957,0.1541,-0.1081,0.403
1777289581.0787559,L_Foot,-0.2871,4.4693,8.4362,-345.52,81.604,9.2163,29.361,-1.8292,-90.3461,0.1896,0.1688,-0.6888,0.679
1777289581.0787559,R_Femur,1.67,9.6756,-0.1866,130.9204,-119.5068,-5.9204,97.1796,-9.0308,-11.7169,0.7491,0.0245,-0.126,0.6499
1777289581.0787559,R_Tibia,-9.8,9.6182,-1.9571,33.1421,-45.105,32.7759,95.0208,-8.4485,-8.6407,0.7371,0.0058,-0.1049,0.6676
1777289581.0787559,R_Foot,1.359,0.7943,10.111,1.0376,-2.8076,-0.2441,3.1256,-5.658,-86.4844,0.0536,-0.0173,-0.685,0.7264
1777289581.0787559,Trunk,-0.7226,5.5125,1.2633,12.3901,-35.4004,7.8735,84.9738,0.1483,-28.4875,0.6544,0.1671,-0.1806,0.715
1777289581.0787559,L_Femur,1.1867,3.4597,-3.7994,-96.1914,-56.7017,-8.1787,76.1133,9.4043,-12.6508,0.6035,0.1318,-0.0362,0.7855
1777289581.0787559,L_Tibia,2.7419,3.1773,-5.613,-352.7832,3.1128,-76.1108,130.8032,-3.9825,-21.3464,0.8957,0.1541,-0.1081,0.403
1777289581.0787559,L_Foot,-0.2871,4.4693,8.4362,-345.52,81.604,9.2163,29.361,-1.8292,-90.3461,0.1896,0.1688,-0.6888,0.679
1777289581.0787559,R_Femur,1.67,9.6756,-0.1866,130.9204,-119.5068,-5.9204,97.1796,-9.0308,-11.7169,0.7491,0.0245,-0.126,0.6499
1777289581.0787559,R_Tibia,2.8137,9.532,0.6843,32.7148,-155.7007,31.0059,97.0148,-9.0637,-14.1119,0.7475,0.0398,-0.1399,0.6482
1777289581.0787559,R_Foot,1.359,0.7943,10.111,1.0376,-2.8076,-0.2441,3.1256,-5.658,-86.4844,0.0536,-0.0173,-0.685,0.7264
1777289581.0787559,Trunk,-0.7226,5.5125,1.2633,12.3901,-35.4004,7.8735,84.9738,0.1483,-28.4875,0.6544,0.1671,-0.1806,0.715
1777289581.0787559,L_Femur,1.1867,3.4597,-3.7994,-96.1914,-56.7017,-8.1787,76.1133,9.4043,-12.6508,0.6035,0.1318,-0.0362,0.7855
1777289581.0787559,L_Tibia,2.7419,3.1773,-5.613,-352.7832,3.1128,-76.1108,130.8032,-3.9825,-21.3464,0.8957,0.1541,-0.1081,0.403
1777289581.0787559,L_Foot,-0.2871,4.4693,8.4362,-345.52,81.604,9.2163,29.361,-1.8292,-90.3461,0.1896,0.1688,-0.6888,0.679
1777289581.0787559,R_Femur,1.67,9.6756,-0.1866,130.9204,-119.5068,-5.9204,97.1796,-9.0308,-11.7169,0.7491,0.0245,-0.126,0.6499
1777289581.0787559,R_Tibia,2.8137,9.532,0.6843,32.7148,-155.7007,31.0059,97.0148,-9.0637,-14.1119,0.7475,0.0398,-0.1399,0.6482
1777289581.0787559,R_Foot,0.6843,0.6077,9.8957,11.1084,-4.1504,-4.0894,3.4552,-5.7733,-86.5833,0.0564,-0.016,-0.6856,0.7256
1777289581.0787559,Trunk,0.2967,5.9288,1.6174,9.1553,-38.6353,7.1411,85.166,-0.0714,-29.2401,0.6549,0.1703,-0.1863,0.7124
1777289581.0787559,L_Femur,1.1867,3.4597,-3.7994,-96.1914,-56.7017,-8.1787,76.1133,9.4043,-12.6508,0.6035,0.1318,-0.0362,0.7855
1777289581.0787559,L_Tibia,2.7419,3.1773,-5.613,-352.7832,3.1128,-76.1108,130.8032,-3.9825,-21.3464,0.8957,0.1541,-0.1081,0.403
1777289581.0787559,L_Foot,-0.2871,4.4693,8.4362,-345.52,81.604,9.2163,29.361,-1.8292,-90.3461,0.1896,0.1688,-0.6888,0.679
1777289581.0787559,R_Femur,1.67,9.6756,-0.1866,130.9204,-119.5068,-5.9204,97.1796,-9.0308,-11.7169,0.7491,0.0245,-0.126,0.6499
1777289581.0787559,R_Tibia,2.8137,9.532,0.6843,32.7148,-155.7007,31.0059,97.0148,-9.0637,-14.1119,0.7475,0.0398,-0.1399,0.6482
1777289581.0787559,R_Foot,0.6843,0.6077,9.8957,11.1084,-4.1504,-4.0894,3.4552,-5.7733,-86.5833,0.0564,-0.016,-0.6856,0.7256
1777289581.0787559,Trunk,0.2967,5.9288,1.6174,9.1553,-38.6353,7.1411,85.166,-0.0714,-29.2401,0.6549,0.1703,-0.1863,0.7124
1777289581.0787559,L_Femur,1.1102,2.8472,-3.6702,-77.7588,-61.7676,1.8311,74.7455,9.1736,-13.5352,0.5933,0.1344,-0.0451,0.7924
1777289581.0787559,L_Tibia,2.7419,3.1773,-5.613,-352.7832,3.1128,-76.1108,130.8032,-3.9825,-21.3464,0.8957,0.1541,-0.1081,0.403
1777289581.0787559,L_Foot,-0.2871,4.4693,8.4362,-345.52,81.604,9.2163,29.361,-1.8292,-90.3461,0.1896,0.1688,-0.6888,0.679
1777289581.0787559,R_Femur,1.67,9.6756,-0.1866,130.9204,-119.5068,-5.9204,97.1796,-9.0308,-11.7169,0.7491,0.0245,-0.126,0.6499
1777289581.0787559,R_Tibia,2.8137,9.532,0.6843,32.7148,-155.7007,31.0059,97.0148,-9.0637,-14.1119,0.7475,0.0398,-0.1399,0.6482
1777289581.0787559,R_Foot,0.6843,0.6077,9.8957,11.1084,-4.1504,-4.0894,3.4552,-5.7733,-86.5833,0.0564,-0.016,-0.6856,0.7256
1777289581.0787559,Trunk,0.2967,5.9288,1.6174,9.1553,-38.6353,7.1411,85.166,-0.0714,-29.2401,0.6549,0.1703,-0.1863,0.7124
1777289581.0787559,L_Femur,1.1102,2.8472,-3.6702,-77.7588,-61.7676,1.8311,74.7455,9.1736,-13.5352,0.5933,0.1344,-0.0451,0.7924
1777289581.0787559,L_Tibia,2.584,2.9907,-7.082,-370.1782,2.3193,-85.8765,123.4094,-2.7026,-20.2753,0.8685,0.1439,-0.1039,0.4628
1777289581.0787559,L_Foot,-0.2871,4.4693,8.4362,-345.52,81.604,9.2163,29.361,-1.8292,-90.3461,0.1896,0.1688,-0.6888,0.679
1777289581.0787559,R_Femur,1.67,9.6756,-0.1866,130.9204,-119.5068,-5.9204,97.1796,-9.0308,-11.7169,0.7491,0.0245,-0.126,0.6499
1777289581.0787559,R_Tibia,2.8137,9.532,0.6843,32.7148,-155.7007,31.0059,97.0148,-9.0637,-14.1119,0.7475,0.0398,-0.1399,0.6482
1777289581.0787559,R_Foot,0.6843,0.6077,9.8957,11.1084,-4.1504,-4.0894,3.4552,-5.7733,-86.5833,0.0564,-0.016,-0.6856,0.7256
1777289581.0797575,Trunk,0.2967,5.9288,1.6174,9.1553,-38.6353,7.1411,85.166,-0.0714,-29.2401,0.6549,0.1703,-0.1863,0.7124
1777289581.0797575,L_Femur,1.1102,2.8472,-3.6702,-77.7588,-61.7676,1.8311,74.7455,9.1736,-13.5352,0.5933,0.1344,-0.0451,0.7924
1777289581.0797575,L_Tibia,2.584,2.9907,-7.082,-370.1782,2.3193,-85.8765,123.4094,-2.7026,-20.2753,0.8685,0.1439,-0.1039,0.4628
1777289581.0797575,L_Foot,-0.9857,5.8475,14.6569,-346.9849,108.3984,4.1504,24.1534,-0.434,-89.5825,0.1511,0.1448,-0.6895,0.6934
1777289581.0797575,R_Femur,1.67,9.6756,-0.1866,130.9204,-119.5068,-5.9204,97.1796,-9.0308,-11.7169,0.7491,0.0245,-0.126,0.6499
1777289581.0797575,R_Tibia,2.8137,9.532,0.6843,32.7148,-155.7007,31.0059,97.0148,-9.0637,-14.1119,0.7475,0.0398,-0.1399,0.6482
1777289581.0797575,R_Foot,0.6843,0.6077,9.8957,11.1084,-4.1504,-4.0894,3.4552,-5.7733,-86.5833,0.0564,-0.016,-0.6856,0.7256
1777289581.0797575,Trunk,0.2967,5.9288,1.6174,9.1553,-38.6353,7.1411,85.166,-0.0714,-29.2401,0.6549,0.1703,-0.1863,0.7124
1777289581.0797575,L_Femur,1.1102,2.8472,-3.6702,-77.7588,-61.7676,1.8311,74.7455,9.1736,-13.5352,0.5933,0.1344,-0.0451,0.7924
1777289581.0797575,L_Tibia,2.584,2.9907,-7.082,-370.1782,2.3193,-85.8765,123.4094,-2.7026,-20.2753,0.8685,0.1439,-0.1039,0.4628
1777289581.0797575,L_Foot,-0.9857,5.8475,14.6569,-346.9849,108.3984,4.1504,24.1534,-0.434,-89.5825,0.1511,0.1448,-0.6895,0.6934
1777289581.0797575,R_Femur,2.3878,8.5176,-0.1196,128.418,-119.3237,-7.2632,99.3658,-8.6792,-13.4912,0.7608,0.0407,-0.1331,0.6339
1777289581.0797575,R_Tibia,2.8137,9.532,0.6843,32.7148,-155.7007,31.0059,97.0148,-9.0637,-14.1119,0.7475,0.0398,-0.1399,0.6482
1777289581.0797575,R_Foot,0.6843,0.6077,9.8957,11.1084,-4.1504,-4.0894,3.4552,-5.7733,-86.5833,0.0564,-0.016,-0.6856,0.7256
1777289581.1549513,Trunk,1.1771,5.9862,1.6987,6.8359,-33.9966,3.6621,85.2649,-0.1868,-29.762,0.6549,0.1728,-0.19,0.7108
1777289581.1549513,L_Femur,1.1102,2.8472,-3.6702,-77.7588,-61.7676,1.8311,74.7455,9.1736,-13.5352,0.5933,0.1344,-0.0451,0.7924
1777289581.1549513,L_Tibia,2.584,2.9907,-7.082,-370.1782,2.3193,-85.8765,123.4094,-2.7026,-20.2753,0.8685,0.1439,-0.1039,0.4628
1777289581.1549513,L_Foot,-0.9857,5.8475,14.6569,-346.9849,108.3984,4.1504,24.1534,-0.434,-89.5825,0.1511,0.1448,-0.6895,0.6934
1777289581.1549513,R_Femur,2.3878,8.5176,-0.1196,128.418,-119.3237,-7.2632,99.3658,-8.6792,-13.4912,0.7608,0.0407,-0.1331,0.6339
1777289581.1549513,R_Tibia,2.8137,9.532,0.6843,32.7148,-155.7007,31.0059,97.0148,-9.0637,-14.1119,0.7475,0.0398,-0.1399,0.6482
1777289581.1549513,R_Foot,0.6843,0.6077,9.8957,11.1084,-4.1504,-4.0894,3.4552,-5.7733,-86.5833,0.0564,-0.016,-0.6856,0.7256
1777289581.1549513,Trunk,1.1771,5.9862,1.6987,6.8359,-33.9966,3.6621,85.2649,-0.1868,-29.762,0.6549,0.1728,-0.19,0.7108
1777289581.1549513,L_Femur,0.9044,2.206,-3.9525,-64.6362,-65.8569,12.8784,73.5974,8.7506,-14.4415,0.5848,0.1357,-0.055,0.7978
1777289581.1549513,L_Tibia,2.584,2.9907,-7.082,-370.1782,2.3193,-85.8765,123.4094,-2.7026,-20.2753,0.8685,0.1439,-0.1039,0.4628
1777289581.1549513,L_Foot,-0.9857,5.8475,14.6569,-346.9849,108.3984,4.1504,24.1534,-0.434,-89.5825,0.1511,0.1448,-0.6895,0.6934
1777289581.1549513,R_Femur,2.3878,8.5176,-0.1196,128.418,-119.3237,-7.2632,99.3658,-8.6792,-13.4912,0.7608,0.0407,-0.1331,0.6339
1777289581.1549513,R_Tibia,2.8137,9.532,0.6843,32.7148,-155.7007,31.0059,97.0148,-9.0637,-14.1119,0.7475,0.0398,-0.1399,0.6482
1777289581.1549513,R_Foot,0.6843,0.6077,9.8957,11.1084,-4.1504,-4.0894,3.4552,-5.7733,-86.5833,0.0564,-0.016,-0.6856,0.7256
1777289581.1561313,Trunk,1.1771,5.9862,1.6987,6.8359,-33.9966,3.6621,85.2649,-0.1868,-29.762,0.6549,0.1728,-0.19,0.7108
1777289581.1561313,L_Femur,0.9044,2.206,-3.9525,-64.6362,-65.8569,12.8784,73.5974,8.7506,-14.4415,0.5848,0.1357,-0.055,0.7978
1777289581.1561313,L_Tibia,2.1964,5.2924,-8.8478,-385.8032,-15.564,-96.8628,117.6581,-1.3898,-19.6985,0.844,0.1402,-0.0988,0.5082
1777289581.1561313,L_Foot,-0.9857,5.8475,14.6569,-346.9849,108.3984,4.1504,24.1534,-0.434,-89.5825,0.1511,0.1448,-0.6895,0.6934
1777289581.1561313,R_Femur,2.3878,8.5176,-0.1196,128.418,-119.3237,-7.2632,99.3658,-8.6792,-13.4912,0.7608,0.0407,-0.1331,0.6339
1777289581.1561313,R_Tibia,2.8137,9.532,0.6843,32.7148,-155.7007,31.0059,97.0148,-9.0637,-14.1119,0.7475,0.0398,-0.1399,0.6482
1777289581.1561313,R_Foot,0.6843,0.6077,9.8957,11.1084,-4.1504,-4.0894,3.4552,-5.7733,-86.5833,0.0564,-0.016,-0.6856,0.7256
1777289581.1561313,Trunk,1.1771,5.9862,1.6987,6.8359,-33.9966,3.6621,85.2649,-0.1868,-29.762,0.6549,0.1728,-0.19,0.7108
1777289581.1561313,L_Femur,0.9044,2.206,-3.9525,-64.6362,-65.8569,12.8784,73.5974,8.7506,-14.4415,0.5848,0.1357,-0.055,0.7978
1777289581.1561313,L_Tibia,2.1964,5.2924,-8.8478,-385.8032,-15.564,-96.8628,117.6581,-1.3898,-19.6985,0.844,0.1402,-0.0988,0.5082
1777289581.1561313,L_Foot,-1.1102,6.3212,15.1642,-339.5386,169.0063,-12.9395,17.2925,2.4829,-88.6542,0.0926,0.1203,-0.6883,0.7093
1777289581.1561313,R_Femur,2.3878,8.5176,-0.1196,128.418,-119.3237,-7.2632,99.3658,-8.6792,-13.4912,0.7608,0.0407,-0.1331,0.6339
1777289581.1561313,R_Tibia,2.8137,9.532,0.6843,32.7148,-155.7007,31.0059,97.0148,-9.0637,-14.1119,0.7475,0.0398,-0.1399,0.6482
1777289581.1561313,R_Foot,0.6843,0.6077,9.8957,11.1084,-4.1504,-4.0894,3.4552,-5.7733,-86.5833,0.0564,-0.016,-0.6856,0.7256
1777289581.156544,Trunk,1.1771,5.9862,1.6987,6.8359,-33.9966,3.6621,85.2649,-0.1868,-29.762,0.6549,0.1728,-0.19,0.7108
1777289581.156544,L_Femur,0.9044,2.206,-3.9525,-64.6362,-65.8569,12.8784,73.5974,8.7506,-14.4415,0.5848,0.1357,-0.055,0.7978
1777289581.156544,L_Tibia,2.1964,5.2924,-8.8478,-385.8032,-15.564,-96.8628,117.6581,-1.3898,-19.6985,0.844,0.1402,-0.0988,0.5082
1777289581.156544,L_Foot,-1.1102,6.3212,15.1642,-339.5386,169.0063,-12.9395,17.2925,2.4829,-88.6542,0.0926,0.1203,-0.6883,0.7093
1777289581.156544,R_Femur,2.3591,8.5989,-0.4833,129.6387,-117.6147,-9.3384,101.5631,-8.2288,-15.2216,0.7719,0.0574,-0.1386,0.6177
1777289581.156544,R_Tibia,2.8137,9.532,0.6843,32.7148,-155.7007,31.0059,97.0148,-9.0637,-14.1119,0.7475,0.0398,-0.1399,0.6482
1777289581.156544,R_Foot,0.6843,0.6077,9.8957,11.1084,-4.1504,-4.0894,3.4552,-5.7733,-86.5833,0.0564,-0.016,-0.6856,0.7256
1777289581.156544,Trunk,1.1771,5.9862,1.6987,6.8359,-33.9966,3.6621,85.2649,-0.1868,-29.762,0.6549,0.1728,-0.19,0.7108
1777289581.156544,L_Femur,0.9044,2.206,-3.9525,-64.6362,-65.8569,12.8784,73.5974,8.7506,-14.4415,0.5848,0.1357,-0.055,0.7978
1777289581.156544,L_Tibia,2.1964,5.2924,-8.8478,-385.8032,-15.564,-96.8628,117.6581,-1.3898,-19.6985,0.844,0.1402,-0.0988,0.5082
1777289581.156544,L_Foot,-1.1102,6.3212,15.1642,-339.5386,169.0063,-12.9395,17.2925,2.4829,-88.6542,0.0926,0.1203,-0.6883,0.7093
1777289581.156544,R_Femur,2.3591,8.5989,-0.4833,129.6387,-117.6147,-9.3384,101.5631,-8.2288,-15.2216,0.7719,0.0574,-0.1386,0.6177
1777289581.156544,R_Tibia,4.5603,8.886,0.7848,48.3398,23.6816,32.3486,98.7231,-9.8108,-15.7379,0.7566,0.0483,-0.1531,0.6339
1777289581.156544,R_Foot,0.6843,0.6077,9.8957,11.1084,-4.1504,-4.0894,3.4552,-5.7733,-86.5833,0.0564,-0.016,-0.6856,0.7256
1777289581.156544,Trunk,1.1771,5.9862,1.6987,6.8359,-33.9966,3.6621,85.2649,-0.1868,-29.762,0.6549,0.1728,-0.19,0.7108
1777289581.156544,L_Femur,0.9044,2.206,-3.9525,-64.6362,-65.8569,12.8784,73.5974,8.7506,-14.4415,0.5848,0.1357,-0.055,0.7978
1777289581.156544,L_Tibia,2.1964,5.2924,-8.8478,-385.8032,-15.564,-96.8628,117.6581,-1.3898,-19.6985,0.844,0.1402,-0.0988,0.5082
1777289581.156544,L_Foot,-1.1102,6.3212,15.1642,-339.5386,169.0063,-12.9395,17.2925,2.4829,-88.6542,0.0926,0.1203,-0.6883,0.7093
1777289581.156544,R_Femur,2.3591,8.5989,-0.4833,129.6387,-117.6147,-9.3384,101.5631,-8.2288,-15.2216,0.7719,0.0574,-0.1386,0.6177
1777289581.156544,R_Tibia,4.5603,8.886,0.7848,48.3398,23.6816,32.3486,98.7231,-9.8108,-15.7379,0.7566,0.0483,-0.1531,0.6339
1777289581.156544,R_Foot,0.9379,0.402,9.288,12.6343,-3.7842,-6.1035,3.7793,-5.8832,-86.7206,0.0592,-0.0147,-0.6865,0.7245
1777289581.156544,Trunk,1.7705,5.8857,1.5504,6.958,-28.1982,0.8545,85.3528,-0.2582,-30.2014,0.6549,0.175,-0.193,0.7094
1777289581.156544,L_Femur,0.9044,2.206,-3.9525,-64.6362,-65.8569,12.8784,73.5974,8.7506,-14.4415,0.5848,0.1357,-0.055,0.7978
1777289581.156544,L_Tibia,2.1964,5.2924,-8.8478,-385.8032,-15.564,-96.8628,117.6581,-1.3898,-19.6985,0.844,0.1402,-0.0988,0.5082
1777289581.156544,L_Foot,-1.1102,6.3212,15.1642,-339.5386,169.0063,-12.9395,17.2925,2.4829,-88.6542,0.0926,0.1203,-0.6883,0.7093
1777289581.156544,R_Femur,2.3591,8.5989,-0.4833,129.6387,-117.6147,-9.3384,101.5631,-8.2288,-15.2216,0.7719,0.0574,-0.1386,0.6177
1777289581.156544,R_Tibia,4.5603,8.886,0.7848,48.3398,23.6816,32.3486,98.7231,-9.8108,-15.7379,0.7566,0.0483,-0.1531,0.6339
1777289581.156544,R_Foot,0.9379,0.402,9.288,12.6343,-3.7842,-6.1035,3.7793,-5.8832,-86.7206,0.0592,-0.0147,-0.6865,0.7245
1777289581.156544,Trunk,1.7705,5.8857,1.5504,6.958,-28.1982,0.8545,85.3528,-0.2582,-30.2014,0.6549,0.175,-0.193,0.7094
1777289581.156544,L_Femur,1.3111,1.6892,-4.2731,-50.415,-53.4058,24.231,72.356,7.9926,-15.4413,0.576,0.1349,-0.0674,0.8035
1777289581.156544,L_Tibia,2.1964,5.2924,-8.8478,-385.8032,-15.564,-96.8628,117.6581,-1.3898,-19.6985,0.844,0.1402,-0.0988,0.5082
1777289581.156544,L_Foot,-1.1102,6.3212,15.1642,-339.5386,169.0063,-12.9395,17.2925,2.4829,-88.6542,0.0926,0.1203,-0.6883,0.7093
1777289581.156544,R_Femur,2.3591,8.5989,-0.4833,129.6387,-117.6147,-9.3384,101.5631,-8.2288,-15.2216,0.7719,0.0574,-0.1386,0.6177
1777289581.156544,R_Tibia,4.5603,8.886,0.7848,48.3398,23.6816,32.3486,98.7231,-9.8108,-15.7379,0.7566,0.0483,-0.1531,0.6339
1777289581.156544,R_Foot,0.9379,0.402,9.288,12.6343,-3.7842,-6.1035,3.7793,-5.8832,-86.7206,0.0592,-0.0147,-0.6865,0.7245
1777289581.1575696,Trunk,1.7705,5.8857,1.5504,6.958,-28.1982,0.8545,85.3528,-0.2582,-30.2014,0.6549,0.175,-0.193,0.7094
1777289581.1575696,L_Femur,1.3111,1.6892,-4.2731,-50.415,-53.4058,24.231,72.356,7.9926,-15.4413,0.576,0.1349,-0.0674,0.8035
1777289581.1575696,L_Tibia,1.5743,7.1777,-9.02,-401.123,-21.1182,-97.5952,111.687,0.0714,-19.3634,0.8157,0.1395,-0.0939,0.5535
1777289581.1575696,L_Foot,-1.1102,6.3212,15.1642,-339.5386,169.0063,-12.9395,17.2925,2.4829,-88.6542,0.0926,0.1203,-0.6883,0.7093
1777289581.1575696,R_Femur,2.3591,8.5989,-0.4833,129.6387,-117.6147,-9.3384,101.5631,-8.2288,-15.2216,0.7719,0.0574,-0.1386,0.6177
1777289581.1575696,R_Tibia,4.5603,8.886,0.7848,48.3398,23.6816,32.3486,98.7231,-9.8108,-15.7379,0.7566,0.0483,-0.1531,0.6339
1777289581.1575696,R_Foot,0.9379,0.402,9.288,12.6343,-3.7842,-6.1035,3.7793,-5.8832,-86.7206,0.0592,-0.0147,-0.6865,0.7245
1777289581.1575696,Trunk,1.7705,5.8857,1.5504,6.958,-28.1982,0.8545,85.3528,-0.2582,-30.2014,0.6549,0.175,-0.193,0.7094
1777289581.1575696,L_Femur,1.3111,1.6892,-4.2731,-50.415,-53.4058,24.231,72.356,7.9926,-15.4413,0.576,0.1349,-0.0674,0.8035
1777289581.1575696,L_Tibia,1.5743,7.1777,-9.02,-401.123,-21.1182,-97.5952,111.687,0.0714,-19.3634,0.8157,0.1395,-0.0939,0.5535
1777289581.1575696,L_Foot,-3.6367,8.1635,16.3557,-322.1436,168.1519,-41.5649,12.431,5.0812,-88.5278,0.0467,0.1071,-0.6897,0.7146
1777289581.1575696,R_Femur,2.3591,8.5989,-0.4833,129.6387,-117.6147,-9.3384,101.5631,-8.2288,-15.2216,0.7719,0.0574,-0.1386,0.6177
1777289581.1575696,R_Tibia,4.5603,8.886,0.7848,48.3398,23.6816,32.3486,98.7231,-9.8108,-15.7379,0.7566,0.0483,-0.1531,0.6339
1777289581.1575696,R_Foot,0.9379,0.402,9.288,12.6343,-3.7842,-6.1035,3.7793,-5.8832,-86.7206,0.0592,-0.0147,-0.6865,0.7245
1777289581.1575696,Trunk,1.7705,5.8857,1.5504,6.958,-28.1982,0.8545,85.3528,-0.2582,-30.2014,0.6549,0.175,-0.193,0.7094
1777289581.1575696,L_Femur,1.3111,1.6892,-4.2731,-50.415,-53.4058,24.231,72.356,7.9926,-15.4413,0.576,0.1349,-0.0674,0.8035
1777289581.1575696,L_Tibia,1.5743,7.1777,-9.02,-401.123,-21.1182,-97.5952,111.687,0.0714,-19.3634,0.8157,0.1395,-0.0939,0.5535
1777289581.1575696,L_Foot,-3.6367,8.1635,16.3557,-322.1436,168.1519,-41.5649,12.431,5.0812,-88.5278,0.0467,0.1071,-0.6897,0.7146
1777289581.1575696,R_Femur,1.8279,8.5559,-0.3685,117.7979,-118.1641,-7.8125,104.2932,-7.5476,-17.4792,0.7849,0.0798,-0.1444,0.5973
1777289581.1575696,R_Tibia,4.5603,8.886,0.7848,48.3398,23.6816,32.3486,98.7231,-9.8108,-15.7379,0.7566,0.0483,-0.1531,0.6339
1777289581.1575696,R_Foot,0.9379,0.402,9.288,12.6343,-3.7842,-6.1035,3.7793,-5.8832,-86.7206,0.0592,-0.0147,-0.6865,0.7245
1777289581.1575696,Trunk,1.6317,6.4456,1.4882,-4.2725,-22.7051,-3.3569,85.3363,-0.2582,-30.6793,0.654,0.1777,-0.196,0.7087
1777289581.1575696,L_Femur,1.3111,1.6892,-4.2731,-50.415,-53.4058,24.231,72.356,7.9926,-15.4413,0.576,0.1349,-0.0674,0.8035
1777289581.1575696,L_Tibia,1.5743,7.1777,-9.02,-401.123,-21.1182,-97.5952,111.687,0.0714,-19.3634,0.8157,0.1395,-0.0939,0.5535
1777289581.1575696,L_Foot,-3.6367,8.1635,16.3557,-322.1436,168.1519,-41.5649,12.431,5.0812,-88.5278,0.0467,0.1071,-0.6897,0.7146
1777289581.1575696,R_Femur,1.8279,8.5559,-0.3685,117.7979,-118.1641,-7.8125,104.2932,-7.5476,-17.4792,0.7849,0.0798,-0.1444,0.5973
1777289581.1575696,R_Tibia,4.5603,8.886,0.7848,48.3398,23.6816,32.3486,98.7231,-9.8108,-15.7379,0.7566,0.0483,-0.1531,0.6339
1777289581.1575696,R_Foot,0.9379,0.402,9.288,12.6343,-3.7842,-6.1035,3.7793,-5.8832,-86.7206,0.0592,-0.0147,-0.6865,0.7245
1777289581.1575696,Trunk,1.6317,6.4456,1.4882,-4.2725,-22.7051,-3.3569,85.3363,-0.2582,-30.6793,0.654,0.1777,-0.196,0.7087
1777289581.1575696,L_Femur,2.4979,2.3543,-3.9478,-44.0674,-30.9448,23.2544,71.6199,7.4872,-15.8423,0.571,0.1329,-0.0737,0.8068
1777289581.1575696,L_Tibia,1.5743,7.1777,-9.02,-401.123,-21.1182,-97.5952,111.687,0.0714,-19.3634,0.8157,0.1395,-0.0939,0.5535
1777289581.1575696,L_Foot,-3.6367,8.1635,16.3557,-322.1436,168.1519,-41.5649,12.431,5.0812,-88.5278,0.0467,0.1071,-0.6897,0.7146
1777289581.1575696,R_Femur,1.8279,8.5559,-0.3685,117.7979,-118.1641,-7.8125,104.2932,-7.5476,-17.4792,0.7849,0.0798,-0.1444,0.5973
1777289581.1575696,R_Tibia,4.5603,8.886,0.7848,48.3398,23.6816,32.3486,98.7231,-9.8108,-15.7379,0.7566,0.0483,-0.1531,0.6339
1777289581.1575696,R_Foot,0.9379,0.402,9.288,12.6343,-3.7842,-6.1035,3.7793,-5.8832,-86.7206,0.0592,-0.0147,-0.6865,0.7245
1777289581.1575696,Trunk,1.6317,6.4456,1.4882,-4.2725,-22.7051,-3.3569,85.3363,-0.2582,-30.6793,0.654,0.1777,-0.196,0.7087
1777289581.1575696,L_Femur,2.4979,2.3543,-3.9478,-44.0674,-30.9448,23.2544,71.6199,7.4872,-15.8423,0.571,0.1329,-0.0737,0.8068
1777289581.1575696,L_Tibia,1.8136,7.6323,-9.0344,-396.3623,-3.2349,-88.3789,103.689,1.8512,-18.9569,0.7739,0.1393,-0.0892,0.6114
1777289581.1575696,L_Foot,-3.6367,8.1635,16.3557,-322.1436,168.1519,-41.5649,12.431,5.0812,-88.5278,0.0467,0.1071,-0.6897,0.7146
1777289581.1575696,R_Femur,1.8279,8.5559,-0.3685,117.7979,-118.1641,-7.8125,104.2932,-7.5476,-17.4792,0.7849,0.0798,-0.1444,0.5973
1777289581.1575696,R_Tibia,4.5603,8.886,0.7848,48.3398,23.6816,32.3486,98.7231,-9.8108,-15.7379,0.7566,0.0483,-0.1531,0.6339
1777289581.1575696,R_Foot,0.9379,0.402,9.288,12.6343,-3.7842,-6.1035,3.7793,-5.8832,-86.7206,0.0592,-0.0147,-0.6865,0.7245
1777289581.1585686,Trunk,1.6317,6.4456,1.4882,-4.2725,-22.7051,-3.3569,85.3363,-0.2582,-30.6793,0.654,0.1777,-0.196,0.7087
1777289581.1585686,L_Femur,2.4979,2.3543,-3.9478,-44.0674,-30.9448,23.2544,71.6199,7.4872,-15.8423,0.571,0.1329,-0.0737,0.8068
1777289581.1585686,L_Tibia,1.8136,7.6323,-9.0344,-396.3623,-3.2349,-88.3789,103.689,1.8512,-18.9569,0.7739,0.1393,-0.0892,0.6114
1777289581.1585686,L_Foot,-4.498,11.5035,22.7295,-327.5757,134.7656,-71.7163,7.4982,7.3279,-89.1376,0.0017,0.0912,-0.6959,0.7124
1777289581.1585686,R_Femur,1.8279,8.5559,-0.3685,117.7979,-118.1641,-7.8125,104.2932,-7.5476,-17.4792,0.7849,0.0798,-0.1444,0.5973
1777289581.1585686,R_Tibia,4.5603,8.886,0.7848,48.3398,23.6816,32.3486,98.7231,-9.8108,-15.7379,0.7566,0.0483,-0.1531,0.6339
1777289581.1585686,R_Foot,0.9379,0.402,9.288,12.6343,-3.7842,-6.1035,3.7793,-5.8832,-86.7206,0.0592,-0.0147,-0.6865,0.7245
1777289581.1585686,Trunk,1.6317,6.4456,1.4882,-4.2725,-22.7051,-3.3569,85.3363,-0.2582,-30.6793,0.654,0.1777,-0.196,0.7087
1777289581.1585686,L_Femur,2.4979,2.3543,-3.9478,-44.0674,-30.9448,23.2544,71.6199,7.4872,-15.8423,0.571,0.1329,-0.0737,0.8068
1777289581.1585686,L_Tibia,1.8136,7.6323,-9.0344,-396.3623,-3.2349,-88.3789,103.689,1.8512,-18.9569,0.7739,0.1393,-0.0892,0.6114
1777289581.1585686,L_Foot,-4.498,11.5035,22.7295,-327.5757,134.7656,-71.7163,7.4982,7.3279,-89.1376,0.0017,0.0912,-0.6959,0.7124
1777289581.1585686,R_Femur,1.0145,9.2306,-0.0431,110.2295,-120.9106,-10.1318,106.1719,-6.9543,-19.1986,0.793,0.0972,-0.1478,0.583
1777289581.1585686,R_Tibia,4.5603,8.886,0.7848,48.3398,23.6816,32.3486,98.7231,-9.8108,-15.7379,0.7566,0.0483,-0.1531,0.6339
1777289581.1585686,R_Foot,0.9379,0.402,9.288,12.6343,-3.7842,-6.1035,3.7793,-5.8832,-86.7206,0.0592,-0.0147,-0.6865,0.7245
1777289581.1585686,Trunk,1.6317,6.4456,1.4882,-4.2725,-22.7051,-3.3569,85.3363,-0.2582,-30.6793,0.654,0.1777,-0.196,0.7087
1777289581.1585686,L_Femur,2.4979,2.3543,-3.9478,-44.0674,-30.9448,23.2544,71.6199,7.4872,-15.8423,0.571,0.1329,-0.0737,0.8068
1777289581.1585686,L_Tibia,1.8136,7.6323,-9.0344,-396.3623,-3.2349,-88.3789,103.689,1.8512,-18.9569,0.7739,0.1393,-0.0892,0.6114
1777289581.1585686,L_Foot,-4.498,11.5035,22.7295,-327.5757,134.7656,-71.7163,7.4982,7.3279,-89.1376,0.0017,0.0912,-0.6959,0.7124
1777289581.1585686,R_Femur,1.0145,9.2306,-0.0431,110.2295,-120.9106,-10.1318,106.1719,-6.9543,-19.1986,0.793,0.0972,-0.1478,0.583
1777289581.1585686,R_Tibia,-3.0194,9.532,0.201,48.0957,-32.0435,32.7759,100.5194,-10.8984,-15.7379,0.7666,0.0447,-0.1595,0.6204
1777289581.1585686,R_Foot,0.9379,0.402,9.288,12.6343,-3.7842,-6.1035,3.7793,-5.8832,-86.7206,0.0592,-0.0147,-0.6865,0.7245
1777289581.1585686,Trunk,1.6317,6.4456,1.4882,-4.2725,-22.7051,-3.3569,85.3363,-0.2582,-30.6793,0.654,0.1777,-0.196,0.7087
1777289581.1585686,L_Femur,2.4979,2.3543,-3.9478,-44.0674,-30.9448,23.2544,71.6199,7.4872,-15.8423,0.571,0.1329,-0.0737,0.8068
1777289581.1585686,L_Tibia,1.8136,7.6323,-9.0344,-396.3623,-3.2349,-88.3789,103.689,1.8512,-18.9569,0.7739,0.1393,-0.0892,0.6114
1777289581.1585686,L_Foot,-4.498,11.5035,22.7295,-327.5757,134.7656,-71.7163,7.4982,7.3279,-89.1376,0.0017,0.0912,-0.6959,0.7124
1777289581.1585686,R_Femur,1.0145,9.2306,-0.0431,110.2295,-120.9106,-10.1318,106.1719,-6.9543,-19.1986,0.793,0.0972,-0.1478,0.583
