绝对时间戳(s),上身角度,左髋角度,左膝角度,左踝角度,右髋角度,右膝角度,右踝角度,imu1ang_x,imu1vel_x,imu1acc_x,imu1ang_y,imu1vel_y,imu1acc_y,imu1ang_z,imu1vel_z,imu1acc_z,imu2ang_x,imu2vel_x,imu2acc_x,imu2ang_y,imu2vel_y,imu2acc_y,imu2ang_z,imu2vel_z,imu2acc_z,imu3ang_x,imu3vel_x,imu3acc_x,imu3ang_y,imu3vel_y,imu3acc_y,imu3ang_z,imu3vel_z,imu3acc_z,imu4ang_x,imu4vel_x,imu4acc_x,imu4ang_y,imu4vel_y,imu4acc_y,imu4ang_z,imu4vel_z,imu4acc_z,imu5ang_x,imu5vel_x,imu5acc_x,imu5ang_y,imu5vel_y,imu5acc_y,imu5ang_z,imu5vel_z,imu5acc_z,imu6ang_x,imu6vel_x,imu6acc_x,imu6ang_y,imu6vel_y,imu6acc_y,imu6ang_z,imu6vel_z,imu6acc_z,imu7ang_x,imu7vel_x,imu7acc_x,imu7ang_y,imu7vel_y,imu7acc_y,imu7ang_z,imu7vel_z,imu7acc_z,L_1,L_2,L_3,L_4,L_5,L_6,L_7,L_8,L_9,L_10,L_11,L_12,L_13,L_14,L_15,L_16,L_17,L_18,R_1,R_2,R_3,R_4,R_5,R_6,R_7,R_8,R_9,R_10,R_11,R_12,R_13,R_14,R_15,R_16,R_17,R_18,frame_id_left,frame_id_right,vicon_Session_ID,vicon_Trial_ID,vicon_Subject_ID,vicon_Vicon_Recv_Timestamp,vicon_Vicon_Recv_Timestamp_Mono,vicon_Vicon_Frame_Num,vicon_Vicon_Subject_Name,vicon_Vicon_Gap_Flag,vicon_Vicon_Gap_Size,vicon_Vicon_Original_Valid_Flag,vicon_Vicon_LASI_X,vicon_Vicon_LASI_Y,vicon_Vicon_LASI_Z,vicon_Vicon_RASI_X,vicon_Vicon_RASI_Y,vicon_Vicon_RASI_Z,vicon_Vicon_LPSI_X,vicon_Vicon_LPSI_Y,vicon_Vicon_LPSI_Z,vicon_Vicon_RPSI_X,vicon_Vicon_RPSI_Y,vicon_Vicon_RPSI_Z,vicon_Vicon_LTHI_X,vicon_Vicon_LTHI_Y,vicon_Vicon_LTHI_Z,vicon_Vicon_LKNE_X,vicon_Vicon_LKNE_Y,vicon_Vicon_LKNE_Z,vicon_Vicon_LTIB_X,vicon_Vicon_LTIB_Y,vicon_Vicon_LTIB_Z,vicon_Vicon_LANK_X,vicon_Vicon_LANK_Y,vicon_Vicon_LANK_Z,vicon_Vicon_LHEE_X,vicon_Vicon_LHEE_Y,vicon_Vicon_LHEE_Z,vicon_Vicon_LTOE_X,vicon_Vicon_LTOE_Y,vicon_Vicon_LTOE_Z,vicon_Vicon_RTHI_X,vicon_Vicon_RTHI_Y,vicon_Vicon_RTHI_Z,vicon_Vicon_RKNE_X,vicon_Vicon_RKNE_Y,vicon_Vicon_RKNE_Z,vicon_Vicon_RTIB_X,vicon_Vicon_RTIB_Y,vicon_Vicon_RTIB_Z,vicon_Vicon_RANK_X,vicon_Vicon_RANK_Y,vicon_Vicon_RANK_Z,vicon_Vicon_RHEE_X,vicon_Vicon_RHEE_Y,vicon_Vicon_RHEE_Z,vicon_Vicon_RTOE_X,vicon_Vicon_RTOE_Y,vicon_Vicon_RTOE_Z,left pct stance (%GC),left pct swing (%GC),right pct stance (%GC),right pct swing (%GC),step frequency (steps/min),step length (cm),left step length (cm),right step length (cm),left stride length (cm),right stride length (cm),left step speed (m/s),right step speed (m/s),step width (cm),cycle (s)
1777554365,14.22662963,14.51507407,23.247074,-7.87663,14.76492593,59.263704,-6.497222,90.428467,9.216309,0.153281,0.241699,-3.356934,9.80521,-46.972046,-11.291504,-0.967588,94.537354,48.950195,0.311353,-1.779785,25.817871,9.671089,-33.239136,-9.82666,-0.502954,102.068481,15.380859,0.584385,2.559814,-0.732422,9.393267,-74.723511,-1.098633,-1.719624,-0.615234,-1.037598,-0.435894,2.301636,-0.549316,0.277822,-153.413086,0.793457,10.212363,90.994263,-106.750488,0.665815,0.86792,49.621582,9.8579,-27.284546,2.075195,-2.49561,143.327637,14.465332,-0.546064,5.223999,-33.325195,5.412744,-138.257446,12.145996,-7.956255,43.928833,-132.751465,5.628296,3.136597,20.996094,-2.284849,-47.510376,-23.864746,4.392466,0,7944,38919,46083,30723,0,0,60164,24326,2817,14338,0,0,0,0,0,0,0,0,0,8453,0,0,0,0,0,48646,0,0,0,0,0,0,0,0,0,659,10456,independent_20260430_210601,trial_001,subject_001,1777554365,277156.806,2302100,1,0,0,1,0,0,0,140.5242842,592.0290369,838.5847531,77.07806328,371.7254229,903.5599834,137.8937868,371.9474208,896.6644129,-93.41390448,535.4441534,724.8933444,-83.14930148,602.1545914,432.4536115,-102.2108496,610.1966884,284.001169,-61.25340976,675.1594316,81.06977418,2.244447601,622.6667424,34.17971804,-22.05883031,879.6068785,115.1078941,262.3425245,488.9384545,694.066619,214.0868095,429.4559363,398.0505339,225.77175,345.9843115,258.540115,154.3444801,272.4772628,72.48175689,96.59304122,210.3737174,46.743035,150.8720416,469.0033963,51.60341374,66.50309122,33.49690878,67.22388053,32.77611947,61.85431186,40.72307356,40.21684462,41.2293025,81.44614713,81.44614713,0.419816282,0.419816282,23.18661441,1.9400426
1777554365,14.22662963,14.51507407,23.247074,-7.87663,14.76492593,59.263704,-6.497222,90.428467,9.216309,0.153281,0.241699,-3.356934,9.80521,-46.972046,-11.291504,-0.967588,94.537354,48.950195,0.311353,-1.779785,25.817871,9.671089,-33.239136,-9.82666,-0.502954,102.068481,15.380859,0.584385,2.559814,-0.732422,9.393267,-74.723511,-1.098633,-1.719624,-0.615234,-1.037598,-0.435894,2.301636,-0.549316,0.277822,-153.413086,0.793457,10.212363,90.994263,-106.750488,0.665815,0.86792,49.621582,9.8579,-27.284546,2.075195,-2.49561,143.327637,14.465332,-0.546064,5.223999,-33.325195,5.412744,-138.257446,12.145996,-7.956255,43.928833,-132.751465,5.628296,3.136597,20.996094,-2.284849,-47.510376,-23.864746,4.392466,0,7944,38919,46083,30723,0,0,60164,24326,2817,14338,0,0,0,0,0,0,0,0,0,50434,0,0,0,0,0,42755,0,0,0,0,0,0,0,0,0,659,10457,independent_20260430_210601,trial_001,subject_001,1777554365,277156.826,2302102,1,0,0,1,0,0,0,139.3885579,594.5461999,836.9877359,72.61422921,374.8474266,901.2580149,133.4727067,374.3363088,894.6039487,-94.62455068,541.6665653,722.2533065,-82.43497897,605.7023862,429.2508588,-101.996263,609.0234185,280.712458,-60.34441738,667.1598255,76.56833817,1.927928357,614.6597189,34.26373204,-18.06613063,875.471766,108.3886184,260.1018463,488.5077588,692.8971194,212.8554525,426.1571899,397.2123654,224.9294561,340.0278609,259.3518989,155.0560425,265.7816274,70.98099039,96.08492515,201.1169772,47.06820756,150.6168321,459.999557,51.50853195,66.50309122,33.49690878,67.22388053,32.77611947,61.85431186,40.72307356,40.21684462,41.2293025,81.44614713,81.44614713,0.419816282,0.419816282,23.18661441,1.9400426
1777554365,14.46362963,13.75107407,22.077074,-7.90463,14.76492593,61.224704,-6.497222,90.664673,2.258301,-0.488584,0.829468,-1.647949,9.268726,-47.076416,-9.887695,-0.570015,95.300903,34.362793,-0.134121,-1.636963,29.724121,10.226733,-32.623901,-9.521484,-0.718506,103.134155,21.54541,-1.384321,2.477417,14.343262,9.187295,-73.745728,0.671387,-1.523232,-0.6427,-0.610352,-0.407153,2.279663,-0.671387,0.177231,-153.391113,1.220703,10.049502,90.994263,-106.750488,0.665815,0.86792,49.621582,9.8579,-27.284546,2.075195,-2.49561,141.405029,-73.181152,0.340093,5.899658,-21.484375,5.824688,-140.119629,26.977539,-2.878813,43.928833,-132.751465,5.628296,3.136597,20.996094,-2.284849,-47.510376,-23.864746,4.392466,0,7944,38919,46083,30723,0,0,60164,24326,2817,14338,0,0,0,0,0,0,0,0,0,50434,0,0,0,0,0,42755,0,0,0,0,0,0,0,0,0,659,10457,independent_20260430_210601,trial_001,subject_001,1777554365,277156.846,2302104,1,0,0,1,49.80777825,599.3421457,840.6576037,137.9685413,597.7394314,835.5063782,67.82417815,378.7626374,899.1921909,128.7047735,377.4200532,892.7050959,-95.74098044,547.9391,720.1684204,-82.12289897,607.4331091,425.717558,-100.4768682,608.8302632,277.3474186,-58.51378759,663.4915789,75.62406575,2.3777459,608.2060415,34.63915804,-13.63269897,872.4036938,101.6754225,257.6085273,488.734254,691.8253159,211.2405998,423.1423438,396.822587,223.9480201,334.4152396,260.7114731,154.3827939,256.943553,73.60379421,96.14783554,192.5498436,47.78424078,150.4176435,451.1003377,51.37750468,66.50309122,33.49690878,67.22388053,32.77611947,61.85431186,40.72307356,40.21684462,41.2293025,81.44614713,81.44614713,0.419816282,0.419816282,23.18661441,1.9400426
1777554365,14.46362963,13.75107407,22.077074,-7.90463,14.76492593,61.224704,-6.497222,90.664673,2.258301,-0.488584,0.829468,-1.647949,9.268726,-47.076416,-9.887695,-0.570015,95.300903,34.362793,-0.134121,-1.636963,29.724121,10.226733,-32.623901,-9.521484,-0.718506,103.134155,21.54541,-1.384321,2.477417,14.343262,9.187295,-73.745728,0.671387,-1.523232,-0.6427,-0.610352,-0.407153,2.279663,-0.671387,0.177231,-153.391113,1.220703,10.049502,90.994263,-106.750488,0.665815,0.86792,49.621582,9.8579,-27.284546,2.075195,-2.49561,141.405029,-73.181152,0.340093,5.899658,-21.484375,5.824688,-140.119629,26.977539,-2.878813,43.928833,-132.751465,5.628296,3.136597,20.996094,-2.284849,-47.510376,-23.864746,4.392466,0,7944,38919,46083,30723,0,0,60164,24326,2817,14338,0,0,0,0,0,0,0,0,0,50434,0,0,0,0,0,42755,0,0,0,0,0,0,0,0,0,659,10457,independent_20260430_210601,trial_001,subject_001,1777554365,277156.846,2302104,1,0,0,1,49.80777825,599.3421457,840.6576037,137.9685413,597.7394314,835.5063782,67.82417815,378.7626374,899.1921909,128.7047735,377.4200532,892.7050959,-95.74098044,547.9391,720.1684204,-82.12289897,607.4331091,425.717558,-100.4768682,608.8302632,277.3474186,-58.51378759,663.4915789,75.62406575,2.3777459,608.2060415,35.34515987,-13.63269897,872.4036938,95.08670974,257.6085273,488.734254,691.8253159,211.2405998,423.1423438,396.822587,223.9480201,334.4152396,260.7114731,154.3827939,256.943553,73.60379421,96.14783554,192.5498436,48.65839706,150.4176435,451.1003377,51.24191437,66.50309122,33.49690878,67.22388053,32.77611947,61.85431186,40.72307356,40.21684462,41.2293025,81.44614713,81.44614713,0.419816282,0.419816282,23.18661441,1.9400426
1777554365,14.46362963,12.77307407,22.077074,-8.98163,19.20292593,61.910704,-8.414222,90.664673,2.258301,-0.488584,0.829468,-1.647949,9.268726,-47.076416,-9.887695,-0.570015,96.278687,27.160645,-0.919687,-1.373291,12.756348,9.527388,-31.849365,-7.263184,-1.2023,103.134155,21.54541,-1.384321,2.477417,14.343262,9.187295,-73.745728,0.671387,-1.523232,-0.653687,1.647949,-0.546064,2.241211,-0.915527,-0.02395,-153.336182,1.953125,9.78605,86.555786,-77.880859,-0.766406,0.928345,42.785645,9.330996,-24.884033,4.089355,-1.652563,137.653198,-120.300293,-1.24062,5.460205,-2.13623,5.704937,-141.102905,29.418945,-6.07377,40.089111,-146.30127,0.498164,4.141846,45.532227,-0.479004,-46.604004,-2.685547,8.157437,0,7944,38919,46083,30723,0,0,60164,24326,2817,14338,0,0,0,0,0,0,0,0,0,50434,0,0,0,0,0,42755,0,0,0,0,0,0,0,0,0,659,10457,independent_20260430_210601,trial_001,subject_001,1777554365,277156.856,2302105,1,0,0,1,49.27630673,602.5500175,839.9181333,137.0659377,599.5593392,834.8930439,65.3329317,380.7824354,898.3144529,126.2848504,379.141356,891.7863652,-96.35560112,550.932825,719.2798944,-82.63240085,607.9465561,424.4865327,-99.60858664,609.670374,276.0218666,-58.14772254,662.8101636,74.93982473,2.291751409,605.1789171,36.21099099,-12.52357107,871.0226171,88.79317161,256.1668924,489.1330145,691.4001115,210.272696,421.7039765,396.784203,223.2078114,331.7376047,261.5365653,154.6298325,253.2108801,74.1420091,95.90785401,187.9193499,49.69814815,150.4135604,446.7113964,51.10397488,66.50309122,33.49690878,67.22388053,32.77611947,61.85431186,40.72307356,40.21684462,41.2293025,81.44614713,81.44614713,0.419816282,0.419816282,23.18661441,1.9400426
1777554365,14.60562963,11.71907407,21.659074,-8.98163,21.52092593,61.910704,-11.473222,90.807495,4.211426,-0.785566,1.159058,-3.417969,9.057964,-47.147827,-8.361816,-0.119751,97.333374,37.414551,-0.565225,-1.345825,-2.380371,9.383687,-31.810913,2.502441,-1.963916,103.694458,13.305664,-0.531694,2.444458,-10.742188,9.623188,-73.778687,1.220703,-2.41418,-0.653687,1.647949,-0.546064,2.241211,-0.915527,-0.02395,-153.336182,1.953125,9.78605,84.237671,-59.143066,-0.320933,0.719604,36.743164,8.214917,-23.461304,10.375977,-1.599873,137.653198,-120.300293,-1.24062,5.460205,-2.13623,5.704937,-141.102905,29.418945,-6.07377,33.277588,-209.899902,0.680186,4.081421,-14.221191,0.397573,-46.856689,-3.662109,9.627979,0,7944,38919,46083,30723,0,0,60164,24326,2817,14338,0,0,0,0,0,0,0,0,0,50434,0,0,0,0,0,42755,0,0,0,0,0,0,0,0,0,659,10457,independent_20260430_210601,trial_001,subject_001,1777554365,277156.8661,2302106,1,0,0,1,47.8857855,604.067984,839.5308599,136.0360932,601.4584025,834.3990446,62.91462531,382.8403147,897.5331074,123.8948307,380.9820958,890.9594811,-97.22631344,553.5483741,718.5187454,-83.43382032,608.7742263,423.5032619,-99.43804867,611.0326397,275.1669607,-58.58456626,661.7623781,74.18915237,2.098495015,602.1747954,37.22335625,-12.57107533,869.6055571,82.92686694,254.6825338,489.7614112,691.0655265,209.2553451,420.5244153,396.8925085,222.5580181,329.2825187,262.4868918,154.4038316,249.1777281,75.44478904,95.80841658,183.6526697,50.89839118,150.3502621,442.2321706,50.96380056,66.50309122,33.49690878,67.22388053,32.77611947,61.85431186,40.72307356,40.21684462,41.2293025,81.44614713,81.44614713,0.419816282,0.419816282,23.18661441,1.9400426
1777554365,14.89762963,11.71907407,21.659074,-9.44263,21.52092593,58.927704,-13.500222,91.098633,10.559082,-0.967588,1.411743,-7.8125,9.364526,-47.356567,-5.737305,0.263452,97.333374,37.414551,-0.565225,-1.345825,-2.380371,9.383687,-31.810913,2.502441,-1.963916,103.694458,13.305664,-0.531694,2.444458,-10.742188,9.623188,-73.778687,1.220703,-2.41418,-0.55481,1.098633,-0.354463,2.246704,0.549316,0.05269,-153.248291,1.403809,10.174043,84.237671,-59.143066,-0.320933,0.719604,36.743164,8.214917,-23.461304,10.375977,-1.599873,132.352295,-168.273926,-0.804727,4.130859,40.771484,6.610254,-141.366577,34.118652,-4.469106,25.949707,-202.697754,0.105381,3.257446,-39.672852,1.432222,-47.136841,11.474609,7.683223,0,7944,38919,46083,30723,0,0,60164,24326,2817,14338,0,0,0,0,0,0,0,0,0,13058,0,0,0,0,0,42753,0,0,0,0,0,0,0,0,0,659,10458,independent_20260430_210601,trial_001,subject_001,1777554365,277156.8761,2302107,1,0,0,1,46.73460567,606.4552621,839.2281287,134.8400282,603.4624921,834.0274273,60.67186477,384.9618505,897.0321823,121.7070111,382.8822837,890.366199,-98.42245971,555.9454428,717.7155546,-84.62344931,610.6820482,422.936246,-100.0323806,612.4592159,274.5268564,-59.51246999,659.810328,73.69722628,1.667405805,598.8754898,38.2788978,-13.45692351,867.8857397,77.61223973,253.4018696,490.5983723,690.8259266,208.125159,419.6315093,397.0316766,221.8062069,327.0798444,263.5441552,154.0966564,245.1299319,77.01359174,95.66863997,179.5321032,52.24908884,150.2060945,437.8686832,50.82298136,66.50309122,33.49690878,67.22388053,32.77611947,61.85431186,40.72307356,40.21684462,41.2293025,81.44614713,81.44614713,0.419816282,0.419816282,23.18661441,1.9400426
1777554365,14.89762963,11.71907407,21.659074,-9.44263,21.52092593,58.927704,-13.500222,91.098633,10.559082,-0.967588,1.411743,-7.8125,9.364526,-47.356567,-5.737305,0.263452,97.333374,37.414551,-0.565225,-1.345825,-2.380371,9.383687,-31.810913,2.502441,-1.963916,103.694458,13.305664,-0.531694,2.444458,-10.742188,9.623188,-73.778687,1.220703,-2.41418,-0.55481,1.098633,-0.354463,2.246704,0.549316,0.05269,-153.248291,1.403809,10.174043,84.237671,-59.143066,-0.320933,0.719604,36.743164,8.214917,-23.461304,10.375977,-1.599873,132.352295,-168.273926,-0.804727,4.130859,40.771484,6.610254,-141.366577,34.118652,-4.469106,25.949707,-202.697754,0.105381,3.257446,-39.672852,1.432222,-47.136841,11.474609,7.683223,0,7944,38919,46083,30723,0,0,60164,24326,2817,14338,0,0,0,0,0,0,0,0,0,13058,0,0,0,0,0,42753,0,0,0,0,0,0,0,0,0,659,10458,independent_20260430_210601,trial_001,subject_001,1777554365,277156.8862,2302108,1,0,0,1,45.37805233,608.6987908,839.01759,133.4993081,605.4652284,833.7362679,58.52962929,387.1130187,896.5523904,119.6162036,384.8288982,889.8820319,-99.7826299,558.2370579,717.0727718,-85.9865695,613.4651141,422.6604196,-101.0402709,613.7572545,274.0172137,-60.43398131,656.7568753,73.198241,1.221378,595.3796021,39.25634292,-14.81036763,865.4206001,72.94367925,251.55802,491.6942363,690.4642194,206.9192792,419.1892715,397.1812286,221.1492333,325.1364549,264.712253,154.1402799,241.4757116,78.30855591,95.61373506,175.3566694,53.78444525,149.999776,433.6247457,50.68983914,66.50309122,33.49690878,67.22388053,32.77611947,61.85431186,40.72307356,40.21684462,41.2293025,81.44614713,81.44614713,0.419816282,0.419816282,23.18661441,1.9400426
1777554365,14.89762963,11.71907407,21.659074,-9.44263,21.52092593,58.927704,-13.500222,91.098633,10.559082,-0.967588,1.411743,-7.8125,9.364526,-47.356567,-5.737305,0.263452,97.333374,37.414551,-0.565225,-1.345825,-2.380371,9.383687,-31.810913,2.502441,-1.963916,103.694458,13.305664,-0.531694,2.444458,-10.742188,9.623188,-73.778687,1.220703,-2.41418,-0.55481,1.098633,-0.354463,2.246704,0.549316,0.05269,-153.248291,1.403809,10.174043,84.237671,-59.143066,-0.320933,0.719604,36.743164,8.214917,-23.461304,10.375977,-1.599873,132.352295,-168.273926,-0.804727,4.130859,40.771484,6.610254,-141.366577,34.118652,-4.469106,25.949707,-202.697754,0.105381,3.257446,-39.672852,1.432222,-47.136841,11.474609,7.683223,0,7944,38919,46083,30723,0,0,60164,24326,2817,14338,0,0,0,0,0,0,0,0,0,13058,0,0,0,0,0,42753,0,0,0,0,0,0,0,0,0,659,10458,independent_20260430_210601,trial_001,subject_001,1777554365,277156.8959,2302109,1,0,0,1,43.84426784,610.8768027,838.7984123,131.9942671,607.5132476,833.4853182,56.63480627,389.187563,896.3829385,117.5784474,386.770469,889.5411293,-101.2503048,560.4930601,716.5605808,-87.36752864,616.9793393,422.6573576,-102.4168983,614.840397,273.9449142,-61.52367249,653.7478137,73.06062283,0.547728473,591.7785908,40.04992166,-15.91596897,862.2446947,69.00380891,249.8355954,492.8883082,690.2113083,205.6386976,419.1263834,397.2276481,220.513577,323.5273164,265.8911963,154.113096,237.8645801,79.86499171,95.44836821,171.202749,55.51702219,150.0065273,429.4510873,50.55151658,66.50309122,33.49690878,67.22388053,32.77611947,61.85431186,40.72307356,40.21684462,41.2293025,81.44614713,81.44614713,0.419816282,0.419816282,23.18661441,1.9400426
1777554365,15.23262963,10.30107407,19.957074,-9.45863,21.52092593,53.269704,-13.500222,91.433716,6.225586,-0.483794,1.587524,-8.422852,9.551338,-47.675171,-3.479004,0.091011,98.75061,43.151855,0.713716,-1.466675,-9.460449,9.091494,-32.080078,6.286621,-2.007026,104.463501,9.94873,-0.273032,2.625732,-9.216309,9.695039,-74.003906,-3.051758,-2.874023,-0.571289,-0.12207,-0.368833,2.252197,0.671387,0.03832,-153.226318,1.037598,10.135723,84.237671,-59.143066,-0.320933,0.719604,36.743164,8.214917,-23.461304,10.375977,-1.599873,126.694336,-198.913574,-2.543511,2.614746,30.151367,7.932305,-141.036987,29.47998,-5.805527,25.949707,-202.697754,0.105381,3.257446,-39.672852,1.432222,-47.136841,11.474609,7.683223,0,7944,38919,46083,30723,0,0,60164,24326,2817,14338,0,0,0,0,0,0,0,0,0,13058,0,0,0,0,0,42753,0,0,0,0,0,0,0,0,0,659,10458,independent_20260430_210601,trial_001,subject_001,1777554365,277156.9059,2302110,1,0,0,1,42.14709478,612.7181946,838.7192451,130.304023,609.5061005,833.2860381,54.62065586,391.0982471,896.176026,115.7731657,388.6649299,889.4378781,-102.7983471,562.9174935,716.579073,-88.58170242,620.4076434,422.64642,-103.672141,615.7207523,274.0423664,-62.33369746,650.9206479,73.08868812,0.029075318,587.8394633,40.78665879,-16.45496914,858.7216589,65.8210251,248.13197,494.2994773,690.01675,204.3743458,419.4748937,397.209554,219.8456882,322.2438944,267.1439506,154.2491428,234.3664563,81.80389685,95.69239645,167.4620504,57.47513622,149.833327,425.2987289,50.40085144,66.50309122,33.49690878,67.22388053,32.77611947,61.85431186,40.72307356,40.21684462,41.2293025,81.44614713,81.44614713,0.419816282,0.419816282,23.18661441,1.9400426
1777554365,15.23262963,10.30107407,19.957074,-9.45863,21.52092593,53.269704,-13.500222,91.433716,6.225586,-0.483794,1.587524,-8.422852,9.551338,-47.675171,-3.479004,0.091011,98.75061,43.151855,0.713716,-1.466675,-9.460449,9.091494,-32.080078,6.286621,-2.007026,104.463501,9.94873,-0.273032,2.625732,-9.216309,9.695039,-74.003906,-3.051758,-2.874023,-0.571289,-0.12207,-0.368833,2.252197,0.671387,0.03832,-153.226318,1.037598,10.135723,84.237671,-59.143066,-0.320933,0.719604,36.743164,8.214917,-23.461304,10.375977,-1.599873,126.694336,-198.913574,-2.543511,2.614746,30.151367,7.932305,-141.036987,29.47998,-5.805527,25.949707,-202.697754,0.105381,3.257446,-39.672852,1.432222,-47.136841,11.474609,7.683223,0,7944,38919,46083,30723,0,0,60164,24326,2817,14338,0,0,0,0,0,0,0,0,0,13058,0,0,0,0,0,42753,0,0,0,0,0,0,0,0,0,659,10458,independent_20260430_210601,trial_001,subject_001,1777554365,277156.9261,2302112,1,0,0,1,38.29204984,616.3700375,838.8352175,126.4560141,613.4687266,833.2673912,51.01996296,394.8479637,896.2413273,112.046807,392.3862088,889.3945565,-106.1088237,568.2702362,717.7822591,-90.8523117,626.3832151,423.1436809,-107.1556203,617.18876,274.4843571,-64.08983778,645.2789146,73.16481784,-0.829683366,579.8050038,41.41898766,-18.56533907,851.1246326,63.43191081,244.2999887,497.6182769,689.9025397,201.9876464,421.3947506,397.2675244,218.5102026,320.6943405,269.7741757,154.5427228,227.9859501,85.93496101,95.11278534,159.5507885,59.70618554,149.4050802,417.2434358,50.22119953,66.50309122,33.49690878,67.22388053,32.77611947,61.85431186,40.72307356,40.21684462,41.2293025,81.44614713,81.44614713,0.419816282,0.419816282,23.18661441,1.9400426
1777554365,15.23262963,8.566074074,19.957074,-10.28363,24.58692593,48.815704,-14.324222,91.433716,6.225586,-0.483794,1.587524,-8.422852,9.551338,-47.675171,-3.479004,0.091011,100.48645,50.415039,1.072969,-1.63147,-3.967285,9.383687,-32.305298,4.699707,-2.064507,104.463501,9.94873,-0.273032,2.625732,-9.216309,9.695039,-74.003906,-3.051758,-2.874023,-0.626221,-0.671387,-0.387993,2.263184,1.464844,-0.03353,-153.198853,0.915527,10.126143,81.172485,-28.869629,-0.661025,0.648193,8.422852,8.056846,-22.027588,4.211426,-0.421523,119.174194,-222.53418,-0.680186,1.40625,15.075684,8.914263,-141.295166,35.888672,-6.231841,19.467773,-173.583984,0.958008,1.054688,-57.739258,2.48603,-47.158813,29.602051,9.8579,0,7944,38919,46083,30723,0,0,60164,24326,2817,14338,0,0,0,0,0,0,0,0,0,13058,0,0,0,0,0,42753,0,0,0,0,0,0,0,0,0,659,10458,independent_20260430_210601,trial_001,subject_001,1777554365,277156.9459,2302114,1,0,0,1,33.71670298,619.9994545,839.8001563,121.8168058,617.176389,833.8154596,47.32820978,398.2682504,896.5566906,108.3623,395.8747968,889.773941,-108.1689099,574.3527157,719.3068736,-92.28682673,631.9526627,423.819027,-110.7436349,619.6936885,275.2621369,-64.83164484,637.9363592,73.24842499,-1.722633677,571.2862312,41.93765465,-18.93596137,842.790013,61.84586953,239.9866742,501.6674363,690.0722081,199.5220821,424.895499,397.2382066,217.243351,320.4502401,272.7677276,155.1515822,222.2797296,90.87725204,95.12711543,152.359906,61.78423966,149.1259559,409.3997627,50.04394867,66.50309122,33.49690878,67.22388053,32.77611947,61.85431186,40.72307356,40.21684462,41.2293025,81.44614713,81.44614713,0.419816282,0.419816282,23.18661441,1.9400426
1777554365,15.23262963,8.566074074,19.957074,-10.28363,24.58692593,48.815704,-14.324222,91.433716,6.225586,-0.483794,1.587524,-8.422852,9.551338,-47.675171,-3.479004,0.091011,100.48645,50.415039,1.072969,-1.63147,-3.967285,9.383687,-32.305298,4.699707,-2.064507,104.463501,9.94873,-0.273032,2.625732,-9.216309,9.695039,-74.003906,-3.051758,-2.874023,-0.626221,-0.671387,-0.387993,2.263184,1.464844,-0.03353,-153.198853,0.915527,10.126143,81.172485,-28.869629,-0.661025,0.648193,8.422852,8.056846,-22.027588,4.211426,-0.421523,119.174194,-222.53418,-0.680186,1.40625,15.075684,8.914263,-141.295166,35.888672,-6.231841,19.467773,-173.583984,0.958008,1.054688,-57.739258,2.48603,-47.158813,29.602051,9.8579,0,7944,38919,46083,30723,0,0,60164,24326,2817,14338,0,0,0,0,0,0,0,0,0,13058,0,0,0,0,0,42753,0,0,0,0,0,0,0,0,0,659,10458,independent_20260430_210601,trial_001,subject_001,1777554365,277156.9459,2302114,1,0,0,1,33.71670298,619.9994545,839.8001563,121.8168058,617.176389,833.8154596,47.32820978,398.2682504,896.5566906,108.3623,395.8747968,889.773941,-108.1689099,574.3527157,719.3068736,-92.28682673,631.9526627,423.819027,-110.7436349,619.6936885,275.2621369,-64.83164484,637.9363592,73.24842499,-1.722633677,571.2862312,42.31617305,-18.93596137,842.790013,60.48663318,239.9866742,501.6674363,690.0722081,199.5220821,424.895499,397.2382066,217.243351,320.4502401,272.7677276,155.1515822,222.2797296,90.87725204,95.12711543,152.359906,64.46378726,149.1259559,409.3997627,49.82333033,66.50309122,33.49690878,67.22388053,32.77611947,61.85431186,40.72307356,40.21684462,41.2293025,81.44614713,81.44614713,0.419816282,0.419816282,23.18661441,1.9400426
1777554365,15.40262963,6.659074074,18.474074,-10.28363,25.18492593,48.815704,-11.990222,91.604004,3.967285,-0.00958,1.576538,0.610352,9.608818,-47.730103,0.12207,0.402363,102.392578,54.443359,1.025068,-1.642456,6.835938,9.445957,-32.217407,-1.831055,-2.280059,104.716187,6.774902,0.04311,2.834473,0.366211,9.541758,-74.141235,-5.065918,-2.40939,-0.626221,-0.671387,-0.387993,2.263184,1.464844,-0.03353,-153.198853,0.915527,10.126143,80.57373,-14.038086,-0.819097,0.686646,14.282227,7.980205,-21.676025,-0.671387,0.153281,119.174194,-222.53418,-0.680186,1.40625,15.075684,8.914263,-141.295166,35.888672,-6.231841,14.282227,-178.344727,0.713716,-1.19751,-77.636719,5.149292,-46.785278,35.827637,14.988032,0,7944,38919,46083,30723,0,0,60164,24326,2817,14338,0,0,0,0,0,0,0,0,0,13058,0,0,0,0,0,42753,0,0,0,0,0,0,0,0,0,659,10458,independent_20260430_210601,trial_001,subject_001,1777554365,277156.9561,2302115,1,0,0,1,31.276397,621.806238,840.5811676,119.346121,618.7446345,834.2949226,45.19033876,399.9162463,896.7445309,106.3271281,397.5675752,890.0824456,-109.126742,577.2091275,720.1369476,-92.49005529,634.4588902,424.1066709,-111.3989741,620.9803294,275.7158429,-65.02174163,634.2125323,73.61244325,-1.707926541,566.9528396,42.63774479,-19.29040876,838.7254338,59.14571367,238.0463652,503.9507848,690.3115627,198.1798145,427.4465865,397.2268974,216.5279009,320.8517656,274.5200313,155.3662394,219.9033853,93.63090575,94.98102578,149.1700706,67.83248809,148.9850972,405.7061056,49.54056635,66.50309122,33.49690878,67.22388053,32.77611947,61.85431186,40.72307356,40.21684462,41.2293025,81.44614713,81.44614713,0.419816282,0.419816282,23.18661441,1.9400426
1777554365,15.40262963,5.885074074,18.474074,-10.64063,25.38292593,38.740704,-15.742222,91.604004,3.967285,-0.00958,1.576538,0.610352,9.608818,-47.730103,0.12207,0.402363,103.167114,50.78125,0.938848,-1.63147,8.911133,9.546548,-32.080078,-2.441406,-2.059717,104.716187,6.774902,0.04311,2.834473,0.366211,9.541758,-74.141235,-5.065918,-2.40939,-0.730591,-1.159668,-0.368833,2.312622,2.380371,0.05269,-153.17688,0.793457,9.987231,80.375977,-7.446289,-1.068179,0.829468,19.226074,8.066426,-21.335449,-4.394531,0.670605,108.303223,-212.097168,-0.05748,-1.186523,59.631348,9.886641,-139.894409,34.912109,-6.662944,10.530396,-188.537598,1.465752,-2.845459,-72.875977,5.738467,-46.389771,38.574219,15.414346,0,7944,38919,46083,30723,0,0,60164,24326,2817,14338,0,0,0,0,0,0,0,0,0,53249,0,0,0,0,0,36609,0,0,0,0,0,0,0,0,0,659,10459,independent_20260430_210601,trial_001,subject_001,1777554365,277156.9657,2302116,1,0,0,1,29.03208586,623.7966451,841.51171,117.0472341,620.4651182,835.1040348,43.17265058,401.7308481,897.1386142,104.0042412,399.2446708,890.3480644,-110.3775336,579.949898,720.6607672,-92.38187184,636.5013325,424.1627698,-111.9879244,621.6054875,276.4039425,-65.16421277,630.4962908,73.75326601,-1.655319775,563.5902353,42.81096462,-19.4600564,834.5445635,58.57271805,235.5877017,506.307424,690.5948953,196.9068824,430.5588116,397.161002,215.9347812,321.7948943,276.3991467,155.6867476,217.7153104,96.68677505,94.96077503,146.0290638,71.80425878,148.9272529,402.2169804,49.2243844,66.50309122,33.49690878,67.22388053,32.77611947,61.85431186,40.72307356,40.21684462,41.2293025,81.44614713,81.44614713,0.419816282,0.419816282,23.18661441,1.9400426
1777554365,15.40262963,5.885074074,18.474074,-10.64063,25.38292593,38.740704,-15.742222,91.604004,3.967285,-0.00958,1.576538,0.610352,9.608818,-47.730103,0.12207,0.402363,103.167114,50.78125,0.938848,-1.63147,8.911133,9.546548,-32.080078,-2.441406,-2.059717,104.716187,6.774902,0.04311,2.834473,0.366211,9.541758,-74.141235,-5.065918,-2.40939,-0.730591,-1.159668,-0.368833,2.312622,2.380371,0.05269,-153.17688,0.793457,9.987231,80.375977,-7.446289,-1.068179,0.829468,19.226074,8.066426,-21.335449,-4.394531,0.670605,108.303223,-212.097168,-0.05748,-1.186523,59.631348,9.886641,-139.894409,34.912109,-6.662944,10.530396,-188.537598,1.465752,-2.845459,-72.875977,5.738467,-46.389771,38.574219,15.414346,0,7944,38919,46083,30723,0,0,60164,24326,2817,14338,0,0,0,0,0,0,0,0,0,53249,0,0,0,0,0,36609,0,0,0,0,0,0,0,0,0,659,10459,independent_20260430_210601,trial_001,subject_001,1777554365,277156.9759,2302117,1,0,0,1,27.00099391,625.8017761,842.4749414,115.0382836,622.2155296,836.1188467,40.68315016,403.5942324,897.4804979,101.5562582,400.8942581,890.7604239,-111.8666565,581.9439771,720.6132345,-92.22160513,637.754295,423.9709384,-111.5349253,621.4035763,275.8236993,-65.28355244,627.0068335,73.74416627,-2.484749408,558.7379798,42.91823045,-19.63148658,830.4267921,58.36747355,233.5692818,508.7640239,691.1080248,195.7215578,434.2549557,397.1527138,215.2754958,322.9952676,278.4239344,155.7204065,215.7656873,99.89982196,95.03985225,143.1985771,76.46840551,148.9152148,398.7917383,48.87369982,66.50309122,33.49690878,67.22388053,32.77611947,61.85431186,40.72307356,40.21684462,41.2293025,81.44614713,81.44614713,0.419816282,0.419816282,23.18661441,1.9400426
1777554365,15.40262963,5.885074074,18.474074,-10.64063,25.38292593,38.740704,-15.742222,91.604004,3.967285,-0.00958,1.576538,0.610352,9.608818,-47.730103,0.12207,0.402363,103.167114,50.78125,0.938848,-1.63147,8.911133,9.546548,-32.080078,-2.441406,-2.059717,104.716187,6.774902,0.04311,2.834473,0.366211,9.541758,-74.141235,-5.065918,-2.40939,-0.730591,-1.159668,-0.368833,2.312622,2.380371,0.05269,-153.17688,0.793457,9.987231,80.375977,-7.446289,-1.068179,0.829468,19.226074,8.066426,-21.335449,-4.394531,0.670605,108.303223,-212.097168,-0.05748,-1.186523,59.631348,9.886641,-139.894409,34.912109,-6.662944,10.530396,-188.537598,1.465752,-2.845459,-72.875977,5.738467,-46.389771,38.574219,15.414346,0,7944,38919,46083,30723,0,0,60164,24326,2817,14338,0,0,0,0,0,0,0,0,0,53249,0,0,0,0,0,36609,0,0,0,0,0,0,0,0,0,659,10459,independent_20260430_210601,trial_001,subject_001,1777554365,277156.9859,2302118,1,0,0,1,25.591738,628.8388917,843.3918471,113.263368,623.9492267,837.2647434,38.02494026,405.4463189,897.8236748,99.03118845,402.5039367,891.3076786,-113.2939001,583.4158576,720.2493208,-92.44705103,638.0719891,423.5196668,-111.4328751,619.9148956,275.6751056,-65.3420701,623.0134055,73.72505073,-2.740821056,554.5216943,42.99355914,-19.77517348,826.2952913,58.39324443,231.5595439,511.1159033,691.7137202,194.7228158,438.3216403,397.0482931,214.5979804,324.4821415,280.5455093,155.6395203,214.2718796,103.6637286,95.08250677,140.8684581,81.81113505,148.899849,395.6851174,48.47982974,66.50309122,33.49690878,67.22388053,32.77611947,61.85431186,40.72307356,40.21684462,41.2293025,81.44614713,81.44614713,0.419816282,0.419816282,23.18661441,1.9400426
1777554365,15.40262963,5.885074074,18.474074,-10.64063,25.38292593,38.740704,-15.742222,91.604004,3.967285,-0.00958,1.576538,0.610352,9.608818,-47.730103,0.12207,0.402363,103.167114,50.78125,0.938848,-1.63147,8.911133,9.546548,-32.080078,-2.441406,-2.059717,104.716187,6.774902,0.04311,2.834473,0.366211,9.541758,-74.141235,-5.065918,-2.40939,-0.730591,-1.159668,-0.368833,2.312622,2.380371,0.05269,-153.17688,0.793457,9.987231,80.375977,-7.446289,-1.068179,0.829468,19.226074,8.066426,-21.335449,-4.394531,0.670605,108.303223,-212.097168,-0.05748,-1.186523,59.631348,9.886641,-139.894409,34.912109,-6.662944,10.530396,-188.537598,1.465752,-2.845459,-72.875977,5.738467,-46.389771,38.574219,15.414346,0,7944,38919,46083,30723,0,0,60164,24326,2817,14338,0,0,0,0,0,0,0,0,0,53249,0,0,0,0,0,36609,0,0,0,0,0,0,0,0,0,659,10459,independent_20260430_210601,trial_001,subject_001,1777554365,277156.9956,2302119,1,0,0,1,23.84684465,630.1726652,844.4344276,111.744427,625.6365097,838.4845908,35.31341541,407.2356846,898.3641486,96.33469324,404.001227,891.7011959,-114.8475806,584.7253879,719.7227019,-92.89075394,637.171745,422.9543007,-111.5072672,617.0487122,275.7957146,-65.16634829,618.702208,73.64856426,-2.999142314,550.3051897,43.03467055,-19.90491828,822.1427882,58.48730358,229.6972513,513.4096085,692.4481985,194.0448841,442.9098493,396.993922,214.0517844,326.3163749,282.8861974,155.5162663,213.1085056,107.7976777,94.97449193,139.0282346,87.8203165,148.8292402,392.7430184,48.05015194,66.50309122,33.49690878,67.22388053,32.77611947,61.85431186,40.72307356,40.21684462,41.2293025,81.44614713,81.44614713,0.419816282,0.419816282,23.18661441,1.9400426
1777554365,15.81462963,5.885074074,16.529074,-10.64063,25.51492593,38.740704,-10.891222,92.015991,7.995605,0.04311,1.472168,7.568359,9.407637,-47.521362,3.051758,0.143701,103.167114,50.78125,0.938848,-1.63147,8.911133,9.546548,-32.080078,-2.441406,-2.059717,105.452271,14.343262,-1.130449,2.878418,13.977051,9.254355,-73.289795,-1.037598,-1.801055,-0.730591,-1.159668,-0.368833,2.312622,2.380371,0.05269,-153.17688,0.793457,9.987231,80.244141,-2.868652,-0.431104,1.318359,34.240723,8.708291,-20.533447,-14.221191,1.662144,108.303223,-212.097168,-0.05748,-1.186523,59.631348,9.886641,-139.894409,34.912109,-6.662944,4.509888,-200.378418,2.136357,-4.817505,-54.6875,6.15041,-45.021973,64.208984,14.547349,0,7944,38919,46083,30723,0,0,60164,24326,2817,14338,0,0,0,0,0,0,0,0,0,53249,0,0,0,0,0,36609,0,0,0,0,0,0,0,0,0,659,10459,independent_20260430_210601,trial_001,subject_001,1777554365,277157.0059,2302120,1,0,0,1,22.48832462,631.9825066,845.3111716,110.4257943,627.1595598,839.7396818,32.53191335,409.1359043,898.8464562,93.4975535,405.4363394,892.1585806,-116.2843548,585.8606789,719.3984689,-93.70889294,635.8913791,422.6677639,-111.3510016,613.5323553,275.3547781,-65.07181506,614.466343,73.62737354,-3.105437717,546.0339254,43.05470291,-20.1337242,817.8196059,58.5492972,228.0390199,515.7606316,693.2656857,193.7006157,447.8633998,397.0134364,213.7145535,328.5090326,285.4635156,155.222836,212.3815491,112.0273522,94.72801681,137.5504441,94.53053145,148.8925567,390.0277009,47.59464844,66.50309122,33.49690878,67.22388053,32.77611947,61.85431186,40.72307356,40.21684462,41.2293025,81.44614713,81.44614713,0.419816282,0.419816282,23.18661441,1.9400426
1777554365,15.81462963,5.885074074,16.529074,-10.64063,25.51492593,38.740704,-10.891222,92.015991,7.995605,0.04311,1.472168,7.568359,9.407637,-47.521362,3.051758,0.143701,103.167114,50.78125,0.938848,-1.63147,8.911133,9.546548,-32.080078,-2.441406,-2.059717,105.452271,14.343262,-1.130449,2.878418,13.977051,9.254355,-73.289795,-1.037598,-1.801055,-0.730591,-1.159668,-0.368833,2.312622,2.380371,0.05269,-153.17688,0.793457,9.987231,80.244141,-2.868652,-0.431104,1.318359,34.240723,8.708291,-20.533447,-14.221191,1.662144,108.303223,-212.097168,-0.05748,-1.186523,59.631348,9.886641,-139.894409,34.912109,-6.662944,4.509888,-200.378418,2.136357,-4.817505,-54.6875,6.15041,-45.021973,64.208984,14.547349,0,7944,38919,46083,30723,0,0,60164,24326,2817,14338,0,0,0,0,0,0,0,0,0,53249,0,0,0,0,0,36609,0,0,0,0,0,0,0,0,0,659,10459,independent_20260430_210601,trial_001,subject_001,1777554365,277157.0161,2302121,1,0,0,1,21.57551364,634.6263954,846.0860435,109.1739468,628.6274686,841.030674,29.84545439,410.7748883,899.4622397,90.60874859,406.8249422,892.813175,-117.6941339,586.9330562,719.4060409,-94.77377365,634.0106354,422.3172198,-111.966344,609.6323812,275.5582114,-65.21163554,610.3239086,73.62204452,-3.177006053,541.830738,43.0566255,-20.19880005,813.709249,58.55464698,226.6967172,518.200147,694.2526755,193.6307942,453.0949186,397.0426614,213.4649394,331.1180714,288.1211866,155.1516527,212.0530909,116.6536471,94.63285061,136.519468,101.9236429,148.915174,387.4291266,47.13459867,66.50309122,33.49690878,67.22388053,32.77611947,61.85431186,40.72307356,40.21684462,41.2293025,81.44614713,81.44614713,0.419816282,0.419816282,23.18661441,1.9400426
1777554365,15.81462963,5.885074074,16.529074,-10.64063,25.51492593,38.740704,-10.891222,92.015991,7.995605,0.04311,1.472168,7.568359,9.407637,-47.521362,3.051758,0.143701,103.167114,50.78125,0.938848,-1.63147,8.911133,9.546548,-32.080078,-2.441406,-2.059717,105.452271,14.343262,-1.130449,2.878418,13.977051,9.254355,-73.289795,-1.037598,-1.801055,-0.730591,-1.159668,-0.368833,2.312622,2.380371,0.05269,-153.17688,0.793457,9.987231,80.244141,-2.868652,-0.431104,1.318359,34.240723,8.708291,-20.533447,-14.221191,1.662144,108.303223,-212.097168,-0.05748,-1.186523,59.631348,9.886641,-139.894409,34.912109,-6.662944,4.509888,-200.378418,2.136357,-4.817505,-54.6875,6.15041,-45.021973,64.208984,14.547349,0,7944,38919,46083,30723,0,0,60164,24326,2817,14338,0,0,0,0,0,0,0,0,0,40961,0,0,0,0,0,16641,0,0,0,0,0,0,0,0,0,659,10460,independent_20260430_210601,trial_001,subject_001,1777554365,277157.0259,2302122,1,0,0,1,20.08543261,635.5500519,847.0108061,107.9488672,629.865816,842.2719396,27.26059474,412.325239,900.1888248,88.15267553,407.9876311,893.4775696,-118.9411387,588.182067,719.5785183,-96.06650738,631.9426274,421.9844683,-112.5676627,606.0437694,275.4188005,-65.34743051,606.0745172,73.58824458,-3.467181559,537.6767472,43.05218197,-20.45881097,809.5250941,58.55085886,225.0382373,520.7165553,694.9910338,193.7467472,458.5908105,397.1518247,213.2487407,334.1468007,290.7560598,154.4361141,211.8381447,121.5786492,94.53303864,136.1271401,109.4875601,148.9701313,384.935859,46.70456084,66.50309122,33.49690878,67.22388053,32.77611947,61.85431186,40.72307356,40.21684462,41.2293025,81.44614713,81.44614713,0.419816282,0.419816282,23.18661441,1.9400426
1777554365,15.81462963,3.940074074,16.529074,-11.04663,25.54192593,38.740704,-17.197222,92.015991,7.995605,0.04311,1.472168,7.568359,9.407637,-47.521362,3.051758,0.143701,105.111694,36.682129,0.03832,-1.538086,17.39502,9.690249,-31.431885,-6.225586,-0.895737,105.452271,14.343262,-1.130449,2.878418,13.977051,9.254355,-73.289795,-1.037598,-1.801055,-0.401001,2.746582,-0.469424,2.356567,2.502441,0.0479,-153.006592,1.77002,9.886641,80.216675,-0.061035,0.186812,1.741333,33.447266,8.804092,-19.91272,-14.160156,2.136357,108.303223,-212.097168,-0.05748,-1.186523,59.631348,9.886641,-139.894409,34.912109,-6.662944,-1.796265,-143.371582,0.095801,-6.339111,-29.602051,5.839058,-42.379761,79.89502,7.510781,0,7944,38919,46083,30723,0,0,60164,24326,2817,14338,0,0,0,0,0,0,0,0,0,12801,0,0,0,0,0,61952,0,0,0,0,0,0,0,0,0,659,10461,independent_20260430_210601,trial_001,subject_001,1777554365,277157.0457,2302124,1,0,0,1,17.52396865,638.1457817,848.5819341,105.2534078,631.9331755,844.4166063,22.76004218,414.8154809,901.6329437,83.63482289,409.992284,894.5807419,-121.615366,590.1825526,720.2914203,-99.00701391,628.6951876,421.5298332,-114.1678763,600.5730218,274.847854,-65.96214771,597.6307242,73.71543159,-3.970029767,529.2358796,43.09648083,-21.0325628,801.1202814,58.43453353,222.5132071,525.5855113,696.4469189,194.6151391,471.2284704,397.1198023,212.997488,341.847032,296.0760118,154.3214033,212.9491845,131.8570467,94.60127105,136.6632632,118.3787525,149.2010675,380.4541038,46.12778621,66.50309122,33.49690878,67.22388053,32.77611947,61.85431186,40.72307356,40.21684462,41.2293025,81.44614713,81.44614713,0.419816282,0.419816282,23.18661441,1.9400426
1777554365,15.81462963,3.940074074,16.529074,-11.04663,25.54192593,38.740704,-17.197222,92.015991,7.995605,0.04311,1.472168,7.568359,9.407637,-47.521362,3.051758,0.143701,105.111694,36.682129,0.03832,-1.538086,17.39502,9.690249,-31.431885,-6.225586,-0.895737,105.452271,14.343262,-1.130449,2.878418,13.977051,9.254355,-73.289795,-1.037598,-1.801055,-0.401001,2.746582,-0.469424,2.356567,2.502441,0.0479,-153.006592,1.77002,9.886641,80.216675,-0.061035,0.186812,1.741333,33.447266,8.804092,-19.91272,-14.160156,2.136357,108.303223,-212.097168,-0.05748,-1.186523,59.631348,9.886641,-139.894409,34.912109,-6.662944,-1.796265,-143.371582,0.095801,-6.339111,-29.602051,5.839058,-42.379761,79.89502,7.510781,0,7944,38919,46083,30723,0,0,60164,24326,2817,14338,0,0,0,0,0,0,0,0,0,12801,0,0,0,0,0,61952,0,0,0,0,0,0,0,0,0,659,10461,independent_20260430_210601,trial_001,subject_001,1777554365,277157.056,2302125,1,0,0,1,16.07973876,639.0694409,849.1939365,103.811732,632.6960435,845.299439,20.95702884,415.770344,902.3288287,81.68662388,410.8031568,895.1550675,-123.092225,590.7980903,720.564539,-100.3118001,627.2714895,421.2833037,-115.9158558,598.7651651,275.1744238,-66.61395669,593.6650245,73.78369811,-4.426677361,524.9644263,43.15482958,-21.27584496,796.916894,58.29232258,221.3579264,527.9446866,697.0482485,194.7579436,477.8696492,396.8697839,212.9972437,346.3572765,298.764274,154.4525614,214.1446844,137.303017,94.66003019,137.5615345,128.5840205,149.3995299,378.2072543,45.3562531,66.50309122,33.49690878,67.22388053,32.77611947,61.85431186,40.72307356,40.21684462,41.2293025,81.44614713,81.44614713,0.419816282,0.419816282,23.18661441,1.9400426
1777554365,15.81462963,3.215074074,14.738074,-11.04663,24.99892593,38.740704,-19.460222,92.015991,7.995605,0.04311,1.472168,7.568359,9.407637,-47.521362,3.051758,0.143701,105.836792,36.499023,-0.148491,-1.516113,22.521973,9.742939,-30.975952,-6.835938,-0.895737,106.331177,20.019531,-1.058599,2.60376,9.216309,9.235195,-72.762451,5.371094,-2.174678,-0.401001,2.746582,-0.469424,2.356567,2.502441,0.0479,-153.006592,1.77002,9.886641,80.760498,15.197754,-0.03353,2.25769,18.554688,8.770562,-18.627319,1.220703,2.4525,108.303223,-212.097168,-0.05748,-1.186523,59.631348,9.886641,-139.894409,34.912109,-6.662944,-4.059448,-89.538574,0.03353,-6.553345,-8.850098,6.17436,-40.764771,79.772949,7.041357,0,7944,38919,46083,30723,0,0,60164,24326,2817,14338,0,0,0,0,0,0,0,0,0,12801,0,0,0,0,0,61952,0,0,0,0,0,0,0,0,0,659,10461,independent_20260430_210601,trial_001,subject_001,1777554365,277157.0659,2302126,1,0,0,1,14.55541661,639.7667651,849.6732421,102.2488832,633.2727818,846.0476048,19.08689618,416.4943442,902.81648,79.92679401,411.4042163,895.5775412,-124.6184636,591.0518561,720.7740392,-101.4324056,625.9828157,421.0152592,-117.0817523,597.2037722,274.5468824,-67.18705882,589.5026414,73.66669427,-4.653654632,520.7089091,43.20492983,-21.63389415,792.6951423,58.19664119,220.2572436,530.2376795,697.5860177,195.2748566,484.698164,396.9106069,213.0439095,351.2260434,301.5780039,154.6063901,215.6950085,143.09329,94.07564768,139.754877,139.5038473,149.7125087,376.3887296,44.38973943,66.50309122,33.49690878,67.22388053,32.77611947,61.85431186,40.72307356,40.21684462,41.2293025,81.44614713,81.44614713,0.419816282,0.419816282,23.18661441,1.9400426
1777554365,15.81462963,3.215074074,14.738074,-11.04663,24.99892593,38.740704,-19.460222,92.015991,7.995605,0.04311,1.472168,7.568359,9.407637,-47.521362,3.051758,0.143701,105.836792,36.499023,-0.148491,-1.516113,22.521973,9.742939,-30.975952,-6.835938,-0.895737,106.331177,20.019531,-1.058599,2.60376,9.216309,9.235195,-72.762451,5.371094,-2.174678,-0.401001,2.746582,-0.469424,2.356567,2.502441,0.0479,-153.006592,1.77002,9.886641,80.760498,15.197754,-0.03353,2.25769,18.554688,8.770562,-18.627319,1.220703,2.4525,108.303223,-212.097168,-0.05748,-1.186523,59.631348,9.886641,-139.894409,34.912109,-6.662944,-4.059448,-89.538574,0.03353,-6.553345,-8.850098,6.17436,-40.764771,79.772949,7.041357,0,7944,38919,46083,30723,0,0,60164,24326,2817,14338,0,0,0,0,0,0,0,0,0,12801,0,0,0,0,0,61952,0,0,0,0,0,0,0,0,0,659,10461,independent_20260430_210601,trial_001,subject_001,1777554365,277157.0758,2302127,1,0,0,1,12.94193931,640.2409885,850.0249622,100.6328225,633.6950878,846.7015626,17.50629149,417.1022915,903.2398538,78.46124508,411.861185,896.0255535,-126.1600328,591.2583145,720.8549598,-102.6402155,624.7136709,420.7101353,-118.4000153,595.3866037,274.1894637,-67.67547854,585.6087812,73.57262435,-5.159103157,516.6305211,43.20181403,-21.99595968,788.6264537,58.10142271,219.2362158,532.5083553,698.1298195,195.8623431,491.8029196,397.020536,213.0390563,356.4703003,304.5677896,154.5701016,217.7720606,149.127486,93.52157698,142.5362152,150.9429661,149.9307029,374.6321533,43.32497406,66.50309122,33.49690878,67.22388053,32.77611947,61.85431186,40.72307356,40.21684462,41.2293025,81.44614713,81.44614713,0.419816282,0.419816282,23.18661441,1.9400426
1777554365,16.47962963,1.974074074,14.738074,-11.74463,24.99892593,19.833704,-20.603222,92.680664,-3.78418,-0.737666,1.038208,15.50293,9.79563,-46.18103,6.469727,0.718506,107.078247,39.306641,0.249082,-1.532593,31.921387,9.685459,-30.047607,-8.422852,-1.528022,106.331177,20.019531,-1.058599,2.60376,9.216309,9.235195,-72.762451,5.371094,-2.174678,-0.219727,5.065918,-0.464634,2.444458,2.197266,0.086221,-152.973633,1.77002,10.054292,80.760498,15.197754,-0.03353,2.25769,18.554688,8.770562,-18.627319,1.220703,2.4525,89.780273,-120.117188,0.225132,-3.268433,62.805176,8.018525,-134.022217,-0.12207,-2.308799,-5.202026,-60.974121,0.105381,-6.564331,-7.751465,7.209009,-39.567261,79.406738,8.947793,0,7944,38919,46083,30723,0,0,60164,24326,2817,14338,0,0,0,0,0,0,0,0,0,12801,0,0,0,0,0,61952,0,0,0,0,0,0,0,0,0,659,10461,independent_20260430_210601,trial_001,subject_001,1777554365,277157.086,2302128,1,0,0,1,11.32513339,640.5109392,850.2735124,99.04441877,633.9446858,847.2382544,15.79346937,417.5879896,903.5320626,76.67379028,412.2065513,896.1707276,-127.5823147,591.1694706,720.8181951,-103.8096865,622.9281578,420.2231254,-119.5977567,592.8868075,274.0431282,-68.20002548,581.4724985,73.42080727,-5.444566643,512.3401926,43.23645131,-22.3241021,784.4320721,58.02095971,218.2938704,534.7348004,698.6604121,196.3438132,499.2970646,397.2317665,212.8931347,362.0684653,307.5722983,154.4536625,220.5837774,155.073427,93.12523929,145.8880759,162.558305,150.0472827,373.0535273,42.33688477,66.50309122,33.49690878,67.22388053,32.77611947,61.85431186,40.72307356,40.21684462,41.2293025,81.44614713,81.44614713,0.419816282,0.419816282,23.18661441,1.9400426
1777554365,16.47962963,1.974074074,14.738074,-11.74463,24.99892593,19.833704,-20.603222,92.680664,-3.78418,-0.737666,1.038208,15.50293,9.79563,-46.18103,6.469727,0.718506,107.078247,39.306641,0.249082,-1.532593,31.921387,9.685459,-30.047607,-8.422852,-1.528022,106.331177,20.019531,-1.058599,2.60376,9.216309,9.235195,-72.762451,5.371094,-2.174678,-0.219727,5.065918,-0.464634,2.444458,2.197266,0.086221,-152.973633,1.77002,10.054292,80.760498,15.197754,-0.03353,2.25769,18.554688,8.770562,-18.627319,1.220703,2.4525,89.780273,-120.117188,0.225132,-3.268433,62.805176,8.018525,-134.022217,-0.12207,-2.308799,-5.202026,-60.974121,0.105381,-6.564331,-7.751465,7.209009,-39.567261,79.406738,8.947793,0,7944,38919,46083,30723,0,0,60164,24326,2817,14338,0,0,0,0,0,0,0,0,0,50176,0,0,0,0,0,42496,0,0,0,0,0,0,0,0,0,659,10462,independent_20260430_210601,trial_001,subject_001,1777554365,277157.0959,2302129,1,0,0,1,9.77415053,640.705219,850.4154755,97.45901434,634.0962761,847.6949322,14.19269762,417.819317,903.7097855,75.16430843,412.3599216,896.3588513,-128.986314,590.929975,720.7334718,-104.9935591,620.7060792,419.7422651,-120.0226314,589.7278322,273.5491004,-68.40316026,577.2747548,73.31141705,-5.66564045,508.0168074,43.26617308,-22.58646582,780.1859995,57.95735164,217.3174695,536.8526153,699.1878592,196.8165978,506.974049,397.4701568,212.6551549,367.9351488,310.4672989,153.951347,223.5738517,161.2417813,92.79440107,150.3542234,174.1493874,150.1994746,371.7019903,41.44630915,66.50309122,33.49690878,67.22388053,32.77611947,61.85431186,40.72307356,40.21684462,41.2293025,81.44614713,81.44614713,0.419816282,0.419816282,23.18661441,1.9400426
1777554365,16.47962963,1.974074074,14.738074,-11.74463,24.99892593,19.833704,-20.603222,92.680664,-3.78418,-0.737666,1.038208,15.50293,9.79563,-46.18103,6.469727,0.718506,107.078247,39.306641,0.249082,-1.532593,31.921387,9.685459,-30.047607,-8.422852,-1.528022,106.331177,20.019531,-1.058599,2.60376,9.216309,9.235195,-72.762451,5.371094,-2.174678,-0.219727,5.065918,-0.464634,2.444458,2.197266,0.086221,-152.973633,1.77002,10.054292,80.760498,15.197754,-0.03353,2.25769,18.554688,8.770562,-18.627319,1.220703,2.4525,89.780273,-120.117188,0.225132,-3.268433,62.805176,8.018525,-134.022217,-0.12207,-2.308799,-5.202026,-60.974121,0.105381,-6.564331,-7.751465,7.209009,-39.567261,79.406738,8.947793,0,7944,38919,46083,30723,0,0,60164,24326,2817,14338,0,0,0,0,0,0,0,0,0,50176,0,0,0,0,0,42496,0,0,0,0,0,0,0,0,0,659,10462,independent_20260430_210601,trial_001,subject_001,1777554365,277157.106,2302130,1,0,0,1,8.258130318,640.6852082,850.5802188,95.94335337,634.0772423,848.1182623,12.63434729,417.8889135,903.8598077,73.40605352,412.416789,896.449518,-130.3164759,590.4813483,720.5934419,-106.0687601,618.1529657,419.2880656,-120.7767352,586.0226491,273.4165585,-68.57501895,573.1483512,73.16939719,-5.965646785,503.828805,43.30187343,-22.78471928,775.8936232,57.90036012,216.5685162,539.0100642,699.8243127,197.3051327,514.6756448,397.9197715,212.419216,374.2092424,313.3469232,153.3673739,227.2117891,167.6836691,92.06957167,156.1983835,185.0603582,150.4512564,370.6437944,41.03553938,66.50309122,33.49690878,67.22388053,32.77611947,61.85431186,40.72307356,40.21684462,41.2293025,81.44614713,81.44614713,0.419816282,0.419816282,23.18661441,1.9400426
1777554366,16.47962963,0.716074074,14.321074,-12.35363,24.78392593,19.833704,-4.552222,92.680664,-3.78418,-0.737666,1.038208,15.50293,9.79563,-46.18103,6.469727,0.718506,108.336182,36.132812,0.330513,-1.669922,32.653809,9.388477,-28.800659,-6.591797,-2.035767,107.155151,25.512695,-1.389111,2.27417,5.371094,9.369316,-72.592163,9.338379,-1.695674,-0.005493,7.751465,-0.407153,2.504883,2.563477,0.234712,-152.940674,1.831055,10.092612,80.974731,-1.281738,-0.210762,2.191772,4.150391,9.675879,-18.325195,4.882812,3.932622,89.780273,-120.117188,0.225132,-3.268433,62.805176,8.018525,-134.022217,-0.12207,-2.308799,-7.67395,-67.504883,-0.100591,-7.547607,-43.518066,9.019644,-36.743774,72.875977,11.318862,0,7944,38919,46083,30723,0,0,60164,24326,2817,14338,0,0,0,0,0,0,0,0,0,50176,0,0,0,0,0,42496,0,0,0,0,0,0,0,0,0,659,10462,independent_20260430_210601,trial_001,subject_001,1777554366,277157.116,2302131,1,0,0,1,6.827006502,640.5920095,850.7253772,94.50187947,634.0044057,848.5734835,11.0512538,417.8990195,904.0324573,71.84994174,412.2737286,896.5472166,-131.5845385,589.7588161,720.3903519,-107.2413536,615.1571778,418.9471187,-121.3468661,582.0256203,273.2086918,-68.83191788,568.8492613,73.1924925,-6.018157347,499.6207559,43.34624453,-23.06590825,771.7160419,57.86077135,215.841429,541.2027554,700.5914032,197.7549399,522.3754317,398.6046374,211.950877,380.6564129,316.2203622,152.1974992,231.0089841,173.372266,91.13331825,163.3806201,195.2192543,150.5092095,369.4208966,40.96817144,66.50309122,33.49690878,67.22388053,32.77611947,61.85431186,40.72307356,40.21684462,41.2293025,81.44614713,81.44614713,0.419816282,0.419816282,23.18661441,1.9400426
1777554366,16.28662963,0.716074074,14.129074,-12.35363,25.01492593,16.949704,-3.871222,92.488403,-7.263184,-0.929268,0.741577,12.145996,9.422007,-45.725098,9.033203,0.938848,108.336182,36.132812,0.330513,-1.669922,32.653809,9.388477,-28.800659,-6.591797,-2.035767,108.220825,33.02002,-0.522114,1.834717,8.544922,9.129814,-72.553711,13.244629,-2.007026,-0.005493,7.751465,-0.407153,2.504883,2.563477,0.234712,-152.940674,1.831055,10.092612,80.744019,-6.408691,-1.116079,2.087402,14.221191,9.163345,-18.001099,7.202148,4.986431,87.110596,-68.786621,0.479004,-3.290405,42.480469,7.256909,-132.495117,3.662109,-2.304009,-9.662476,-45.959473,-1.628613,-8.069458,-20.507812,7.788604,-34.821167,50.537109,5.997129,0,7944,38919,46083,30723,0,0,60164,24326,2817,14338,0,0,0,0,0,0,0,0,0,50176,0,0,0,0,0,42496,0,0,0,0,0,0,0,0,0,659,10462,independent_20260430_210601,trial_001,subject_001,1777554366,277157.1259,2302132,1,0,0,1,5.462376994,640.506658,850.9324773,93.14771411,633.8330484,849.1609801,9.370685144,417.7512954,904.2061719,70.21993542,411.9043258,896.5619107,-132.8347349,588.827194,720.1936405,-108.1812811,612.1773153,418.6482281,-121.9451337,578.2306248,273.0811238,-68.87933161,564.540401,73.17046431,-6.203631802,495.3583345,43.34675796,-23.20388516,767.5295729,57.82942538,215.1254743,543.4712374,701.4824979,198.0961534,530.1552016,399.451295,211.9545571,387.1218789,319.2764529,151.0342908,235.5556398,179.2503231,89.96008633,171.8416722,204.663049,150.726111,368.6033976,41.1994378,66.50309122,33.49690878,67.22388053,32.77611947,61.85431186,40.72307356,40.21684462,41.2293025,81.44614713,81.44614713,0.419816282,0.419816282,23.18661441,1.9400426
1777554366,16.28662963,0.716074074,14.129074,-12.35363,25.01492593,16.949704,-3.871222,92.488403,-7.263184,-0.929268,0.741577,12.145996,9.422007,-45.725098,9.033203,0.938848,108.336182,36.132812,0.330513,-1.669922,32.653809,9.388477,-28.800659,-6.591797,-2.035767,108.220825,33.02002,-0.522114,1.834717,8.544922,9.129814,-72.553711,13.244629,-2.007026,-0.005493,7.751465,-0.407153,2.504883,2.563477,0.234712,-152.940674,1.831055,10.092612,80.744019,-6.408691,-1.116079,2.087402,14.221191,9.163345,-18.001099,7.202148,4.986431,87.110596,-68.786621,0.479004,-3.290405,42.480469,7.256909,-132.495117,3.662109,-2.304009,-9.662476,-45.959473,-1.628613,-8.069458,-20.507812,7.788604,-34.821167,50.537109,5.997129,0,7944,38919,46083,30723,0,0,60164,24326,2817,14338,0,0,0,0,0,0,0,0,0,50176,0,0,0,0,0,42496,0,0,0,0,0,0,0,0,0,659,10462,independent_20260430_210601,trial_001,subject_001,1777554366,277157.1457,2302134,1,0,0,1,2.820972609,639.8876441,851.5123465,90.57988009,633.3399358,850.6515373,6.44459671,417.1808866,904.7361462,67.27162989,411.2519801,896.7993656,-135.0969827,586.396552,719.6494224,-109.8972149,606.7102381,418.0046314,-123.0328031,571.2511366,273.0409492,-69.24326179,555.9589754,72.97865889,-6.647318058,486.88026,43.35496997,-23.62550199,759.0654621,57.80530889,213.9947479,548.0005786,703.6812916,198.741138,545.4035021,401.789007,210.8645638,400.7605461,324.2844834,148.3674635,246.1118998,189.2035708,86.11832264,190.8535033,213.1492148,151.4364913,367.1198426,41.79090846,66.50309122,33.49690878,67.22388053,32.77611947,61.85431186,40.72307356,40.21684462,41.2293025,81.44614713,81.44614713,0.419816282,0.419816282,23.18661441,1.9400426
1777554366,16.28662963,0.716074074,14.129074,-12.35363,25.01492593,16.949704,-3.871222,92.488403,-7.263184,-0.929268,0.741577,12.145996,9.422007,-45.725098,9.033203,0.938848,108.336182,36.132812,0.330513,-1.669922,32.653809,9.388477,-28.800659,-6.591797,-2.035767,108.220825,33.02002,-0.522114,1.834717,8.544922,9.129814,-72.553711,13.244629,-2.007026,-0.005493,7.751465,-0.407153,2.504883,2.563477,0.234712,-152.940674,1.831055,10.092612,80.744019,-6.408691,-1.116079,2.087402,14.221191,9.163345,-18.001099,7.202148,4.986431,87.110596,-68.786621,0.479004,-3.290405,42.480469,7.256909,-132.495117,3.662109,-2.304009,-9.662476,-45.959473,-1.628613,-8.069458,-20.507812,7.788604,-34.821167,50.537109,5.997129,0,7944,38919,46083,30723,0,0,60164,24326,2817,14338,0,0,0,0,0,0,0,0,0,50176,0,0,0,0,0,42496,0,0,0,0,0,0,0,0,0,659,10462,independent_20260430_210601,trial_001,subject_001,1777554366,277157.1558,2302135,1,0,0,1,1.595240435,639.5664345,851.8451398,89.31402663,632.9823032,851.4908646,5.283353351,416.6301688,904.9963075,66.13672208,410.6910187,897.0980688,-136.0120586,584.9834522,719.3893328,-110.6142033,604.1641635,417.7317507,-123.3649368,567.9940785,272.9752321,-69.65274611,551.9279808,72.94091098,-6.81320754,482.6117596,43.36291777,-23.96825678,754.7604801,57.78937776,213.5154533,550.1168454,704.8975033,198.9300495,552.7182185,403.2253212,210.2115442,407.6367019,326.5371379,147.2850238,251.8901754,193.6309037,82.94881138,199.8701851,219.8401646,152.3643407,368.4123338,42.81173024,66.50309122,33.49690878,67.22388053,32.77611947,61.85431186,40.72307356,40.21684462,41.2293025,81.44614713,81.44614713,0.419816282,0.419816282,23.18661441,1.9400426
1777554366,16.10562963,-0.552925926,14.118074,-13.18963,25.01492593,15.911704,-3.871222,92.307129,-7.080078,-0.306563,0.466919,14.831543,9.604028,-45.31311,8.789062,1.039438,109.605103,34.545898,-0.172441,-1.768799,18.676758,9.536968,-28.009644,-3.540039,-1.666934,109.47876,38.208008,-0.603545,1.263428,7.385254,9.311836,-72.46582,16.723633,-2.533931,0.22522,9.70459,-0.459844,2.559814,2.563477,0.01916,-152.924194,1.89209,9.977651,80.744019,-6.408691,-1.116079,2.087402,14.221191,9.163345,-18.001099,7.202148,4.986431,85.841675,-14.404297,0.661025,-3.526611,17.51709,6.959927,-131.522827,11.413574,-1.417852,-9.662476,-45.959473,-1.628613,-8.069458,-20.507812,7.788604,-34.821167,50.537109,5.997129,0,7944,38919,46083,30723,0,0,60164,24326,2817,14338,0,0,0,0,0,0,0,0,0,50176,0,0,0,0,0,42496,0,0,0,0,0,0,0,0,0,659,10462,independent_20260430_210601,trial_001,subject_001,1777554366,277157.166,2302136,1,0,0,1,0.31585866,639.0826258,852.2612053,88.08285224,632.5963874,852.4043722,4.10023718,416.1327331,905.2467562,64.8895195,410.1453223,897.2938826,-136.9476021,583.5623181,719.2181715,-111.3916155,601.7137607,417.3967831,-123.8292945,564.9781914,272.7619678,-69.97488503,547.8122259,72.93761092,-6.987077641,478.3525206,43.38964218,-24.22752018,750.567984,57.77678154,212.9498861,552.033516,706.1501333,199.0138006,559.8859312,404.7345422,209.73295,414.4016622,328.7469091,145.2974484,257.3870243,197.2863729,79.77080267,206.8618002,225.2489122,153.3112721,372.5028473,44.19248596,66.50309122,33.49690878,67.22388053,32.77611947,61.85431186,40.72307356,40.21684462,41.2293025,81.44614713,81.44614713,0.419816282,0.419816282,23.18661441,1.9400426
1777554366,16.10562963,-0.552925926,14.118074,-13.18963,25.01492593,15.911704,-3.871222,92.307129,-7.080078,-0.306563,0.466919,14.831543,9.604028,-45.31311,8.789062,1.039438,109.605103,34.545898,-0.172441,-1.768799,18.676758,9.536968,-28.009644,-3.540039,-1.666934,109.47876,38.208008,-0.603545,1.263428,7.385254,9.311836,-72.46582,16.723633,-2.533931,0.22522,9.70459,-0.459844,2.559814,2.563477,0.01916,-152.924194,1.89209,9.977651,80.744019,-6.408691,-1.116079,2.087402,14.221191,9.163345,-18.001099,7.202148,4.986431,85.841675,-14.404297,0.661025,-3.526611,17.51709,6.959927,-131.522827,11.413574,-1.417852,-9.662476,-45.959473,-1.628613,-8.069458,-20.507812,7.788604,-34.821167,50.537109,5.997129,0,7944,38919,46083,30723,0,0,60164,24326,2817,14338,0,0,0,0,0,0,0,0,0,27392,0,0,0,0,0,17408,0,0,0,0,0,0,0,0,0,659,10463,independent_20260430_210601,trial_001,subject_001,1777554366,277157.176,2302137,1,0,0,1,-0.894565743,638.4726303,852.7388133,86.86047911,632.0314185,853.3002359,2.992458507,415.4743785,905.453375,63.88052748,409.5234289,897.5626369,-137.8355883,582.0750927,718.9789275,-111.9657216,599.1441737,417.1953607,-124.3345228,561.8986373,272.7519741,-70.18018176,543.6095829,72.96726654,-7.189240961,474.0475837,43.43143139,-24.45686966,746.158134,57.76547217,212.5940921,553.8214112,707.4942439,198.8990093,566.6817999,406.2863667,209.050863,420.8074205,330.8730073,143.3383948,263.2802717,199.9063058,76.71516703,212.8982768,228.8042619,154.3007714,379.5947672,45.89778172,66.50309122,33.49690878,67.22388053,32.77611947,61.85431186,40.72307356,40.21684462,41.2293025,81.44614713,81.44614713,0.419816282,0.419816282,23.18661441,1.9400426
1777554366,15.77062963,-0.552925926,14.700074,-13.18963,24.59792593,15.911704,-3.245222,91.972046,-12.878418,-0.555645,0.153809,17.39502,9.704619,-44.785767,9.155273,1.053809,109.605103,34.545898,-0.172441,-1.768799,18.676758,9.536968,-28.009644,-3.540039,-1.666934,110.061035,38.757324,-0.680186,0.966797,9.82666,9.513018,-72.427368,18.310547,-2.366279,0.22522,9.70459,-0.459844,2.559814,2.563477,0.01916,-152.924194,1.89209,9.977651,81.161499,14.221191,-0.330513,1.323853,21.789551,8.521479,-16.891479,26.367188,2.850073,85.841675,-14.404297,0.661025,-3.526611,17.51709,6.959927,-131.522827,11.413574,-1.417852,-10.305176,19.226074,0.306563,-8.036499,34.301758,6.619834,-34.151001,4.821777,4.061953,0,7944,38919,46083,30723,0,0,60164,24326,2817,14338,0,0,0,0,0,0,0,0,0,10496,0,0,0,0,0,3072,0,0,0,0,0,0,0,0,0,659,10464,independent_20260430_210601,trial_001,subject_001,1777554366,277157.186,2302138,1,0,0,1,-2.096416731,637.7592487,853.2091692,85.69988793,631.4124227,854.1908014,2.028184543,414.7332751,905.7273316,63.04448976,408.7921323,897.8625304,-138.6191172,580.8001758,718.8514647,-112.6508456,596.3749524,417.0450544,-124.8148532,558.680905,272.5878478,-70.44376963,539.313835,72.91055544,-7.402826446,469.7318469,43.50567408,-24.72594617,741.9324309,57.75780887,212.1725738,555.4241041,708.8743741,198.8073232,573.1736691,408.0592786,208.2275497,426.9719717,333.0116638,143.1956375,269.8253331,202.478137,73.55219268,219.1220281,230.3728267,154.8257681,388.6581091,47.86934223,66.50309122,33.49690878,67.22388053,32.77611947,61.85431186,40.72307356,40.21684462,41.2293025,81.44614713,81.44614713,0.419816282,0.419816282,23.18661441,1.9400426
1777554366,15.77062963,-0.552925926,14.700074,-13.18963,24.59792593,15.911704,-3.245222,91.972046,-12.878418,-0.555645,0.153809,17.39502,9.704619,-44.785767,9.155273,1.053809,109.605103,34.545898,-0.172441,-1.768799,18.676758,9.536968,-28.009644,-3.540039,-1.666934,110.061035,38.757324,-0.680186,0.966797,9.82666,9.513018,-72.427368,18.310547,-2.366279,0.22522,9.70459,-0.459844,2.559814,2.563477,0.01916,-152.924194,1.89209,9.977651,81.161499,14.221191,-0.330513,1.323853,21.789551,8.521479,-16.891479,26.367188,2.850073,85.841675,-14.404297,0.661025,-3.526611,17.51709,6.959927,-131.522827,11.413574,-1.417852,-10.305176,19.226074,0.306563,-8.036499,34.301758,6.619834,-34.151001,4.821777,4.061953,0,7944,38919,46083,30723,0,0,60164,24326,2817,14338,0,0,0,0,0,0,0,0,0,10496,0,0,0,0,0,3072,0,0,0,0,0,0,0,0,0,659,10464,independent_20260430_210601,trial_001,subject_001,1777554366,277157.1958,2302139,1,0,0,1,-2.857741873,637.8917698,853.5204396,84.54944538,630.7656536,855.0472412,1.19492329,413.8804192,905.9749433,62.12952435,408.0777427,898.1938127,-139.264602,579.4182425,718.680392,-113.0860755,593.6579172,416.8559199,-125.202295,555.2638011,272.671514,-70.64566893,535.0038552,72.96073435,-7.633739221,465.3720068,43.59609212,-24.95875215,737.5588707,57.7508473,211.866575,556.9234262,710.3763217,198.6001153,579.3580686,409.887086,207.3315601,433.0643978,334.9067652,141.4893608,277.2579967,202.8707631,70.65655903,226.159795,229.9874035,154.9232558,398.8006951,50.01491759,66.50309122,33.49690878,67.22388053,32.77611947,61.85431186,40.72307356,40.21684462,41.2293025,81.44614713,81.44614713,0.419816282,0.419816282,23.18661441,1.9400426
1777554366,15.77062963,-2.980925926,14.700074,-14.22763,24.59792593,18.306704,-3.245222,91.972046,-12.878418,-0.555645,0.153809,17.39502,9.704619,-44.785767,9.155273,1.053809,112.033081,40.771484,0.215552,-2.164307,20.507812,9.067544,-26.696777,-0.976562,-2.165098,110.061035,38.757324,-0.680186,0.966797,9.82666,9.513018,-72.427368,18.310547,-2.366279,1.027222,13.48877,-0.378413,2.702637,2.807617,0.301772,-152.874756,1.647949,9.992021,81.161499,14.221191,-0.330513,1.323853,21.789551,8.521479,-16.891479,26.367188,2.850073,88.654175,78.00293,1.417852,-4.356079,11.901855,7.889194,-130.918579,7.324219,-2.668052,-10.305176,19.226074,0.306563,-8.036499,34.301758,6.619834,-34.151001,4.821777,4.061953,0,7944,38919,46083,30723,0,0,60164,24326,2817,14338,0,0,0,0,0,0,0,0,0,10496,0,0,0,0,0,3072,0,0,0,0,0,0,0,0,0,659,10464,independent_20260430_210601,trial_001,subject_001,1777554366,277157.216,2302141,1,0,0,1,-5.315354077,635.2867547,854.3686327,82.43078574,629.2173646,856.7365511,-0.588694558,412.076825,906.4346387,60.48517373,406.3583489,899.0388292,-140.4746707,576.6942884,718.3728008,-113.8316088,588.193333,416.5995249,-125.5548025,548.3683275,272.7738802,-70.97591347,526.4590337,73.12896087,-7.947892745,456.5776391,43.69841482,-25.28929376,728.8393133,57.74478054,211.1653458,559.2915357,713.5902601,198.2470423,591.2801147,413.8606575,205.3550831,445.697467,337.0141536,139.2679063,293.3197232,201.677989,68.55594498,240.4238958,227.6401224,154.3791288,421.2203266,52.26002742,66.50309122,33.49690878,67.22388053,32.77611947,61.85431186,40.72307356,40.21684462,41.2293025,81.44614713,81.44614713,0.419816282,0.419816282,23.18661441,1.9400426
1777554366,15.77062963,-2.980925926,14.700074,-14.22763,24.59792593,18.306704,-3.245222,91.972046,-12.878418,-0.555645,0.153809,17.39502,9.704619,-44.785767,9.155273,1.053809,112.033081,40.771484,0.215552,-2.164307,20.507812,9.067544,-26.696777,-0.976562,-2.165098,110.061035,38.757324,-0.680186,0.966797,9.82666,9.513018,-72.427368,18.310547,-2.366279,1.027222,13.48877,-0.378413,2.702637,2.807617,0.301772,-152.874756,1.647949,9.992021,81.161499,14.221191,-0.330513,1.323853,21.789551,8.521479,-16.891479,26.367188,2.850073,88.654175,78.00293,1.417852,-4.356079,11.901855,7.889194,-130.918579,7.324219,-2.668052,-10.305176,19.226074,0.306563,-8.036499,34.301758,6.619834,-34.151001,4.821777,4.061953,0,7944,38919,46083,30723,0,0,60164,24326,2817,14338,0,0,0,0,0,0,0,0,0,10496,0,0,0,0,0,3072,0,0,0,0,0,0,0,0,0,659,10464,independent_20260430_210601,trial_001,subject_001,1777554366,277157.216,2302141,1,0,0,1,-5.315354077,635.2867547,854.3686327,82.43078574,629.2173646,856.7365511,-0.588694558,412.076825,906.4346387,60.48517373,406.3583489,899.0388292,-140.4746707,576.6942884,718.3728008,-113.8316088,588.193333,416.5995249,-125.5548025,548.3683275,272.7738802,-70.97591347,526.4590337,73.12896087,-7.947892745,456.5776391,43.75404709,-25.28929376,728.8393133,57.74371221,211.1653458,559.2915357,713.5902601,198.2470423,591.2801147,413.8606575,205.3550831,445.697467,337.0141536,139.2679063,293.3197232,201.677989,68.55594498,240.4238958,223.9487599,154.3791288,421.2203266,54.51371801,66.50309122,33.49690878,67.22388053,32.77611947,61.85431186,40.72307356,40.21684462,41.2293025,81.44614713,81.44614713,0.419816282,0.419816282,23.18661441,1.9400426
1777554366,15.77062963,-2.980925926,14.700074,-14.22763,24.59792593,18.306704,-3.245222,91.972046,-12.878418,-0.555645,0.153809,17.39502,9.704619,-44.785767,9.155273,1.053809,112.033081,40.771484,0.215552,-2.164307,20.507812,9.067544,-26.696777,-0.976562,-2.165098,110.061035,38.757324,-0.680186,0.966797,9.82666,9.513018,-72.427368,18.310547,-2.366279,1.027222,13.48877,-0.378413,2.702637,2.807617,0.301772,-152.874756,1.647949,9.992021,81.161499,14.221191,-0.330513,1.323853,21.789551,8.521479,-16.891479,26.367188,2.850073,88.654175,78.00293,1.417852,-4.356079,11.901855,7.889194,-130.918579,7.324219,-2.668052,-10.305176,19.226074,0.306563,-8.036499,34.301758,6.619834,-34.151001,4.821777,4.061953,0,7944,38919,46083,30723,0,0,60164,24326,2817,14338,0,0,0,0,0,0,0,0,0,10496,0,0,0,0,0,3072,0,0,0,0,0,0,0,0,0,659,10464,independent_20260430_210601,trial_001,subject_001,1777554366,277157.226,2302142,1,0,0,1,-6.045767504,635.1570134,854.3406262,81.45371755,628.2998836,857.6257405,-1.501565674,411.2300584,906.6457629,59.66141461,405.4759789,899.3462942,-140.9653726,575.2926255,718.2573874,-114.1352938,585.3494579,416.395293,-125.5468912,544.9615903,272.6114151,-71.03765401,522.0997624,73.20803616,-8.456906251,451.6491571,43.82123937,-25.44124588,724.4670677,57.72132228,210.9616237,560.3399142,715.2249006,198.024973,596.9205724,415.9355008,204.6344468,452.2191198,337.329014,138.547004,301.991862,199.9173825,68.23119375,247.9544873,218.3221754,154.1457884,433.6064794,56.65055938,66.50309122,33.49690878,67.22388053,32.77611947,61.85431186,40.72307356,40.21684462,41.2293025,81.44614713,81.44614713,0.419816282,0.419816282,23.18661441,1.9400426
1777554366,14.72662963,-3.766925926,14.502074,-14.01863,24.59792593,19.361704,-3.245222,90.928345,-23.986816,-0.383203,-0.296631,25.146484,9.977651,-43.692627,7.202148,1.834585,112.818604,39.489746,0.378413,-2.345581,25.57373,8.952583,-26.240845,0,-2.48124,113.076782,48.706055,-1.580713,-0.86792,15.319824,9.489067,-72.086792,30.517578,-2.644102,1.235962,14.770508,-0.225132,2.724609,2.01416,0.220342,-152.86377,1.708984,9.929751,81.161499,14.221191,-0.330513,1.323853,21.789551,8.521479,-16.891479,26.367188,2.850073,89.708862,68.054199,0.924478,-4.449463,12.329102,10.945239,-130.737305,6.164551,0.598755,-10.305176,19.226074,0.306563,-8.036499,34.301758,6.619834,-34.151001,4.821777,4.061953,0,7944,38919,46083,30723,0,0,60164,24326,2817,14338,0,0,0,0,0,0,0,0,0,10496,0,0,0,0,0,3072,0,0,0,0,0,0,0,0,0,659,10464,independent_20260430_210601,trial_001,subject_001,1777554366,277157.2459,2302144,1,0,0,1,-7.892507493,632.3544734,855.6689236,79.7852888,626.2853368,859.4861727,-3.373306038,409.1647343,907.0617619,57.66896729,403.3343108,900.1118384,-141.849177,572.5134647,718.0120876,-114.6548489,579.5458695,416.2148018,-125.8762431,537.8997919,272.7197415,-71.3095836,513.4537972,73.22634053,-8.505568271,443.3362159,43.88978409,-25.89089496,715.698484,57.69819219,210.4414448,561.8341864,718.5236903,197.3376234,607.6182031,419.9933297,203.3936513,465.2751302,336.8493059,137.6689591,320.4034443,194.1018789,67.50889958,264.0936117,211.4336287,154.2003159,459.7781315,58.54532209,66.50309122,33.49690878,67.22388053,32.77611947,61.85431186,40.72307356,40.21684462,41.2293025,81.44614713,81.44614713,0.419816282,0.419816282,23.18661441,1.9400426
1777554366,14.72662963,-3.766925926,14.502074,-14.01863,24.59792593,19.361704,-3.245222,90.928345,-23.986816,-0.383203,-0.296631,25.146484,9.977651,-43.692627,7.202148,1.834585,112.818604,39.489746,0.378413,-2.345581,25.57373,8.952583,-26.240845,0,-2.48124,113.076782,48.706055,-1.580713,-0.86792,15.319824,9.489067,-72.086792,30.517578,-2.644102,1.235962,14.770508,-0.225132,2.724609,2.01416,0.220342,-152.86377,1.708984,9.929751,81.161499,14.221191,-0.330513,1.323853,21.789551,8.521479,-16.891479,26.367188,2.850073,89.708862,68.054199,0.924478,-4.449463,12.329102,10.945239,-130.737305,6.164551,0.598755,-10.305176,19.226074,0.306563,-8.036499,34.301758,6.619834,-34.151001,4.821777,4.061953,0,7944,38919,46083,30723,0,0,60164,24326,2817,14338,0,0,0,0,0,0,0,0,0,10496,0,0,0,0,0,3072,0,0,0,0,0,0,0,0,0,659,10464,independent_20260430_210601,trial_001,subject_001,1777554366,277157.2661,2302146,1,0,0,1,-8.680340905,631.2011047,856.49309,78.59557023,623.9644768,861.2565313,-5.186640988,407.1002609,907.4764994,56.12209358,401.1120365,900.767839,-142.6805677,569.3877125,717.8206564,-115.5161135,572.8992822,415.9676568,-126.5547956,530.601808,272.6907274,-71.5803219,504.6573378,73.25784926,-8.463194652,434.8715051,43.95809695,-26.36805329,706.8057548,57.67378104,209.9405606,562.380678,721.4857249,196.566469,617.2193653,423.9739578,202.5183551,478.3248704,335.223304,137.3192921,340.1838384,185.5198734,67.46873194,282.3458388,202.975825,155.733581,488.4570926,60.02877173,66.50309122,33.49690878,67.22388053,32.77611947,61.85431186,40.72307356,40.21684462,41.2293025,81.44614713,81.44614713,0.419816282,0.419816282,23.18661441,1.9400426
1777554366,14.72662963,-3.766925926,14.502074,-14.01863,24.59792593,19.361704,-3.245222,90.928345,-23.986816,-0.383203,-0.296631,25.146484,9.977651,-43.692627,7.202148,1.834585,112.818604,39.489746,0.378413,-2.345581,25.57373,8.952583,-26.240845,0,-2.48124,113.076782,48.706055,-1.580713,-0.86792,15.319824,9.489067,-72.086792,30.517578,-2.644102,1.235962,14.770508,-0.225132,2.724609,2.01416,0.220342,-152.86377,1.708984,9.929751,81.161499,14.221191,-0.330513,1.323853,21.789551,8.521479,-16.891479,26.367188,2.850073,89.708862,68.054199,0.924478,-4.449463,12.329102,10.945239,-130.737305,6.164551,0.598755,-10.305176,19.226074,0.306563,-8.036499,34.301758,6.619834,-34.151001,4.821777,4.061953,0,7944,38919,46083,30723,0,0,60164,24326,2817,14338,0,0,0,0,0,0,0,0,0,0,0,0,0,0,0,0,0,0,0,0,0,0,0,0,0,659,10465,independent_20260430_210601,trial_001,subject_001,1777554366,277157.2759,2302147,1,0,0,1,-9.119324244,630.0232432,856.8359762,78.1094115,622.7724643,862.034892,-5.997345664,406.0187551,907.701572,55.00043211,399.796523,901.021545,-143.0809848,567.7588716,717.6955265,-115.9804077,569.4535526,415.8468042,-126.9073443,526.7685375,272.7059892,-71.94415995,500.3168186,73.32669105,-8.798756262,430.4785173,44.0215175,-26.59381385,702.4184605,57.65458904,209.7842507,562.5053383,722.8695047,196.2453035,621.5952838,425.957765,202.3529765,484.7789468,333.8586743,137.4589762,350.7136291,180.3713742,67.51254027,292.3194002,194.4361496,156.9993489,503.2159419,60.81028689,66.50309122,33.49690878,67.22388053,32.77611947,61.85431186,40.72307356,40.21684462,41.2293025,81.44614713,81.44614713,0.419816282,0.419816282,23.18661441,1.9400426
1777554366,14.72662963,-4.743925926,14.502074,-16.50163,23.44892593,19.124704,0.682778,90.928345,-23.986816,-0.383203,-0.296631,25.146484,9.977651,-43.692627,7.202148,1.834585,113.796387,30.029297,-0.143701,-2.69165,30.761719,9.992021,-25.411377,-0.976562,-3.046465,113.076782,48.706055,-1.580713,-0.86792,15.319824,9.489067,-72.086792,30.517578,-2.644102,1.768799,16.662598,-0.929268,2.741089,0.427246,0.162861,-152.84729,1.403809,10.399175,82.30957,37.597656,0.201182,-0.834961,16.296387,9.101074,-15.05127,32.897949,0.775986,90.620728,22.094727,-4.052373,-4.394531,48.522949,13.392949,-129.512329,-4.760742,5.216353,-2.510376,108.520508,-8.186177,-0.351562,55.114746,1.010698,-33.277588,-0.732422,15.92688,0,7944,38919,46083,30723,0,0,60164,24326,2817,14338,0,0,0,0,0,0,0,0,0,0,0,0,0,0,0,0,0,0,0,0,0,0,0,0,0,659,10465,independent_20260430_210601,trial_001,subject_001,1777554366,277157.2857,2302148,1,0,0,1,-9.519770392,628.8033217,857.1543322,77.68480808,621.5510938,862.7524253,-6.998680697,404.6926081,907.8820287,54.26189794,398.5307977,901.2187664,-143.3723604,566.1289099,717.6018939,-116.4645332,565.8512744,415.7459025,-127.2722096,522.8001335,272.6680281,-72.06964913,496.0051081,73.39880735,-8.989700463,426.0928367,44.0905762,-26.79065441,697.9895036,57.64124733,209.7123127,562.4953372,724.1858572,196.0171198,625.6183463,427.898948,202.401884,491.3167609,332.2742912,137.6193935,361.6354219,174.6329417,67.74612718,302.8517439,184.5215518,158.5074176,518.1427713,61.21064363,66.50309122,33.49690878,67.22388053,32.77611947,61.85431186,40.72307356,40.21684462,41.2293025,81.44614713,81.44614713,0.419816282,0.419816282,23.18661441,1.9400426
1777554366,14.43562963,-5.375925926,15.195074,-16.50163,22.82292593,19.124704,4.186778,90.637207,2.685547,-0.215552,-0.461426,22.766113,10.504556,-42.813721,3.723145,0.617915,114.428101,10.742188,-1.120869,-2.845459,22.705078,11.00751,-24.466553,-9.70459,-2.294429,114.746704,60.546875,-1.777104,-1.906128,4.455566,9.77168,-72.284546,36.621094,-2.131567,1.768799,16.662598,-0.929268,2.741089,0.427246,0.162861,-152.84729,1.403809,10.399175,82.935791,-18.371582,0.775986,-1.428223,76.660156,15.308965,-13.64502,15.563965,4.416416,90.620728,22.094727,-4.052373,-4.394531,48.522949,13.392949,-129.512329,-4.760742,5.216353,1.906128,122.436523,-0.479004,0.137329,-5.737305,2.030977,-33.305054,3.723145,11.989468,0,7944,38919,46083,30723,0,0,60164,24326,2817,14338,0,0,0,0,0,0,0,0,0,0,0,0,0,0,0,0,0,0,0,0,0,0,0,0,0,659,10465,independent_20260430_210601,trial_001,subject_001,1777554366,277157.2959,2302149,1,0,0,1,-9.90808731,627.5223664,857.3881504,77.26173158,620.2748469,863.3789609,-7.855440256,403.4570122,908.1147615,53.53453659,397.3421776,901.4223633,-143.7146806,564.2604663,717.5610403,-116.9451891,562.251184,415.5945541,-127.5460081,518.7972596,272.6270813,-72.41988584,491.7089352,73.50799645,-9.003941361,421.7242918,44.15445018,-27.00483575,693.6449003,57.63881962,209.544905,562.2836952,725.4794679,195.8218102,629.2710604,429.7625048,202.5830956,497.7840762,330.2250442,138.1919432,372.8562816,168.7234347,68.13574926,313.9006729,173.9607054,160.4978284,533.2357826,61.19087719,66.50309122,33.49690878,67.22388053,32.77611947,61.85431186,40.72307356,40.21684462,41.2293025,81.44614713,81.44614713,0.419816282,0.419816282,23.18661441,1.9400426
1777554366,14.43562963,-5.375925926,15.195074,-16.50163,22.82292593,19.124704,4.186778,90.637207,2.685547,-0.215552,-0.461426,22.766113,10.504556,-42.813721,3.723145,0.617915,114.428101,10.742188,-1.120869,-2.845459,22.705078,11.00751,-24.466553,-9.70459,-2.294429,114.746704,60.546875,-1.777104,-1.906128,4.455566,9.77168,-72.284546,36.621094,-2.131567,1.768799,16.662598,-0.929268,2.741089,0.427246,0.162861,-152.84729,1.403809,10.399175,82.935791,-18.371582,0.775986,-1.428223,76.660156,15.308965,-13.64502,15.563965,4.416416,90.620728,22.094727,-4.052373,-4.394531,48.522949,13.392949,-129.512329,-4.760742,5.216353,1.906128,122.436523,-0.479004,0.137329,-5.737305,2.030977,-33.305054,3.723145,11.989468,0,7944,38919,46083,30723,0,0,60164,24326,2817,14338,0,0,0,0,0,0,0,0,0,0,0,0,0,0,0,0,0,0,0,0,0,0,0,0,0,659,10465,independent_20260430_210601,trial_001,subject_001,1777554366,277157.3058,2302150,1,0,0,1,-10.3007043,626.2576216,857.5666246,76.85510616,618.9009982,863.890669,-8.599412704,402.1955236,908.3327332,52.63100485,395.9523104,901.6328924,-144.03144,562.4498378,717.5235515,-117.5013907,558.6647588,415.530792,-128.0487685,514.842426,272.5662552,-72.48709,487.1703087,73.37190865,-8.867108957,417.1229553,44.20620968,-27.24140023,689.2789382,57.64656127,209.4114304,562.0120688,726.6904516,195.7675797,632.5998584,431.5384885,202.9662712,504.2682645,327.8659746,138.9627684,384.4889376,162.418058,68.77396208,325.1803625,162.9443136,162.4142668,548.3968433,60.94233329,66.50309122,33.49690878,67.22388053,32.77611947,61.85431186,40.72307356,40.21684462,41.2293025,81.44614713,81.44614713,0.419816282,0.419816282,23.18661441,1.9400426
1777554366,14.57362963,-5.375925926,16.870074,-17.57263,23.91592593,19.948704,4.186778,90.774536,0.183105,0.110171,-0.521851,9.521484,10.609937,-42.319336,-0.671387,-0.996328,114.428101,10.742188,-1.120869,-2.845459,22.705078,11.00751,-24.466553,-9.70459,-2.294429,117.053833,67.932129,-0.723296,-3.339844,15.991211,10.356064,-72.531738,42.358398,-2.040557,2.367554,19.348145,-0.565225,2.697144,-1.159668,-0.249082,-152.84729,0.976562,9.929751,81.842651,-17.333984,-4.090693,-0.593262,125.12207,10.99314,-9.190063,-13.61084,5.178032,92.070923,71.289062,-2.720742,-4.394531,36.560059,10.231523,-128.161011,1.953125,-3.228486,1.906128,122.436523,-0.479004,0.137329,-5.737305,2.030977,-33.305054,3.723145,11.989468,0,7944,38919,46083,30723,0,0,60164,24326,2817,14338,0,0,0,0,0,0,0,0,0,0,0,0,0,0,0,0,0,0,0,0,0,0,0,0,0,659,10465,independent_20260430_210601,trial_001,subject_001,1777554366,277157.3157,2302151,1,0,0,1,-10.72871789,624.8779907,857.6793693,76.41546255,617.5595944,864.3576408,-9.064325163,400.9271669,908.5542634,52.10085824,394.5454392,901.9816929,-144.3854642,560.4384267,717.3633461,-118.009796,555.0002687,415.4358788,-128.323867,510.7833253,272.5651702,-72.57551366,482.902266,73.35356315,-8.818444347,412.8305657,44.25305563,-27.49531651,684.9611578,57.65797522,209.3518695,561.6818355,727.8451588,195.9651408,635.774905,433.3442348,203.5301214,510.6718628,325.4834762,139.8473289,396.2226147,155.8853614,69.55973806,337.329165,151.7212064,164.4317864,563.6493683,60.62610789,66.50309122,33.49690878,67.22388053,32.77611947,61.85431186,40.72307356,40.21684462,41.2293025,81.44614713,81.44614713,0.419816282,0.419816282,23.18661441,1.9400426
1777554366,14.57362963,-5.375925926,16.870074,-17.57263,23.91592593,19.948704,4.186778,90.774536,0.183105,0.110171,-0.521851,9.521484,10.609937,-42.319336,-0.671387,-0.996328,114.428101,10.742188,-1.120869,-2.845459,22.705078,11.00751,-24.466553,-9.70459,-2.294429,117.053833,67.932129,-0.723296,-3.339844,15.991211,10.356064,-72.531738,42.358398,-2.040557,2.367554,19.348145,-0.565225,2.697144,-1.159668,-0.249082,-152.84729,0.976562,9.929751,81.842651,-17.333984,-4.090693,-0.593262,125.12207,10.99314,-9.190063,-13.61084,5.178032,92.070923,71.289062,-2.720742,-4.394531,36.560059,10.231523,-128.161011,1.953125,-3.228486,1.906128,122.436523,-0.479004,0.137329,-5.737305,2.030977,-33.305054,3.723145,11.989468,0,7944,38919,46083,30723,0,0,60164,24326,2817,14338,0,0,0,0,0,0,0,0,0,0,0,0,0,0,0,0,0,0,0,0,0,0,0,0,0,659,10465,independent_20260430_210601,trial_001,subject_001,1777554366,277157.3259,2302152,1,0,0,1,-11.1784822,623.4707449,857.7434086,75.93244157,616.1616536,864.6919081,-9.573239515,399.5885315,908.6816887,51.48492442,393.1743712,902.1903884,-144.7790563,558.3342255,717.2784744,-118.450899,551.2010171,415.2932162,-128.9434092,506.7101154,272.8068899,-72.90761271,478.4091532,73.48787371,-9.028108536,408.5187098,44.30458032,-27.65517611,680.5555675,57.66299897,209.2557397,561.1560445,728.9292837,195.7999125,638.3222835,434.8279135,204.1006964,517.1508745,322.9482535,141.5632479,408.4276623,149.3787047,70.7429046,349.6397708,140.5530967,166.1880033,579.0383431,60.31203797,66.50309122,33.49690878,67.22388053,32.77611947,61.85431186,40.72307356,40.21684462,41.2293025,81.44614713,81.44614713,0.419816282,0.419816282,23.18661441,1.9400426
1777554366,14.57362963,-5.375925926,16.870074,-17.57263,23.91592593,19.948704,4.186778,90.774536,0.183105,0.110171,-0.521851,9.521484,10.609937,-42.319336,-0.671387,-0.996328,114.428101,10.742188,-1.120869,-2.845459,22.705078,11.00751,-24.466553,-9.70459,-2.294429,117.053833,67.932129,-0.723296,-3.339844,15.991211,10.356064,-72.531738,42.358398,-2.040557,2.367554,19.348145,-0.565225,2.697144,-1.159668,-0.249082,-152.84729,0.976562,9.929751,81.842651,-17.333984,-4.090693,-0.593262,125.12207,10.99314,-9.190063,-13.61084,5.178032,92.070923,71.289062,-2.720742,-4.394531,36.560059,10.231523,-128.161011,1.953125,-3.228486,1.906128,122.436523,-0.479004,0.137329,-5.737305,2.030977,-33.305054,3.723145,11.989468,0,7944,38919,46083,30723,0,0,60164,24326,2817,14338,0,0,0,0,0,0,0,0,0,0,0,0,0,0,0,0,0,0,0,0,0,0,0,0,0,659,10465,independent_20260430_210601,trial_001,subject_001,1777554366,277157.3457,2302154,1,0,0,1,-12.25905436,620.445551,857.6776253,74.8468399,613.3857213,865.1211296,-10.48609315,396.6747455,908.9160868,50.72459636,390.4880772,902.5240733,-145.4978244,553.8886544,717.0065184,-119.492561,544.2772061,415.0082439,-129.707761,498.8563191,272.7190775,-73.12181799,469.6851744,73.43318123,-9.956859013,399.2898785,44.36927814,-27.96610368,671.8652499,57.65557243,209.0105401,559.7699507,730.7416197,196.0219228,642.7193253,437.8371382,205.495258,529.5901188,318.1434881,144.1856778,433.4609087,136.2419796,73.69307995,375.3719418,129.4781359,170.0585636,609.983201,60.23016549,66.50309122,33.49690878,67.22388053,32.77611947,61.85431186,40.72307356,40.21684462,41.2293025,81.44614713,81.44614713,0.419816282,0.419816282,23.18661441,1.9400426
1777554366,14.57362963,-5.375925926,16.870074,-17.57263,23.91592593,19.948704,4.186778,90.774536,0.183105,0.110171,-0.521851,9.521484,10.609937,-42.319336,-0.671387,-0.996328,114.428101,10.742188,-1.120869,-2.845459,22.705078,11.00751,-24.466553,-9.70459,-2.294429,117.053833,67.932129,-0.723296,-3.339844,15.991211,10.356064,-72.531738,42.358398,-2.040557,2.367554,19.348145,-0.565225,2.697144,-1.159668,-0.249082,-152.84729,0.976562,9.929751,81.842651,-17.333984,-4.090693,-0.593262,125.12207,10.99314,-9.190063,-13.61084,5.178032,92.070923,71.289062,-2.720742,-4.394531,36.560059,10.231523,-128.161011,1.953125,-3.228486,1.906128,122.436523,-0.479004,0.137329,-5.737305,2.030977,-33.305054,3.723145,11.989468,0,7944,38919,46083,30723,0,0,60164,24326,2817,14338,0,0,0,0,0,0,0,0,0,0,0,0,0,0,0,52736,0,0,0,0,0,0,0,0,0,659,10466,independent_20260430_210601,trial_001,subject_001,1777554366,277157.3561,2302155,1,0,0,1,-12.83997466,618.9757493,857.6113394,74.26317634,612.0327073,865.2774307,-10.98437716,395.428715,908.9978282,50.33183919,389.1353035,902.7489158,-145.9762671,551.7711746,716.8056918,-120.0129587,540.8602056,414.8858428,-129.6905601,494.8857962,272.3893135,-73.43421434,465.4355701,73.50139973,-10.14841995,394.933628,44.43190722,-28.43346323,667.4106551,57.63740305,209.0379779,558.9861267,731.5152653,196.1408904,644.3668058,439.3052689,206.2741618,535.6810169,315.7656518,146.3659156,446.3810586,130.0085007,75.61561161,388.350054,119.1550918,171.8013112,625.4613292,60.13891188,66.50309122,33.49690878,67.22388053,32.77611947,61.85431186,40.72307356,40.21684462,41.2293025,81.44614713,81.44614713,0.419816282,0.419816282,23.18661441,1.9400426
1777554366,14.57362963,-5.375925926,16.870074,-17.57263,23.91592593,19.948704,4.186778,90.774536,0.183105,0.110171,-0.521851,9.521484,10.609937,-42.319336,-0.671387,-0.996328,114.428101,10.742188,-1.120869,-2.845459,22.705078,11.00751,-24.466553,-9.70459,-2.294429,117.053833,67.932129,-0.723296,-3.339844,15.991211,10.356064,-72.531738,42.358398,-2.040557,2.367554,19.348145,-0.565225,2.697144,-1.159668,-0.249082,-152.84729,0.976562,9.929751,81.842651,-17.333984,-4.090693,-0.593262,125.12207,10.99314,-9.190063,-13.61084,5.178032,92.070923,71.289062,-2.720742,-4.394531,36.560059,10.231523,-128.161011,1.953125,-3.228486,1.906128,122.436523,-0.479004,0.137329,-5.737305,2.030977,-33.305054,3.723145,11.989468,0,7944,38919,46083,30723,0,0,60164,24326,2817,14338,0,0,0,0,0,0,0,0,0,17666,0,0,0,0,0,27654,0,0,0,0,0,0,0,0,0,659,10467,independent_20260430_210601,trial_001,subject_001,1777554366,277157.3758,2302157,1,0,0,1,-14.07965386,616.0443873,857.3573235,73.02743513,609.4595626,865.4340873,-11.45392119,392.5700749,909.2825835,49.84633748,386.4771114,903.0941924,-146.7225613,547.3090237,716.4018567,-120.7676224,533.8276166,414.4847298,-130.3943655,487.2866756,272.2284437,-73.56740074,456.7224135,73.38134145,-10.77291751,385.9890016,44.47445447,-28.86951855,658.7829061,57.61790426,209.0057436,557.3101931,732.9941429,196.3417854,646.7336063,441.9699896,207.6385656,547.9300567,310.862898,149.8853379,472.5755668,118.0733312,79.6535163,415.4597719,109.8276567,175.1257573,656.1400471,59.93857779,66.50309122,33.49690878,67.22388053,32.77611947,61.85431186,40.72307356,40.21684462,41.2293025,81.44614713,81.44614713,0.419816282,0.419816282,23.18661441,1.9400426
1777554366,14.57362963,-5.375925926,16.870074,-17.57263,23.91592593,19.948704,4.186778,90.774536,0.183105,0.110171,-0.521851,9.521484,10.609937,-42.319336,-0.671387,-0.996328,114.428101,10.742188,-1.120869,-2.845459,22.705078,11.00751,-24.466553,-9.70459,-2.294429,117.053833,67.932129,-0.723296,-3.339844,15.991211,10.356064,-72.531738,42.358398,-2.040557,2.367554,19.348145,-0.565225,2.697144,-1.159668,-0.249082,-152.84729,0.976562,9.929751,81.842651,-17.333984,-4.090693,-0.593262,125.12207,10.99314,-9.190063,-13.61084,5.178032,92.070923,71.289062,-2.720742,-4.394531,36.560059,10.231523,-128.161011,1.953125,-3.228486,1.906128,122.436523,-0.479004,0.137329,-5.737305,2.030977,-33.305054,3.723145,11.989468,0,7944,38919,46083,30723,0,0,60164,24326,2817,14338,0,0,0,0,0,0,0,0,0,17666,0,0,0,0,0,27654,0,0,0,0,0,0,0,0,0,659,10467,independent_20260430_210601,trial_001,subject_001,1777554366,277157.386,2302158,1,0,0,1,-14.66098641,614.7166577,857.2358213,72.448301,608.2151941,865.5053536,-11.70975497,391.2187733,909.3724663,49.6394691,385.2281996,903.3298066,-147.0845046,545.021373,716.2187749,-121.2034672,530.3861311,414.3564926,-130.7768834,483.4778391,272.3742942,-74.03536324,452.5147434,73.50848028,-10.84844141,381.5426852,44.55874506,-29.07723349,654.4096148,57.57514544,209.0580194,556.3832685,733.6589028,196.366409,647.6620681,443.0181531,208.6450173,553.925265,308.5976786,151.8281777,485.7653406,112.7189198,81.57104191,429.7241813,101.0163357,176.6895808,671.3963028,60.21753147,66.50309122,33.49690878,67.22388053,32.77611947,61.85431186,40.72307356,40.21684462,41.2293025,81.44614713,81.44614713,0.419816282,0.419816282,23.18661441,1.9400426
1777554366,14.74862963,-5.309925926,19.474074,-17.57263,23.91092593,19.948704,4.631778,90.950317,4.760742,-0.162861,-0.346069,5.981445,11.807446,-42.132568,-5.79834,-0.627495,114.362183,-7.324219,-0.747246,-2.8125,12.573242,11.510464,-23.80188,-6.103516,-2.792593,119.591675,75.683594,1.19272,-5.169067,32.836914,11.294912,-72.713013,57.922363,-3.362607,2.367554,19.348145,-0.565225,2.697144,-1.159668,-0.249082,-152.84729,0.976562,9.929751,81.848145,9.338379,-3.420088,-0.230713,91.796875,8.832832,-7.739868,-7.507324,-0.062271,92.070923,71.289062,-2.720742,-4.394531,36.560059,10.231523,-128.161011,1.953125,-3.228486,3.80127,12.390137,0.354463,-0.318604,-12.207031,2.677632,-33.173218,2.807617,12.755874,0,7944,38919,46083,30723,0,0,60164,24326,2817,14338,0,0,0,0,0,0,0,0,0,17666,0,0,0,0,0,27654,0,0,0,0,0,0,0,0,0,659,10467,independent_20260430_210601,trial_001,subject_001,1777554366,277157.4059,2302160,1,0,0,1,-15.78785542,611.9126473,856.9185978,71.34908891,605.7626172,865.5668273,-12.08159216,388.6645984,909.5846561,49.16428958,382.764826,903.8418948,-147.7781885,540.6424693,715.8141862,-121.9600576,523.8077856,414.0574984,-131.6955351,475.828641,272.386939,-74.16041811,443.5636685,73.4983948,-11.39070866,373.0126706,44.65237243,-29.58112961,645.5997046,57.51928842,209.0778432,554.5480945,734.7642049,196.3262891,649.1406423,444.7347948,210.5053858,565.6569995,304.1151463,155.6063975,511.9161834,103.2088194,85.62599514,456.5734463,92.42850807,179.5255476,701.109044,61.05203438,66.50309122,33.49690878,67.22388053,32.77611947,61.85431186,40.72307356,40.21684462,41.2293025,81.44614713,81.44614713,0.419816282,0.419816282,23.18661441,1.9400426
1777554366,14.74862963,-5.309925926,19.474074,-17.57263,23.91092593,19.948704,4.631778,90.950317,4.760742,-0.162861,-0.346069,5.981445,11.807446,-42.132568,-5.79834,-0.627495,114.362183,-7.324219,-0.747246,-2.8125,12.573242,11.510464,-23.80188,-6.103516,-2.792593,119.591675,75.683594,1.19272,-5.169067,32.836914,11.294912,-72.713013,57.922363,-3.362607,2.367554,19.348145,-0.565225,2.697144,-1.159668,-0.249082,-152.84729,0.976562,9.929751,81.848145,9.338379,-3.420088,-0.230713,91.796875,8.832832,-7.739868,-7.507324,-0.062271,92.070923,71.289062,-2.720742,-4.394531,36.560059,10.231523,-128.161011,1.953125,-3.228486,3.80127,12.390137,0.354463,-0.318604,-12.207031,2.677632,-33.173218,2.807617,12.755874,0,7944,38919,46083,30723,0,0,60164,24326,2817,14338,0,0,0,0,0,0,0,0,0,17666,0,0,0,0,0,27654,0,0,0,0,0,0,0,0,0,659,10467,independent_20260430_210601,trial_001,subject_001,1777554366,277157.4059,2302160,1,0,0,1,-15.78785542,611.9126473,856.9185978,71.34908891,605.7626172,865.5668273,-12.08159216,388.6645984,909.5846561,49.16428958,382.764826,903.8418948,-147.7781885,540.6424693,715.8141862,-121.9600576,523.8077856,414.0574984,-131.6955351,475.828641,272.386939,-74.16041811,443.5636685,73.4983948,-11.39070866,373.0126706,44.76275204,-29.58112961,645.5997046,57.45644343,209.0778432,554.5480945,734.7642049,196.3262891,649.1406423,444.7347948,210.5053858,565.6569995,304.1151463,155.6063975,511.9161834,103.2088194,85.62599514,456.5734463,84.53140866,179.5255476,701.109044,62.44609372,66.50309122,33.49690878,67.22388053,32.77611947,61.85431186,40.72307356,40.21684462,41.2293025,81.44614713,81.44614713,0.419816282,0.419816282,23.18661441,1.9400426
1777554366,14.74862963,-4.716925926,19.474074,-17.57263,22.60292593,19.948704,5.812778,90.950317,4.760742,-0.162861,-0.346069,5.981445,11.807446,-42.132568,-5.79834,-0.627495,113.768921,-23.55957,0.972378,-2.680664,13.061523,11.946357,-23.26355,-11.535645,-4.066743,119.591675,75.683594,1.19272,-5.169067,32.836914,11.294912,-72.713013,57.922363,-3.362607,2.367554,19.348145,-0.565225,2.697144,-1.159668,-0.249082,-152.84729,0.976562,9.929751,83.155518,30.822754,0,-0.692139,-41.687012,7.036567,-7.613525,31.921387,-5.733677,92.070923,71.289062,-2.720742,-4.394531,36.560059,10.231523,-128.161011,1.953125,-3.228486,4.9823,15.991211,0.641865,-0.796509,-6.530762,1.417852,-33.112793,0.793457,10.202783,0,7944,38919,46083,30723,0,0,60164,24326,2817,14338,0,0,0,0,0,0,0,0,0,17666,0,0,0,0,0,27654,0,0,0,0,0,0,0,0,0,659,10467,independent_20260430_210601,trial_001,subject_001,1777554366,277157.4159,2302161,1,0,0,1,-16.28755993,610.5218307,856.7341964,70.87069908,604.5462397,865.5625243,-12.12284641,387.3691262,909.7759698,49.15797158,381.5512873,903.9307273,-148.081805,538.5446738,715.5478396,-122.3407491,520.4829455,413.9505631,-131.6757004,471.9855442,272.1798283,-74.38572683,439.1937358,73.54518203,-11.63069177,368.6288821,44.8866933,-29.79238613,641.2454423,57.38621903,209.1150311,553.5878872,735.2430475,196.3611559,649.7563509,445.4736659,211.5110714,571.45165,302.2183782,157.5148578,524.8557227,99.15763038,87.60712479,470.0795148,77.40584725,180.7168101,715.399003,64.41827114,66.50309122,33.49690878,67.22388053,32.77611947,61.85431186,40.72307356,40.21684462,41.2293025,81.44614713,81.44614713,0.419816282,0.419816282,23.18661441,1.9400426
1777554366,14.74862963,-3.766925926,19.474074,-17.57263,21.10892593,19.948704,5.994778,90.950317,4.760742,-0.162861,-0.346069,5.981445,11.807446,-42.132568,-5.79834,-0.627495,112.818604,-34.729004,2.941084,-2.537842,23.925781,10.97877,-22.626343,-12.145996,-2.280059,119.591675,75.683594,1.19272,-5.169067,32.836914,11.294912,-72.713013,57.922363,-3.362607,2.367554,19.348145,-0.565225,2.697144,-1.159668,-0.249082,-152.84729,0.976562,9.929751,84.649658,69.519043,0.00479,-1.950073,-40.466309,10.154883,-8.525391,33.325195,-0.110171,92.070923,71.289062,-2.720742,-4.394531,36.560059,10.231523,-128.161011,1.953125,-3.228486,5.163574,12.023926,0.962798,-0.818481,-0.671387,1.025068,-33.134766,-1.586914,9.896221,0,7944,38919,46083,30723,0,0,60164,24326,2817,14338,0,0,0,0,0,0,0,0,0,17666,0,0,0,0,0,27654,0,0,0,0,0,0,0,0,0,659,10467,independent_20260430_210601,trial_001,subject_001,1777554366,277157.4258,2302162,1,0,0,1,-16.71565955,609.1904478,856.572962,70.46288723,603.4141598,865.5401606,-12.32070778,386.2209452,909.9032121,48.87706266,380.4548754,904.1522588,-148.2863261,536.4118183,715.3976842,-122.6490266,517.0442764,413.7458139,-132.1406861,468.2763198,272.289932,-74.54131293,434.7947549,73.50506518,-11.80012575,364.2392781,45.01471269,-29.85687547,636.8946541,57.31735094,209.1873719,552.5727037,735.5899724,196.2087968,649.9067974,446.235291,212.4358498,577.0186597,300.5311097,159.2630703,537.5376437,95.58412762,89.82261874,483.1405314,71.14806079,181.9541762,729.2654848,66.97871756,66.50309122,33.49690878,67.22388053,32.77611947,61.85431186,40.72307356,40.21684462,41.2293025,81.44614713,81.44614713,0.419816282,0.419816282,23.18661441,1.9400426
1777554366,14.23762963,-1.881925926,26.307074,-17.57263,19.68692593,19.948704,6.296778,90.439453,-7.202148,-0.095801,-0.505371,18.005371,10.015972,-41.11084,10.620117,-0.991538,110.934448,-70.983887,3.487148,-2.735596,42.114258,10.193203,-21.291504,-3.112793,-0.799937,124.881592,96.984863,2.744692,-10.008545,85.571289,10.691367,-71.202393,42.480469,-1.662144,2.367554,19.348145,-0.565225,2.697144,-1.159668,-0.249082,-152.84729,0.976562,9.929751,86.072388,66.162109,-0.220342,-2.581787,-68.237305,11.577524,-9.733887,26.489258,-2.007026,92.070923,71.289062,-2.720742,-4.394531,36.560059,10.231523,-128.161011,1.953125,-3.228486,5.465698,7.019043,-0.263452,-0.889893,-1.953125,1.005908,-33.189697,0.305176,10.336904,0,7944,38919,46083,30723,0,0,60164,24326,2817,14338,0,0,0,0,0,0,0,0,0,17666,0,0,0,0,0,27654,0,0,0,0,0,0,0,0,0,659,10467,independent_20260430_210601,trial_001,subject_001,1777554366,277157.4359,2302163,1,0,0,1,-17.06174285,607.9042964,856.3761429,70.10534439,602.2898753,865.4903511,-12.34204799,385.0033378,909.9433757,49.01985816,379.28572,904.3559135,-148.5113357,534.3187473,715.2714161,-123.0166206,513.9728062,413.6496779,-132.2846362,464.5493692,272.2967118,-74.63526855,430.54431,73.65606722,-11.972511,359.9014539,45.12697388,-30.16494721,632.5635201,57.25077034,209.2437017,551.5172098,735.9432631,196.4135859,650.3579726,447.1703062,213.4857085,582.372672,299.1546284,160.6075311,550.1558534,92.0874208,91.84682365,496.2794841,65.82910651,183.1172423,742.6741452,70.1165427,66.50309122,33.49690878,67.22388053,32.77611947,61.85431186,40.72307356,40.21684462,41.2293025,81.44614713,81.44614713,0.419816282,0.419816282,23.18661441,1.9400426
1777554366,14.12862963,-1.881925926,26.307074,-17.86963,19.68692593,25.601704,6.296778,90.32959,-5.92041,0.258662,-0.807495,10.925293,9.604028,-40.654907,7.324219,-1.916016,110.934448,-70.983887,3.487148,-2.735596,42.114258,10.193203,-21.291504,-3.112793,-0.799937,124.881592,96.984863,2.744692,-10.008545,85.571289,10.691367,-71.202393,42.480469,-1.662144,12.205811,174.133301,-0.809517,3.90564,25.45166,-0.455054,-151.523438,25.695801,10.566826,86.072388,66.162109,-0.220342,-2.581787,-68.237305,11.577524,-9.733887,26.489258,-2.007026,100.859985,26.000977,1.331631,-6.339111,56.57959,9.263936,-126.227417,9.094238,-2.715952,5.465698,7.019043,-0.263452,-0.889893,-1.953125,1.005908,-33.189697,0.305176,10.336904,0,7944,38919,46083,30723,0,0,60164,24326,2817,14338,0,0,0,0,0,0,0,0,0,17666,0,0,0,0,0,27654,0,0,0,0,0,0,0,0,0,659,10467,independent_20260430_210601,trial_001,subject_001,1777554366,277157.4457,2302164,1,0,0,1,-17.39893017,606.5523609,856.2021832,69.78101438,601.194035,865.4290151,-12.33106954,383.7019421,910.1085215,49.13155863,378.1942767,904.4034247,-148.732228,532.2559942,715.0529065,-123.1698361,510.7454986,413.6207446,-132.6624081,460.980262,272.4040517,-74.85526808,426.2215125,73.64932102,-12.20293102,355.554427,45.23990272,-30.33851642,628.1799961,57.18601315,209.3034747,550.4755615,736.2074277,196.3489814,650.486521,447.6091239,214.3893763,587.3579021,297.9438513,162.3227842,562.3104662,89.44468546,93.86574453,508.9224604,61.44935995,184.2872414,755.5519361,73.79661807,66.50309122,33.49690878,67.22388053,32.77611947,61.85431186,40.72307356,40.21684462,41.2293025,81.44614713,81.44614713,0.419816282,0.419816282,23.18661441,1.9400426
1777554366,14.12862963,-1.881925926,26.307074,-17.86963,19.68692593,25.601704,6.296778,90.32959,-5.92041,0.258662,-0.807495,10.925293,9.604028,-40.654907,7.324219,-1.916016,110.934448,-70.983887,3.487148,-2.735596,42.114258,10.193203,-21.291504,-3.112793,-0.799937,124.881592,96.984863,2.744692,-10.008545,85.571289,10.691367,-71.202393,42.480469,-1.662144,12.205811,174.133301,-0.809517,3.90564,25.45166,-0.455054,-151.523438,25.695801,10.566826,86.072388,66.162109,-0.220342,-2.581787,-68.237305,11.577524,-9.733887,26.489258,-2.007026,100.859985,26.000977,1.331631,-6.339111,56.57959,9.263936,-126.227417,9.094238,-2.715952,5.465698,7.019043,-0.263452,-0.889893,-1.953125,1.005908,-33.189697,0.305176,10.336904,0,7944,38919,46083,30723,0,0,60164,24326,2817,14338,0,0,0,0,0,0,0,0,0,17666,0,0,0,0,0,27654,0,0,0,0,0,0,0,0,0,659,10467,independent_20260430_210601,trial_001,subject_001,1777554366,277157.456,2302165,1,0,0,1,-18.00821452,604.64861,856.0678664,69.50953234,600.1551481,865.3584516,-12.37154769,382.666678,910.0841479,48.78738911,377.1307137,904.528064,-148.8878769,530.2980932,714.8115413,-123.3092339,507.4569719,413.5443248,-132.7215897,457.2714053,272.4308479,-75.01553151,422.0353071,73.68898074,-12.43496535,351.1086442,45.33130532,-30.54029182,623.829513,57.12041015,209.4443607,549.3506685,736.442055,196.1970383,649.9542964,448.400378,214.6129844,592.2738203,296.3617627,163.9994097,574.0812028,87.40181514,95.76110781,521.372436,58.06755749,185.3328748,767.9173853,77.93606455,66.50309122,33.49690878,67.22388053,32.77611947,61.85431186,40.72307356,40.21684462,41.2293025,81.44614713,81.44614713,0.419816282,0.419816282,23.18661441,1.9400426
1777554366,14.12862963,-1.881925926,26.307074,-17.86963,19.68692593,25.601704,6.296778,90.32959,-5.92041,0.258662,-0.807495,10.925293,9.604028,-40.654907,7.324219,-1.916016,110.934448,-70.983887,3.487148,-2.735596,42.114258,10.193203,-21.291504,-3.112793,-0.799937,124.881592,96.984863,2.744692,-10.008545,85.571289,10.691367,-71.202393,42.480469,-1.662144,12.205811,174.133301,-0.809517,3.90564,25.45166,-0.455054,-151.523438,25.695801,10.566826,86.072388,66.162109,-0.220342,-2.581787,-68.237305,11.577524,-9.733887,26.489258,-2.007026,100.859985,26.000977,1.331631,-6.339111,56.57959,9.263936,-126.227417,9.094238,-2.715952,5.465698,7.019043,-0.263452,-0.889893,-1.953125,1.005908,-33.189697,0.305176,10.336904,0,7944,38919,46083,30723,0,0,60164,24326,2817,14338,0,0,0,0,0,0,0,0,0,17666,0,0,0,0,0,27654,0,0,0,0,0,0,0,0,0,659,10467,independent_20260430_210601,trial_001,subject_001,1777554366,277157.4661,2302166,1,0,0,1,-17.94912449,604.2376202,855.8457773,69.27266344,599.1326689,865.3316321,-12.28893367,381.5391395,910.1629096,49.18500269,376.0920846,904.5930064,-148.9699118,528.2879256,714.6476028,-123.4383964,504.2220372,413.4904749,-133.1049386,453.6602183,272.6392305,-75.19544802,417.5601601,73.84303571,-12.61012355,346.7423773,45.44929054,-30.79274119,619.5037174,57.0447461,209.5027574,548.1976643,736.5917332,196.4088535,649.8061749,448.9555648,215.9999517,596.5626743,296.0142426,165.5460673,585.4951979,85.69988042,97.4969752,533.4714401,54.94702765,186.2507125,779.6995897,82.25646346,66.50309122,33.49690878,67.22388053,32.77611947,61.85431186,40.72307356,40.21684462,41.2293025,81.44614713,81.44614713,0.419816282,0.419816282,23.18661441,1.9400426
1777554366,14.12862963,-1.881925926,26.307074,-17.86963,19.68692593,25.601704,6.296778,90.32959,-5.92041,0.258662,-0.807495,10.925293,9.604028,-40.654907,7.324219,-1.916016,110.934448,-70.983887,3.487148,-2.735596,42.114258,10.193203,-21.291504,-3.112793,-0.799937,124.881592,96.984863,2.744692,-10.008545,85.571289,10.691367,-71.202393,42.480469,-1.662144,12.205811,174.133301,-0.809517,3.90564,25.45166,-0.455054,-151.523438,25.695801,10.566826,86.072388,66.162109,-0.220342,-2.581787,-68.237305,11.577524,-9.733887,26.489258,-2.007026,100.859985,26.000977,1.331631,-6.339111,56.57959,9.263936,-126.227417,9.094238,-2.715952,5.465698,7.019043,-0.263452,-0.889893,-1.953125,1.005908,-33.189697,0.305176,10.336904,0,7944,38919,46083,30723,0,0,60164,24326,2817,14338,0,0,0,0,0,0,0,0,0,17666,0,0,0,0,0,27654,0,0,0,0,0,0,0,0,0,659,10467,independent_20260430_210601,trial_001,subject_001,1777554366,277157.486,2302168,1,0,0,1,-18.33395735,602.079409,855.5399295,68.92075779,597.2619236,865.152153,-12.01975673,379.6397374,910.1830833,49.24280951,374.2805648,904.7470973,-148.9705224,524.5803124,714.2837386,-123.7745589,497.502141,413.4007121,-133.3359876,445.8142273,272.7658752,-75.40180446,408.895959,73.93175062,-12.98947682,337.9978708,45.55980771,-31.0559828,610.5841437,56.99244971,209.5839316,545.7965078,736.7387931,196.2944448,648.3588679,450.0062424,216.690341,604.7532367,294.1159048,168.1163127,607.0664314,83.31084384,101.174414,555.9905053,52.56721884,187.409098,801.6514989,86.87134206,66.50309122,33.49690878,67.22388053,32.77611947,61.85431186,40.72307356,40.21684462,41.2293025,81.44614713,81.44614713,0.419816282,0.419816282,23.18661441,1.9400426
1777554366,14.12862963,-1.881925926,26.307074,-17.86963,19.68692593,25.601704,6.296778,90.32959,-5.92041,0.258662,-0.807495,10.925293,9.604028,-40.654907,7.324219,-1.916016,110.934448,-70.983887,3.487148,-2.735596,42.114258,10.193203,-21.291504,-3.112793,-0.799937,124.881592,96.984863,2.744692,-10.008545,85.571289,10.691367,-71.202393,42.480469,-1.662144,12.205811,174.133301,-0.809517,3.90564,25.45166,-0.455054,-151.523438,25.695801,10.566826,86.072388,66.162109,-0.220342,-2.581787,-68.237305,11.577524,-9.733887,26.489258,-2.007026,100.859985,26.000977,1.331631,-6.339111,56.57959,9.263936,-126.227417,9.094238,-2.715952,5.465698,7.019043,-0.263452,-0.889893,-1.953125,1.005908,-33.189697,0.305176,10.336904,0,7944,38919,46083,30723,0,0,60164,24326,2817,14338,0,0,0,0,0,0,0,0,0,17666,0,0,0,0,0,27654,0,0,0,0,0,0,0,0,0,659,10467,independent_20260430_210601,trial_001,subject_001,1777554366,277157.4958,2302169,1,0,0,1,-18.7629453,600.3518356,855.4683416,68.80342082,596.4769654,865.0786399,-11.78137251,378.5633041,910.1692519,49.39207941,373.2823461,904.6743393,-148.9489399,522.6391062,714.1038101,-123.9768916,494.0624488,413.336713,-133.8980163,441.9835123,273.1905035,-75.58612765,404.6247391,73.95826478,-13.18795709,333.6824427,45.68858595,-31.38162531,606.5106575,56.94988932,209.7125269,544.599013,736.7877883,196.2930726,647.7969374,450.3924823,218.2022076,608.3352738,294.3199274,169.4041858,617.2601777,82.7153869,102.5468501,566.9154429,50.13687384,187.7362689,811.6811628,91.95615332,66.50309122,33.49690878,67.22388053,32.77611947,61.85431186,40.72307356,40.21684462,41.2293025,81.44614713,81.44614713,0.419816282,0.419816282,23.18661441,1.9400426
1777554366,14.12862963,-1.881925926,26.307074,-17.86963,19.68692593,25.601704,6.296778,90.32959,-5.92041,0.258662,-0.807495,10.925293,9.604028,-40.654907,7.324219,-1.916016,110.934448,-70.983887,3.487148,-2.735596,42.114258,10.193203,-21.291504,-3.112793,-0.799937,124.881592,96.984863,2.744692,-10.008545,85.571289,10.691367,-71.202393,42.480469,-1.662144,12.205811,174.133301,-0.809517,3.90564,25.45166,-0.455054,-151.523438,25.695801,10.566826,86.072388,66.162109,-0.220342,-2.581787,-68.237305,11.577524,-9.733887,26.489258,-2.007026,100.859985,26.000977,1.331631,-6.339111,56.57959,9.263936,-126.227417,9.094238,-2.715952,5.465698,7.019043,-0.263452,-0.889893,-1.953125,1.005908,-33.189697,0.305176,10.336904,0,7944,38919,46083,30723,0,0,60164,24326,2817,14338,0,0,0,0,0,0,0,0,0,14602,32005,0,0,0,0,37643,43780,0,0,0,0,0,0,0,0,659,10468,independent_20260430_210601,trial_001,subject_001,1777554366,277157.5062,2302170,1,0,0,1,-18.47494442,600.1584627,855.6752155,68.7543908,595.6791942,864.988571,-11.5683379,377.6844382,910.116524,49.58644456,372.712837,904.631575,-148.9821548,520.9726672,713.9752688,-124.1043329,490.4849312,413.3503869,-133.8287167,438.1117747,272.9612462,-75.65643423,400.3693331,73.99237012,-13.33173549,329.258019,45.81607967,-31.61122603,602.1280826,56.92190633,209.7780248,543.4608083,736.7120178,196.2529742,647.2107431,450.7347143,218.8939026,611.9061905,294.030087,170.5990011,626.960957,82.41785509,103.8871079,577.3079108,48.06110098,187.9222203,821.0572851,97.25474533,66.50309122,33.49690878,67.22388053,32.77611947,61.85431186,40.72307356,40.21684462,41.2293025,81.44614713,81.44614713,0.419816282,0.419816282,23.18661441,1.9400426
1777554366,14.01262963,2.836074074,32.987074,-17.86963,16.40692593,25.601704,-2.245222,90.214233,-8.666992,0.713716,-0.900879,8.972168,9.014854,-40.512085,6.530762,-1.623823,106.21582,-109.741211,1.690884,-3.982544,37.597656,10.475815,-19.764404,13.793945,-2.136357,129.677124,110.107422,1.523232,-13.623047,64.331055,9.642349,-69.384155,35.583496,-3.405718,12.205811,174.133301,-0.809517,3.90564,25.45166,-0.455054,-151.523438,25.695801,10.566826,89.351807,63.293457,2.46687,-3.405762,-2.075195,8.478369,-11.66748,6.652832,-1.853745,100.859985,26.000977,1.331631,-6.339111,56.57959,9.263936,-126.227417,9.094238,-2.715952,5.712891,5.004883,0.234712,-1.065674,-4.089355,1.154399,-33.101807,2.319336,9.580078,0,7944,38919,46083,30723,0,0,60164,24326,2817,14338,0,0,0,0,0,0,0,0,0,56842,6152,0,0,0,0,26381,13575,0,0,0,0,45056,0,0,0,659,10469,independent_20260430_210601,trial_001,subject_001,1777554366,277157.5159,2302171,1,0,0,1,-18.88893714,598.6587977,855.0670316,68.73546552,595.0110541,864.8575309,-11.41107082,376.9657115,910.1699526,49.87024377,371.7179168,904.5818292,-148.8881956,519.1588668,713.7164637,-124.3516951,487.0830735,413.3032978,-134.0386708,434.2531812,273.04395,-75.94006761,395.9918493,74.03555226,-13.54128588,324.8937618,45.95442922,-31.82581387,597.7431478,56.90278111,209.8742292,542.3740266,736.6017219,196.056333,646.4977578,451.0063328,219.3924111,615.2540396,293.7340339,171.7837753,636.2000408,82.42137723,105.2599938,587.0595456,45.75890755,188.0571699,829.7616582,102.8147247,66.50309122,33.49690878,67.22388053,32.77611947,61.85431186,40.72307356,40.21684462,41.2293025,81.44614713,81.44614713,0.419816282,0.419816282,23.18661441,1.9400426
1777554366,13.83162963,2.836074074,41.484074,-16.27663,14.31392593,22.947704,-2.245222,90.032959,-2.319336,1.125659,-1.203003,10.986328,8.061636,-40.215454,10.803223,-0.881367,106.21582,-109.741211,1.690884,-3.982544,37.597656,10.475815,-19.764404,13.793945,-2.136357,133.456421,113.037109,2.054927,-16.083984,59.875488,9.311836,-68.670044,39.367676,-5.532495,18.59436,198.425293,0.258662,4.740601,51.208496,2.011816,-149.974365,53.039551,11.02667,91.444702,62.683105,1.2023,-3.614502,3.78418,9.316626,-11.508179,9.338379,-1.369951,101.486206,15.319824,0.402363,-6.855469,-16.662598,9.014854,-126.046143,16.540527,-2.778223,5.712891,5.004883,0.234712,-1.065674,-4.089355,1.154399,-33.101807,2.319336,9.580078,0,7944,38919,46083,30723,0,0,60164,24326,2817,14338,0,0,0,0,0,0,0,0,0,56842,6152,0,0,0,0,26381,13575,0,0,0,0,45056,0,0,0,659,10469,independent_20260430_210601,trial_001,subject_001,1777554366,277157.5259,2302172,1,0,0,1,-18.91827229,597.690588,854.8308799,68.75327317,594.2517108,864.6741542,-10.93332793,376.1399212,910.1282114,50.08152499,371.0944431,904.5029887,-148.8196244,517.3891119,713.5620014,-124.4535848,483.593076,413.2688415,-134.6234469,430.3808531,273.3529511,-76.00331638,391.7467073,74.03782351,-13.86802815,320.4814032,46.07790654,-32.03184058,593.2871288,56.88526265,209.9780955,541.3976236,736.4223986,195.9099391,645.8735528,451.1967477,219.7574863,618.4033098,293.344426,172.8830523,644.6060245,82.47461454,106.5676372,596.2797984,44.11109499,187.9443268,837.9555028,108.2876794,66.50309122,33.49690878,67.22388053,32.77611947,61.85431186,40.72307356,40.21684462,41.2293025,81.44614713,81.44614713,0.419816282,0.419816282,23.18661441,1.9400426
1777554366,13.91962963,6.786074074,41.484074,-10.65663,14.31392593,21.184704,-2.778222,90.12085,4.211426,0.843047,-1.658936,21.118164,9.125024,-39.567261,15.014648,-0.814307,102.266235,-109.191895,-0.771196,-4.53186,19.714355,10.154883,-18.847046,9.521484,-3.779341,133.456421,113.037109,2.054927,-16.083984,59.875488,9.311836,-68.670044,39.367676,-5.532495,27.993164,299.316406,-0.258662,5.366821,60.791016,1.379531,-147.480469,67.138672,11.00272,91.444702,62.683105,1.2023,-3.614502,3.78418,9.316626,-11.508179,9.338379,-1.369951,101.815796,10.314941,2.759063,-7.283936,10.375977,9.469907,-126.188965,12.878418,-1.853745,5.806274,1.831055,0.450264,-1.126099,0.427246,1.034648,-33.09082,-0.061035,9.8579,0,7944,38919,46083,30723,0,0,60164,24326,2817,14338,0,0,0,0,0,0,0,0,0,56842,6152,0,0,0,0,26381,13575,0,0,0,0,45056,0,0,0,659,10469,independent_20260430_210601,trial_001,subject_001,1777554366,277157.5361,2302173,1,0,0,1,-18.58380796,597.6481376,854.5228182,68.7945952,593.6265587,864.4024306,-10.54459696,375.3252968,910.0119613,50.50658967,370.4113369,904.5213749,-148.647924,515.7144927,713.3539803,-124.7304166,480.1140093,413.2472135,-134.696055,426.272399,273.485836,-76.16497008,387.1454427,74.1463857,-14.02784956,316.0262238,46.20068537,-32.23616026,588.8874247,56.87205145,210.0527588,540.4916633,736.1427261,195.9518797,645.6403489,451.3415921,219.280032,621.5867879,292.3999648,173.8357973,652.6612308,82.62093984,107.9446142,605.004923,42.706395,187.7976111,845.4029411,113.6226738,66.50309122,33.49690878,67.22388053,32.77611947,61.85431186,40.72307356,40.21684462,41.2293025,81.44614713,81.44614713,0.419816282,0.419816282,23.18661441,1.9400426
1777554366,13.91962963,10.59307407,48.774074,-3.21863,12.65492593,21.184704,-3.075222,90.12085,4.211426,0.843047,-1.658936,21.118164,9.125024,-39.567261,15.014648,-0.814307,98.459473,-109.802246,0.512534,-4.971313,-6.835938,10.437495,-18.885498,12.268066,-4.263135,136.796265,89.96582,2.323169,-17.935181,41.19873,8.018525,-68.291016,22.888184,-6.615044,38.770752,294.067383,0.282612,5.74585,73.791504,2.773433,-143.684692,102.722168,9.493857,93.103638,50.476074,0.934058,-3.88916,-9.643555,10.356064,-11.640015,9.643555,-0.694556,101.815796,10.314941,2.759063,-7.283936,10.375977,9.469907,-126.188965,12.878418,-1.853745,5.839233,2.319336,-0.05269,-1.153564,-0.854492,0.723296,-33.101807,0.427246,9.728569,0,7944,38919,46083,30723,0,0,60164,24326,2817,14338,0,0,0,0,0,0,0,0,0,56842,6152,0,0,0,0,26381,13575,0,0,0,0,45056,0,0,0,659,10469,independent_20260430_210601,trial_001,subject_001,1777554366,277157.5459,2302174,1,0,0,1,-18.60496936,596.8883282,853.9206768,68.83914361,593.0345136,864.0783396,-10.26972795,374.7812437,910.0153113,51.24280906,369.7212589,904.3290668,-148.5090532,514.067538,713.1964306,-124.9432531,476.6904905,413.2664018,-134.936306,422.5627524,273.4519902,-76.10347571,382.7441004,74.1035678,-14.15210057,311.6709778,46.32611025,-32.41262976,584.5163639,56.85218004,210.2189439,539.6880113,735.8001892,195.5792546,645.1705258,451.4218219,219.7870915,624.4823532,292.3271419,174.5815053,660.0581872,82.85884146,109.2237293,612.9442998,41.52507996,187.4563306,852.2096444,118.6921274,66.50309122,33.49690878,67.22388053,32.77611947,61.85431186,40.72307356,40.21684462,41.2293025,81.44614713,81.44614713,0.419816282,0.419816282,23.18661441,1.9400426
1777554366,13.91962963,10.59307407,48.774074,-3.21863,12.65492593,21.184704,-3.075222,90.12085,4.211426,0.843047,-1.658936,21.118164,9.125024,-39.567261,15.014648,-0.814307,98.459473,-109.802246,0.512534,-4.971313,-6.835938,10.437495,-18.885498,12.268066,-4.263135,136.796265,89.96582,2.323169,-17.935181,41.19873,8.018525,-68.291016,22.888184,-6.615044,38.770752,294.067383,0.282612,5.74585,73.791504,2.773433,-143.684692,102.722168,9.493857,93.103638,50.476074,0.934058,-3.88916,-9.643555,10.356064,-11.640015,9.643555,-0.694556,101.815796,10.314941,2.759063,-7.283936,10.375977,9.469907,-126.188965,12.878418,-1.853745,5.839233,2.319336,-0.05269,-1.153564,-0.854492,0.723296,-33.101807,0.427246,9.728569,0,7944,38919,46083,30723,0,0,60164,24326,2817,14338,0,0,0,0,0,0,0,0,0,56842,6152,0,0,0,0,26381,13575,0,0,0,0,45056,0,0,0,659,10469,independent_20260430_210601,trial_001,subject_001,1777554366,277157.5559,2302175,1,0,0,1,-18.4857683,596.1681954,853.7298131,68.95661221,592.4454337,863.7045151,-9.726301606,374.0849736,909.9136184,51.49121429,369.3067262,904.1178648,-148.3332178,512.4267502,713.0334283,-125.1478947,473.1255577,413.2512351,-135.2494332,418.6798104,273.6293148,-76.55623897,378.4745253,74.2045005,-14.51855316,307.2701483,46.45086964,-32.62325716,580.0575861,56.83305702,210.4594224,538.9380864,735.3780611,195.2596573,644.899684,451.4559521,220.0335814,627.1579974,292.2120898,175.5198184,666.9828079,83.38669139,110.4343502,620.2337179,40.54814588,187.0064091,858.4225768,123.3533396,66.50309122,33.49690878,67.22388053,32.77611947,61.85431186,40.72307356,40.21684462,41.2293025,81.44614713,81.44614713,0.419816282,0.419816282,23.18661441,1.9400426
1777554366,13.91962963,10.59307407,48.774074,-3.21863,12.65492593,21.184704,-3.075222,90.12085,4.211426,0.843047,-1.658936,21.118164,9.125024,-39.567261,15.014648,-0.814307,98.459473,-109.802246,0.512534,-4.971313,-6.835938,10.437495,-18.885498,12.268066,-4.263135,136.796265,89.96582,2.323169,-17.935181,41.19873,8.018525,-68.291016,22.888184,-6.615044,38.770752,294.067383,0.282612,5.74585,73.791504,2.773433,-143.684692,102.722168,9.493857,93.103638,50.476074,0.934058,-3.88916,-9.643555,10.356064,-11.640015,9.643555,-0.694556,101.815796,10.314941,2.759063,-7.283936,10.375977,9.469907,-126.188965,12.878418,-1.853745,5.839233,2.319336,-0.05269,-1.153564,-0.854492,0.723296,-33.101807,0.427246,9.728569,0,7944,38919,46083,30723,0,0,60164,24326,2817,14338,0,0,0,0,0,0,0,0,0,4876,38920,0,0,0,0,4112,5640,0,0,0,0,57346,0,0,0,659,10470,independent_20260430_210601,trial_001,subject_001,1777554366,277157.5662,2302176,1,0,0,1,-18.37715401,595.4372786,853.3930279,69.0465937,591.9645581,863.3126882,-9.023935689,373.4852745,909.7544839,52.32958907,368.6856332,903.8810412,-148.1887989,510.8620593,712.7671483,-125.4559752,469.7615516,413.1897956,-135.2988429,414.6626635,273.7195111,-76.72563081,374.0904028,74.21395433,-14.691135,302.8945095,46.56792967,-32.83134708,575.6587227,56.8113784,210.6687152,538.3114655,734.8940892,194.8587242,644.6838174,451.3731727,220.2753252,629.6795085,292.1033787,175.9200501,673.1041709,83.5971114,111.5510792,626.8456539,39.73915996,186.5432658,864.0067829,127.4774247,66.50309122,33.49690878,67.22388053,32.77611947,61.85431186,40.72307356,40.21684462,41.2293025,81.44614713,81.44614713,0.419816282,0.419816282,23.18661441,1.9400426
1777554366,13.91962963,10.59307407,48.774074,-3.21863,12.65492593,21.184704,-3.075222,90.12085,4.211426,0.843047,-1.658936,21.118164,9.125024,-39.567261,15.014648,-0.814307,98.459473,-109.802246,0.512534,-4.971313,-6.835938,10.437495,-18.885498,12.268066,-4.263135,136.796265,89.96582,2.323169,-17.935181,41.19873,8.018525,-68.291016,22.888184,-6.615044,38.770752,294.067383,0.282612,5.74585,73.791504,2.773433,-143.684692,102.722168,9.493857,93.103638,50.476074,0.934058,-3.88916,-9.643555,10.356064,-11.640015,9.643555,-0.694556,101.815796,10.314941,2.759063,-7.283936,10.375977,9.469907,-126.188965,12.878418,-1.853745,5.839233,2.319336,-0.05269,-1.153564,-0.854492,0.723296,-33.101807,0.427246,9.728569,0,7944,38919,46083,30723,0,0,60164,24326,2817,14338,0,0,0,0,0,0,0,0,0,524,25864,0,0,0,0,30480,51207,0,0,0,0,60163,0,0,0,659,10471,independent_20260430_210601,trial_001,subject_001,1777554366,277157.5865,2302178,1,0,0,1,-18.18496446,594.171328,852.450952,69.28643687,591.2787139,862.3455898,-7.80377644,372.5047147,909.2463311,53.4504211,368.1337322,903.2167781,-147.7927661,507.8848161,712.2600806,-125.8229505,463.0568331,413.0762578,-135.8080436,406.9799538,273.9170599,-77.07974455,365.4878797,74.35534838,-15.15236985,293.9301122,46.68460468,-33.30900215,566.7712982,56.78859691,211.4010044,537.4777004,733.7168347,194.3491991,644.6888531,451.1204697,220.5813463,634.0763132,291.6525477,176.7964037,683.4463839,84.30233214,112.9988513,638.0848431,39.02186587,185.5426822,872.9403749,131.184054,66.50309122,33.49690878,67.22388053,32.77611947,61.85431186,40.72307356,40.21684462,41.2293025,81.44614713,81.44614713,0.419816282,0.419816282,23.18661441,1.9400426
1777554366,14.40262963,10.59307407,54.822074,-3.21863,10.99592593,19.805704,-3.075222,90.604248,7.446289,0.737666,-2.318115,-2.807617,10.197993,-39.122314,12.512207,-0.795146,98.459473,-109.802246,0.512534,-4.971313,-6.835938,10.437495,-18.885498,12.268066,-4.263135,139.037476,52.612305,1.963916,-18.978882,16.967773,6.409072,-67.983398,9.521484,-6.773115,38.770752,294.067383,0.282612,5.74585,73.791504,2.773433,-143.684692,102.722168,9.493857,94.762573,46.081543,0.162861,-4.053955,-24.963379,9.77168,-12.304688,6.408691,-0.392783,102.095947,11.352539,0.866997,-7.783813,18.188477,9.675879,-125.529785,10.681152,-1.954336,5.839233,2.319336,-0.05269,-1.153564,-0.854492,0.723296,-33.101807,0.427246,9.728569,0,7944,38919,46083,30723,0,0,60164,24326,2817,14338,0,0,0,0,0,0,0,0,0,3340,12296,0,0,0,0,60688,60423,0,0,0,0,261,22528,0,0,659,10472,independent_20260430_210601,trial_001,subject_001,1777554366,277157.6059,2302180,1,0,0,1,-18.02387166,593.1903845,851.4243882,69.51198996,590.8246379,861.2366219,-6.064358436,371.6823656,908.5788713,54.9264513,367.514942,902.3655715,-147.2312721,504.981476,711.5923357,-125.9740095,456.5285074,412.9684039,-136.124341,399.3930388,274.1239256,-77.42384883,356.6266033,74.56000169,-15.4516182,285.1103515,46.79060463,-33.70700747,557.899765,56.77444617,212.0831237,537.1123476,732.4204325,193.8022772,644.6412853,450.1205494,220.7827748,637.4361429,290.910383,177.0683432,691.0630087,84.58265475,113.3740955,646.5652864,38.34856268,184.5269753,879.1935347,134.3792975,66.50309122,33.49690878,67.22388053,32.77611947,61.85431186,40.72307356,40.21684462,41.2293025,81.44614713,81.44614713,0.419816282,0.419816282,23.18661441,1.9400426
1777554366,14.40262963,10.59307407,54.822074,-3.21863,10.99592593,19.805704,-3.075222,90.604248,7.446289,0.737666,-2.318115,-2.807617,10.197993,-39.122314,12.512207,-0.795146,98.459473,-109.802246,0.512534,-4.971313,-6.835938,10.437495,-18.885498,12.268066,-4.263135,139.037476,52.612305,1.963916,-18.978882,16.967773,6.409072,-67.983398,9.521484,-6.773115,38.770752,294.067383,0.282612,5.74585,73.791504,2.773433,-143.684692,102.722168,9.493857,94.762573,46.081543,0.162861,-4.053955,-24.963379,9.77168,-12.304688,6.408691,-0.392783,102.095947,11.352539,0.866997,-7.783813,18.188477,9.675879,-125.529785,10.681152,-1.954336,5.839233,2.319336,-0.05269,-1.153564,-0.854492,0.723296,-33.101807,0.427246,9.728569,0,7944,38919,46083,30723,0,0,60164,24326,2817,14338,0,0,0,0,0,0,0,0,0,3340,12296,0,0,0,0,60688,60423,0,0,0,0,261,22528,0,0,659,10472,independent_20260430_210601,trial_001,subject_001,1777554366,277157.6059,2302180,1,0,0,1,-18.02387166,593.1903845,851.4243882,69.51198996,590.8246379,861.2366219,-6.064358436,371.6823656,908.5788713,54.9264513,367.514942,902.3655715,-147.2312721,504.981476,711.5923357,-125.9740095,456.5285074,412.9684039,-136.124341,399.3930388,274.1239256,-77.42384883,356.6266033,74.56000169,-15.4516182,285.1103515,46.92545121,-33.70700747,557.899765,56.73257872,212.0831237,537.1123476,732.4204325,193.8022772,644.6412853,450.1205494,220.7827748,637.4361429,290.910383,177.0683432,691.0630087,84.58265475,113.3740955,646.5652864,37.50270285,184.5269753,879.1935347,136.7300422,66.50309122,33.49690878,67.22388053,32.77611947,61.85431186,40.72307356,40.21684462,41.2293025,81.44614713,81.44614713,0.419816282,0.419816282,23.18661441,1.9400426
