timestamp,torso_angle,left_hip_angle,left_knee_angle,left_ankle_angle,right_hip_angle,right_knee_angle,right_ankle_angle,imu1ang_x,imu1vel_x,imu1acc_x,imu1ang_y,imu1vel_y,imu1acc_y,imu1ang_z,imu1vel_z,imu1acc_z,imu2ang_x,imu2vel_x,imu2acc_x,imu2ang_y,imu2vel_y,imu2acc_y,imu2ang_z,imu2vel_z,imu2acc_z,imu3ang_x,imu3vel_x,imu3acc_x,imu3ang_y,imu3vel_y,imu3acc_y,imu3ang_z,imu3vel_z,imu3acc_z,imu4ang_x,imu4vel_x,imu4acc_x,imu4ang_y,imu4vel_y,imu4acc_y,imu4ang_z,imu4vel_z,imu4acc_z,imu5ang_x,imu5vel_x,imu5acc_x,imu5ang_y,imu5vel_y,imu5acc_y,imu5ang_z,imu5vel_z,imu5acc_z,imu6ang_x,imu6vel_x,imu6acc_x,imu6ang_y,imu6vel_y,imu6acc_y,imu6ang_z,imu6vel_z,imu6acc_z,imu7ang_x,imu7vel_x,imu7acc_x,imu7ang_y,imu7vel_y,imu7acc_y,imu7ang_z,imu7vel_z,imu7acc_z,L_1,L_2,L_3,L_4,L_5,L_6,L_7,L_8,L_9,L_10,L_11,L_12,L_13,L_14,L_15,L_16,L_17,L_18,R_1,R_2,R_3,R_4,R_5,R_6,R_7,R_8,R_9,R_10,R_11,R_12,R_13,R_14,R_15,R_16,R_17,R_18,frame_id_left,frame_id_right,vicon_Session_ID,vicon_Trial_ID,vicon_Subject_ID,vicon_Vicon_Recv_Timestamp,vicon_Vicon_Recv_Timestamp_Mono,vicon_Vicon_Frame_Num,vicon_Vicon_Subject_Name,vicon_Vicon_Gap_Flag,vicon_Vicon_Gap_Size,vicon_Vicon_Original_Valid_Flag,vicon_Vicon_LASI_X,vicon_Vicon_LASI_Y,vicon_Vicon_LASI_Z,vicon_Vicon_RASI_X,vicon_Vicon_RASI_Y,vicon_Vicon_RASI_Z,vicon_Vicon_LPSI_X,vicon_Vicon_LPSI_Y,vicon_Vicon_LPSI_Z,vicon_Vicon_RPSI_X,vicon_Vicon_RPSI_Y,vicon_Vicon_RPSI_Z,vicon_Vicon_LTHI_X,vicon_Vicon_LTHI_Y,vicon_Vicon_LTHI_Z,vicon_Vicon_LKNE_X,vicon_Vicon_LKNE_Y,vicon_Vicon_LKNE_Z,vicon_Vicon_LTIB_X,vicon_Vicon_LTIB_Y,vicon_Vicon_LTIB_Z,vicon_Vicon_LANK_X,vicon_Vicon_LANK_Y,vicon_Vicon_LANK_Z,vicon_Vicon_LHEE_X,vicon_Vicon_LHEE_Y,vicon_Vicon_LHEE_Z,vicon_Vicon_LTOE_X,vicon_Vicon_LTOE_Y,vicon_Vicon_LTOE_Z,vicon_Vicon_RTHI_X,vicon_Vicon_RTHI_Y,vicon_Vicon_RTHI_Z,vicon_Vicon_RKNE_X,vicon_Vicon_RKNE_Y,vicon_Vicon_RKNE_Z,vicon_Vicon_RTIB_X,vicon_Vicon_RTIB_Y,vicon_Vicon_RTIB_Z,vicon_Vicon_RANK_X,vicon_Vicon_RANK_Y,vicon_Vicon_RANK_Z,vicon_Vicon_RHEE_X,vicon_Vicon_RHEE_Y,vicon_Vicon_RHEE_Z,vicon_Vicon_RTOE_X,vicon_Vicon_RTOE_Y,vicon_Vicon_RTOE_Z,left_pct_stance,left_pct_swing,right_pct_stance,right_pct_swing,step_frequency,step_length,left_step_length,right_step_length,left_stride_length,right_stride_length,left_step_speed,right_step_speed,step_width,cycle_time,phase_label
1777554011.683,-60.16637037037037,12.828074074074069,15.699074,1.31837,20.526925925925923,54.110704,-5.997222,16.034546,6.469727,-0.766406,-30.525513,-2.197266,9.168135,-114.400635,-12.512207,-0.292192,96.223755,36.92627,-0.694556,3.466187,9.521484,9.417217,-25.037842,6.896973,-1.997446,97.679443,12.451172,-0.292192,-0.252686,1.281738,9.101074,150.023804,0.976562,-2.802173,3.757324,0.732422,-0.742456,3.861694,1.098633,0.761616,-88.835449,1.77002,10.054292,85.231934,-64.880371,-0.900527,0.834961,8.972168,8.756191,-22.115479,3.601074,-1.963916,128.529053,-164.611816,-1.384321,-0.521851,48.950195,6.615044,120.668335,34.729004,-6.14083,34.211426,-195.617676,1.528022,1.972046,5.126953,1.523232,19.758911,-0.183105,9.120234,0,7944,38919,46083,30723,0,0,60164,24326,2817,14338,0,0,0,0,0,0,0,0,0,0,0,0,0,0,0,0,0,0,0,0,0,0,0,0,0,659,3658,independent_20260430_210008,trial_001,subject_001,1777554011.680903,276803.2900239,2266749,1,0,0,1,0.0,0.0,0.0,139.32929528959673,663.3605845799165,842.2348758996633,71.13608656730021,441.5740775908033,898.9719759074616,131.1974297757284,439.9627929363544,892.2679063222022,-92.88869392683604,614.4398047926015,724.8622348198046,-72.84050090362634,682.385856599631,431.6977937288231,-89.14926635916676,689.8886924585734,283.3397684680439,-42.4972489290148,753.5596652438786,79.42073921377352,19.49806627302081,693.1787240665382,34.375649806031326,6.51059668025685,952.4745373583494,113.5073149920696,256.5876812747302,556.8069995902769,695.802671257291,204.8850465613372,493.854368185267,399.69250966686064,211.31726893464344,405.5259403538652,256.1222299310516,135.05372363890166,338.69130009618493,72.09639930404262,75.87267870757569,276.67411570513246,47.99158244090368,130.4558604363913,535.3843424307612,51.75719332857767,65.6708454068843,34.32915459311569,67.17597372401875,32.82402627598126,59.70101730489738,41.59007295427374,41.52968507240691,41.65046083614057,83.18014590854747,83.18014590854747,0.4138282775258401,0.4138282775258401,20.677831925193228,2.01001600001473,2
1777554011.698,-60.16637037037037,11.460074074074072,15.699074,0.74737,22.328925925925915,49.392704,-8.189222,16.034546,6.469727,-0.766406,-30.525513,-2.197266,9.168135,-114.400635,-12.512207,-0.292192,97.591553,38.574219,-0.03832,3.22998,-0.793457,9.503438,-24.988403,7.8125,-1.786685,97.679443,12.451172,-0.292192,-0.252686,1.281738,9.101074,150.023804,0.976562,-2.802173,3.619995,0.366211,-0.689766,3.806763,0.305176,0.661025,-88.890381,1.953125,10.116563,83.430176,-56.274414,-0.268242,0.730591,1.647949,8.55022,-21.994629,5.737305,-1.575923,122.008667,-196.533203,-1.614243,-1.939087,8.544922,7.774233,120.635376,34.240723,-7.089258,27.438354,-184.204102,-0.627495,1.230469,-31.982422,2.385439,19.813843,15.625,7.702383,0,7944,38919,46083,30723,0,0,60164,24326,2817,14338,0,0,0,0,0,0,0,0,0,0,0,0,0,0,0,0,0,0,0,0,0,0,0,0,0,659,3658,independent_20260430_210008,trial_001,subject_001,1777554011.7001872,276803.3099385,2266751,1,0,0,1,50.36736110002386,667.8284448224216,847.018445833113,138.3324545095706,665.8295538148893,840.4558663234174,67.76941525456205,444.78447855892176,897.6989689725838,127.89339249098046,442.5248996828002,891.2997103129841,-93.80524545360656,618.5109423415998,722.1761639330313,-71.11212516161928,683.4067336247673,428.3192046417938,-87.345431926591,688.0371291755183,279.9630777050219,-40.38748347983709,746.5712961463388,75.78245996414192,19.70743251863316,685.6406218628224,34.55709659758473,13.09278971752666,948.3433849212264,107.68742758043692,254.6720298279733,556.9108527665991,694.7941850573717,203.72747273854577,491.5888064954935,399.0279904535967,210.60607581796484,400.544700107968,257.23361103562496,136.0482712812372,332.0923192798946,71.8148443263414,75.97970411043003,267.84770734622924,48.45227173304468,130.17102987732196,526.5697538228234,51.63410905024095,65.6708454068843,34.32915459311569,67.17597372401875,32.82402627598126,59.70101730489738,41.59007295427374,41.52968507240691,41.65046083614057,83.18014590854747,83.18014590854747,0.4138282775258401,0.4138282775258401,20.677831925193228,2.01001600001473,2
1777554011.707,-60.16637037037037,11.460074074074072,15.699074,0.74737,22.328925925925915,49.392704,-8.189222,16.034546,6.469727,-0.766406,-30.525513,-2.197266,9.168135,-114.400635,-12.512207,-0.292192,97.591553,38.574219,-0.03832,3.22998,-0.793457,9.503438,-24.988403,7.8125,-1.786685,97.679443,12.451172,-0.292192,-0.252686,1.281738,9.101074,150.023804,0.976562,-2.802173,3.619995,0.366211,-0.689766,3.806763,0.305176,0.661025,-88.890381,1.953125,10.116563,83.430176,-56.274414,-0.268242,0.730591,1.647949,8.55022,-21.994629,5.737305,-1.575923,122.008667,-196.533203,-1.614243,-1.939087,8.544922,7.774233,120.635376,34.240723,-7.089258,27.438354,-184.204102,-0.627495,1.230469,-31.982422,2.385439,19.813843,15.625,7.702383,0,7944,38919,46083,30723,0,0,60164,24326,2817,14338,0,0,0,0,0,0,0,0,0,0,0,0,0,0,0,0,0,0,0,0,0,0,0,0,0,659,3658,independent_20260430_210008,trial_001,subject_001,1777554011.7107005,276803.3197822,2266752,1,0,0,1,49.76255011803882,669.6013409179915,846.013115868222,137.74158837044496,667.2848187005707,839.6177969003343,66.05506775249681,446.5130009732185,897.0736297630709,126.1943751502861,443.9988125440426,890.6826957249368,-94.26577444099247,620.6208127565175,720.838854526711,-70.53195667968616,683.8912833818154,426.74239086621634,-86.44865092912306,687.4412299076896,278.3417101304188,-39.30940789326095,743.8301685527872,74.72798427074345,19.88918759399189,682.0659166861842,34.927894825785614,16.663014138214457,946.4119119009944,101.67062968113606,253.6242244929209,557.2192641799553,694.2942834437748,203.1136397879233,490.8439812071248,398.68644834800233,210.2358592311613,398.25220661245993,257.8529837880708,135.8282553186457,327.6153149079144,73.29597112147368,75.85809404189148,263.29212119636315,49.06522529678724,130.07072066552945,522.1453811249316,51.48153709080778,65.6708454068843,34.32915459311569,67.17597372401875,32.82402627598126,59.70101730489738,41.59007295427374,41.52968507240691,41.65046083614057,83.18014590854747,83.18014590854747,0.4138282775258401,0.4138282775258401,20.677831925193228,2.01001600001473,2
1777554011.712,-59.82037037037037,9.911074074074063,14.667074,0.74737,23.99292592592592,49.392704,-8.008222,16.380615,10.559082,-0.737666,-31.113281,-5.615234,9.484277,-116.010132,-9.216309,-0.268242,99.140625,49.133301,0.114961,2.999268,6.04248,9.316626,-24.927979,6.774902,-1.705254,98.014526,11.291504,0.03832,-0.258179,-2.01416,9.235195,149.996338,0.549316,-2.912344,3.619995,0.366211,-0.689766,3.806763,0.305176,0.661025,-88.890381,1.953125,10.116563,81.765747,-40.222168,0.852627,0.6427,22.155762,8.167017,-21.52771,3.234863,-0.555645,122.008667,-196.533203,-1.614243,-1.939087,8.544922,7.774233,120.635376,34.240723,-7.089258,21.099243,-182.800293,0.498164,-0.285645,-37.597656,4.272715,19.775391,16.784668,11.783496,0,7944,38919,46083,30723,0,0,60164,24326,2817,14338,0,0,0,0,0,0,0,0,0,0,0,0,0,0,0,0,0,0,0,0,0,0,0,0,0,659,3659,independent_20260430_210008,trial_001,subject_001,1777554011.7107005,276803.3197822,2266752,1,0,0,1,49.76255011803882,669.6013409179915,846.013115868222,137.74158837044496,667.2848187005707,839.6177969003343,66.05506775249681,446.5130009732185,897.0736297630709,126.1943751502861,443.9988125440426,890.6826957249368,-94.26577444099247,620.6208127565175,720.838854526711,-70.53195667968616,683.8912833818154,426.74239086621634,-86.44865092912306,687.4412299076896,278.3417101304188,-39.30940789326095,743.8301685527872,74.72798427074345,19.88918759399189,682.0659166861842,35.436922438869345,16.663014138214457,946.4119119009944,95.54998459889106,253.6242244929209,557.2192641799553,694.2942834437748,203.1136397879233,490.8439812071248,398.68644834800233,210.2358592311613,398.25220661245993,257.8529837880708,135.8282553186457,327.6153149079144,73.29597112147368,75.85809404189148,263.29212119636315,49.847663947303545,130.07072066552945,522.1453811249316,51.30895370932598,65.6708454068843,34.32915459311569,67.17597372401875,32.82402627598126,59.70101730489738,41.59007295427374,41.52968507240691,41.65046083614057,83.18014590854747,83.18014590854747,0.4138282775258401,0.4138282775258401,20.677831925193228,2.01001600001473,2
1777554011.722,-59.82037037037037,9.911074074074063,14.667074,0.74737,23.99292592592592,49.392704,-8.008222,16.380615,10.559082,-0.737666,-31.113281,-5.615234,9.484277,-116.010132,-9.216309,-0.268242,99.140625,49.133301,0.114961,2.999268,6.04248,9.316626,-24.927979,6.774902,-1.705254,98.014526,11.291504,0.03832,-0.258179,-2.01416,9.235195,149.996338,0.549316,-2.912344,3.619995,0.366211,-0.689766,3.806763,0.305176,0.661025,-88.890381,1.953125,10.116563,81.765747,-40.222168,0.852627,0.6427,22.155762,8.167017,-21.52771,3.234863,-0.555645,122.008667,-196.533203,-1.614243,-1.939087,8.544922,7.774233,120.635376,34.240723,-7.089258,21.099243,-182.800293,0.498164,-0.285645,-37.597656,4.272715,19.775391,16.784668,11.783496,0,7944,38919,46083,30723,0,0,60164,24326,2817,14338,0,0,0,0,0,0,0,0,0,0,0,0,0,0,0,0,0,0,0,0,0,0,0,0,0,659,3659,independent_20260430_210008,trial_001,subject_001,1777554011.7207055,276803.3300354,2266753,1,0,0,1,49.1135607597758,671.529119063751,845.1001669855516,137.0942685926698,668.7353325740808,838.8031312105626,64.1281110765543,448.3777614238113,896.384130039547,124.48562257611664,445.5227205371015,890.1714004923094,-94.68599262457596,622.7108686662602,719.5689004961902,-69.93424051237353,684.2350284828593,425.1192467947922,-85.364689335743,687.0627231012404,276.7847511222417,-38.34743702787621,741.9607661040453,74.11824895971304,19.782650854880327,678.6156018444004,36.21698956839813,18.921863920131177,944.3583264398547,89.57832286263977,252.51965791218728,557.6717916230765,693.6964367538328,202.36924779596623,490.2072064850136,398.332492203451,209.8705733037626,396.1146990543938,258.5000637961421,135.7577304025984,323.5004786947045,74.1839670903875,75.90565991718844,258.99800465743846,50.97129245411201,129.97006718743555,517.7104166221663,51.11693298624199,65.6708454068843,34.32915459311569,67.17597372401875,32.82402627598126,59.70101730489738,41.59007295427374,41.52968507240691,41.65046083614057,83.18014590854747,83.18014590854747,0.4138282775258401,0.4138282775258401,20.677831925193228,2.01001600001473,2
1777554011.731,-59.50737037037037,9.911074074074063,13.469074,0.41137,25.041925925925923,43.805704,-8.008222,16.693726,6.835938,-0.823887,-31.734009,-5.371094,9.627979,-117.542725,-7.019043,-0.229922,99.140625,49.133301,0.114961,2.999268,6.04248,9.316626,-24.927979,6.774902,-1.705254,98.366089,11.291504,0.191602,-0.22522,-2.258301,9.527388,149.848022,0.061035,-2.39502,3.619995,-0.549316,-0.603545,3.806763,0.427246,0.550854,-88.967285,1.586914,10.145303,80.716553,-23.986816,-0.071851,0.780029,31.37207,8.214917,-20.500488,0.488281,0.253872,114.75769,-210.81543,1.149609,-3.36731,37.231445,8.147856,120.569458,37.597656,-6.768325,21.099243,-182.800293,0.498164,-0.285645,-37.597656,4.272715,19.775391,16.784668,11.783496,0,7944,38919,46083,30723,0,0,60164,24326,2817,14338,0,0,0,0,0,0,0,0,0,0,0,0,0,0,0,0,0,0,0,0,0,0,0,0,0,659,3659,independent_20260430_210008,trial_001,subject_001,1777554011.7307053,276803.3400932,2266754,1,0,0,1,48.119648514762346,672.7671277902663,844.2919343416963,136.35561167005605,670.3323154689253,838.0375534672444,62.54244670009004,450.2503289294646,895.962810164574,122.6553130229818,447.3043233731205,889.6579383745183,-95.2132760499531,624.8460067282829,718.5365470987344,-69.74055359088585,684.5923377060943,423.8138455032398,-84.4325727343318,687.4450595524489,275.61643723136456,-37.82310507264288,740.4810415113633,73.7396494500449,19.81024324516717,675.356206982553,37.01371651369455,20.41351348525808,942.340387528729,83.77796408733856,251.3411468804861,558.3317018219684,693.1483407983441,201.67973269908825,489.8278971081082,397.93125824865245,209.55158881195828,394.2661127048441,259.2095719313822,136.33810061738262,319.9094925273278,75.05189711302458,75.87916535392665,254.6446972472632,52.20829111516593,129.95129231935252,513.2453227067945,50.92211961216404,65.6708454068843,34.32915459311569,67.17597372401875,32.82402627598126,59.70101730489738,41.59007295427374,41.52968507240691,41.65046083614057,83.18014590854747,83.18014590854747,0.4138282775258401,0.4138282775258401,20.677831925193228,2.01001600001473,2
1777554011.74,-59.50737037037037,9.911074074074063,13.469074,0.41137,25.041925925925923,43.805704,-8.008222,16.693726,6.835938,-0.823887,-31.734009,-5.371094,9.627979,-117.542725,-7.019043,-0.229922,99.140625,49.133301,0.114961,2.999268,6.04248,9.316626,-24.927979,6.774902,-1.705254,98.366089,11.291504,0.191602,-0.22522,-2.258301,9.527388,149.848022,0.061035,-2.39502,3.619995,-0.549316,-0.603545,3.806763,0.427246,0.550854,-88.967285,1.586914,10.145303,80.716553,-23.986816,-0.071851,0.780029,31.37207,8.214917,-20.500488,0.488281,0.253872,114.75769,-210.81543,1.149609,-3.36731,37.231445,8.147856,120.569458,37.597656,-6.768325,21.099243,-182.800293,0.498164,-0.285645,-37.597656,4.272715,19.775391,16.784668,11.783496,0,7944,38919,46083,30723,0,0,60164,24326,2817,14338,0,0,0,0,0,0,0,0,0,0,0,0,0,0,0,0,0,0,0,0,0,0,0,0,0,659,3659,independent_20260430_210008,trial_001,subject_001,1777554011.7472928,276803.3570232,2266755,1,0,0,1,47.52195355586339,675.4442616852003,843.5236190999193,135.49665795035537,671.9693764266772,837.3618557949329,60.63788201390158,452.19312055366953,895.3412201665053,120.9255774981509,448.88966421074826,889.1631399945159,-95.79684912399256,627.0347476491552,717.5897515869243,-70.05986000341936,685.4719740408912,422.94286693079073,-83.87812121567096,688.3491233220852,274.8342818908986,-37.76663006911284,738.6348299333614,73.31945993953384,19.65180429692071,672.0195861561174,37.95959193986656,21.09320317750762,940.242887241153,78.56441391093409,250.09188960465733,559.2215848838774,692.616132267481,200.8668267597221,489.77165252924254,397.577013482722,209.2384700862965,392.676962216688,260.0054513783958,136.5251106232524,315.9542663164443,76.42479318788087,75.82062373992082,250.29759655991387,53.27913981702791,129.93032342929845,508.92414901306256,50.76120863327181,65.6708454068843,34.32915459311569,67.17597372401875,32.82402627598126,59.70101730489738,41.59007295427374,41.52968507240691,41.65046083614057,83.18014590854747,83.18014590854747,0.4138282775258401,0.4138282775258401,20.677831925193228,2.01001600001473,2
1777554011.754,-59.50737037037037,7.791074074074075,13.469074,0.41137,25.37192592592592,43.805704,-9.738222,16.693726,6.835938,-0.823887,-31.734009,-5.371094,9.627979,-117.542725,-7.019043,-0.229922,101.260986,39.794922,0.00958,2.658691,3.662109,9.426797,-24.763184,4.882812,-1.417852,98.366089,11.291504,0.191602,-0.22522,-2.258301,9.527388,149.848022,0.061035,-2.39502,3.619995,-0.549316,-0.603545,3.806763,0.427246,0.550854,-88.967285,1.586914,10.145303,80.386963,-20.812988,-0.435894,0.873413,30.456543,8.339458,-20.044556,-0.732422,0.661025,114.75769,-210.81543,1.149609,-3.36731,37.231445,8.147856,120.569458,37.597656,-6.768325,12.11792,-181.091309,2.318379,-2.653198,-48.76709,6.801855,20.445557,40.710449,14.039604,0,7944,38919,46083,30723,0,0,60164,24326,2817,14338,0,0,0,0,0,0,0,0,0,0,0,0,0,0,0,0,0,0,0,0,0,0,0,0,0,659,3659,independent_20260430_210008,trial_001,subject_001,1777554011.7578032,276803.3668215,2266756,1,0,0,1,46.40699371227348,676.8469459824337,843.0186650058417,134.59154886864974,673.673308678604,836.8310938815326,59.000218458704126,454.1824051556145,895.0284343208414,119.0073850961442,450.74473957619927,888.6768960619996,-96.46916808327931,629.2288210943412,716.9034930991968,-70.56360514865968,686.8775174190774,422.258354462232,-84.04553583001868,689.5260692947139,274.1514240187081,-38.26271097630078,736.3735556628693,72.95815062312253,19.355814997750446,668.6454897977613,38.9220147057238,20.44979090838762,937.9437033454844,73.98051370463982,248.84393674926392,560.3461386656401,692.1344555922303,199.9678225180028,490.0754324166381,397.28359971340353,208.90869317720043,391.3187828695329,260.82651312834935,136.75307034503342,312.12963740057523,77.9141212077342,75.86321866955886,246.15669297685432,54.58258388769317,129.79541622453954,504.5929820229413,50.59550525189381,65.6708454068843,34.32915459311569,67.17597372401875,32.82402627598126,59.70101730489738,41.59007295427374,41.52968507240691,41.65046083614057,83.18014590854747,83.18014590854747,0.4138282775258401,0.4138282775258401,20.677831925193228,2.01001600001473,2
1777554011.761,-59.50737037037037,7.791074074074075,13.469074,0.41137,25.37192592592592,43.805704,-9.738222,16.693726,6.835938,-0.823887,-31.734009,-5.371094,9.627979,-117.542725,-7.019043,-0.229922,101.260986,39.794922,0.00958,2.658691,3.662109,9.426797,-24.763184,4.882812,-1.417852,98.366089,11.291504,0.191602,-0.22522,-2.258301,9.527388,149.848022,0.061035,-2.39502,3.619995,-0.549316,-0.603545,3.806763,0.427246,0.550854,-88.967285,1.586914,10.145303,80.386963,-20.812988,-0.435894,0.873413,30.456543,8.339458,-20.044556,-0.732422,0.661025,114.75769,-210.81543,1.149609,-3.36731,37.231445,8.147856,120.569458,37.597656,-6.768325,12.11792,-181.091309,2.318379,-2.653198,-48.76709,6.801855,20.445557,40.710449,14.039604,0,7944,38919,46083,30723,0,0,60164,24326,2817,14338,0,0,0,0,0,0,0,0,0,0,0,0,0,0,0,0,0,0,0,0,0,0,0,0,0,659,3659,independent_20260430_210008,trial_001,subject_001,1777554011.7578032,276803.3668215,2266756,1,0,0,1,46.40699371227348,676.8469459824337,843.0186650058417,134.59154886864974,673.673308678604,836.8310938815326,59.000218458704126,454.1824051556145,895.0284343208414,119.0073850961442,450.74473957619927,888.6768960619996,-96.46916808327931,629.2288210943412,716.9034930991968,-70.56360514865968,686.8775174190774,422.258354462232,-84.04553583001868,689.5260692947139,274.1514240187081,-38.26271097630078,736.3735556628693,72.95815062312253,19.355814997750446,668.6454897977613,39.78944701969628,20.44979090838762,937.9437033454844,69.77095313425829,248.84393674926392,560.3461386656401,692.1344555922303,199.9678225180028,490.0754324166381,397.28359971340353,208.90869317720043,391.3187828695329,260.82651312834935,136.75307034503342,312.12963740057523,77.9141212077342,75.86321866955886,246.15669297685432,56.18051374688306,129.79541622453954,504.5929820229413,50.41143107350329,65.6708454068843,34.32915459311569,67.17597372401875,32.82402627598126,59.70101730489738,41.59007295427374,41.52968507240691,41.65046083614057,83.18014590854747,83.18014590854747,0.4138282775258401,0.4138282775258401,20.677831925193228,2.01001600001473,2
1777554011.77,-59.50737037037037,7.791074074074075,13.469074,0.41137,25.37192592592592,43.805704,-9.738222,16.693726,6.835938,-0.823887,-31.734009,-5.371094,9.627979,-117.542725,-7.019043,-0.229922,101.260986,39.794922,0.00958,2.658691,3.662109,9.426797,-24.763184,4.882812,-1.417852,98.366089,11.291504,0.191602,-0.22522,-2.258301,9.527388,149.848022,0.061035,-2.39502,3.619995,-0.549316,-0.603545,3.806763,0.427246,0.550854,-88.967285,1.586914,10.145303,80.386963,-20.812988,-0.435894,0.873413,30.456543,8.339458,-20.044556,-0.732422,0.661025,114.75769,-210.81543,1.149609,-3.36731,37.231445,8.147856,120.569458,37.597656,-6.768325,12.11792,-181.091309,2.318379,-2.653198,-48.76709,6.801855,20.445557,40.710449,14.039604,0,7944,38919,46083,30723,0,0,60164,24326,2817,14338,0,0,0,0,0,0,0,0,0,0,0,0,0,0,0,0,0,0,0,0,0,0,0,0,0,659,3659,independent_20260430_210008,trial_001,subject_001,1777554011.770319,276803.3793393,2266758,1,0,0,1,44.28773679134845,680.9456396726073,842.3365043053064,132.4086991054553,677.3948103339543,836.0686234198517,55.67044247141294,458.1203874898342,894.3817890784242,115.89927163051456,454.3947772615177,887.9596193055866,-98.08536453746116,633.6307519665754,716.0800072558513,-72.5825868369086,691.4707157073675,421.79638809829896,-85.92777724666725,691.8713504354408,273.4141601254112,-40.28288969250912,731.3113205643635,72.52657526306572,18.47211156880834,661.75275463051,40.6375394426471,18.158283347207057,932.8464743178074,66.5645621852311,246.2690464101786,563.4151780472821,691.3950172285961,197.97510466997213,491.5360917414646,396.7383011693767,208.26032723720144,389.25112007944784,262.75529068416586,137.61814607814148,305.1047710806164,80.89986429910215,75.89190572966223,237.8807296928125,58.0313971704999,129.6645906203605,496.0151321691668,50.21790209421205,65.6708454068843,34.32915459311569,67.17597372401875,32.82402627598126,59.70101730489738,41.59007295427374,41.52968507240691,41.65046083614057,83.18014590854747,83.18014590854747,0.4138282775258401,0.4138282775258401,20.677831925193228,2.01001600001473,2
1777554011.795,-59.50737037037037,7.791074074074075,13.469074,0.41137,25.37192592592592,43.805704,-9.738222,16.693726,6.835938,-0.823887,-31.734009,-5.371094,9.627979,-117.542725,-7.019043,-0.229922,101.260986,39.794922,0.00958,2.658691,3.662109,9.426797,-24.763184,4.882812,-1.417852,98.366089,11.291504,0.191602,-0.22522,-2.258301,9.527388,149.848022,0.061035,-2.39502,3.619995,-0.549316,-0.603545,3.806763,0.427246,0.550854,-88.967285,1.586914,10.145303,80.386963,-20.812988,-0.435894,0.873413,30.456543,8.339458,-20.044556,-0.732422,0.661025,114.75769,-210.81543,1.149609,-3.36731,37.231445,8.147856,120.569458,37.597656,-6.768325,12.11792,-181.091309,2.318379,-2.653198,-48.76709,6.801855,20.445557,40.710449,14.039604,0,7944,38919,46083,30723,0,0,60164,24326,2817,14338,0,0,0,0,0,0,0,0,0,0,0,0,0,0,0,0,0,0,0,0,0,0,0,0,0,659,3659,independent_20260430_210008,trial_001,subject_001,1777554011.7973173,276803.406796,2266760,1,0,0,1,41.46200864341141,684.956893223877,842.2182753022444,129.56785483360554,681.5302878820124,835.738560955852,52.7065849918788,462.1129260890437,894.4343445902042,112.95947967445645,458.4764727444674,887.8432241483393,-100.10008721595398,638.6274067359661,716.5594153524514,-75.1287330346673,697.3000532702863,422.0962519876716,-89.03779559133476,693.5861611545706,273.4362737974688,-41.88918557966277,725.5578697394234,72.69039551147789,17.631582348170756,653.7044472058367,41.39988249203872,16.82970083995001,925.1528323309556,64.19350184914575,243.48255273426244,567.2937377089645,690.9455815601574,196.2394277583097,493.69947196968985,396.655640785785,207.8580782303409,387.93012204077706,265.21765791606526,138.54454056750367,298.46568677873233,84.56359422870459,76.04237967794636,230.01563871197828,59.4208444234314,129.21125862065378,487.8254237179697,50.0592722604904,65.6708454068843,34.32915459311569,67.17597372401875,32.82402627598126,59.70101730489738,41.59007295427374,41.52968507240691,41.65046083614057,83.18014590854747,83.18014590854747,0.4138282775258401,0.4138282775258401,20.677831925193228,2.01001600001473,2
1777554011.804,-59.28237037037037,7.791074074074075,11.953074,0.04937,25.92692592592593,43.805704,-12.529222,16.918945,4.516602,-0.723296,-32.557983,3.112793,9.374106,-119.970703,-1.525879,-0.0479,101.260986,39.794922,0.00958,2.658691,3.662109,9.426797,-24.763184,4.882812,-1.417852,98.970337,14.465332,-0.05269,-0.247192,-6.835938,9.244775,149.699707,3.112793,-2.692002,3.609009,0.366211,-0.651445,3.80127,-0.488281,0.608335,-89.060669,1.281738,10.073452,79.832153,-10.925293,-0.661025,1.098633,16.113281,8.665181,-19.291992,-2.13623,1.829795,114.75769,-210.81543,1.149609,-3.36731,37.231445,8.147856,120.569458,37.597656,-6.768325,9.327393,-184.143066,2.246528,-3.444214,-42.236328,6.667734,21.060791,52.79541,14.044395,0,7944,38919,46083,30723,0,0,60164,24326,2817,14338,0,0,0,0,0,0,0,0,0,0,0,0,0,0,0,0,0,0,0,0,0,0,0,0,0,659,3660,independent_20260430_210008,trial_001,subject_001,1777554011.8068318,276803.4166019,2266761,1,0,0,1,39.76600095250421,686.9828675310699,842.4245608462925,127.83968139356634,683.6985800424814,835.8035207614804,51.21988202112559,464.09771979040113,894.5650442865685,111.53115907617,460.5301165956246,887.7927744299868,-101.25602838550031,641.4347743573461,717.3617808785575,-76.47028353378943,700.1938551701861,422.4432227673856,-91.00687379232266,694.4356169115023,273.7640356003502,-42.53247813843757,722.2426480862362,72.7290821510886,17.12195267131064,649.5827790989257,42.06991069923419,16.399723319687325,921.4290663421182,62.066222786055285,242.0051955546269,569.4294315133345,690.9134778120365,195.41405797274305,494.9608409599498,396.7080908819264,207.7806557720805,387.4701459629837,266.6184684376116,139.07324007715587,295.368806895697,86.59853958931367,76.10621688434476,226.3815292414621,61.93860959093489,129.13205430040267,483.7587341976976,49.82858760452838,65.6708454068843,34.32915459311569,67.17597372401875,32.82402627598126,59.70101730489738,41.59007295427374,41.52968507240691,41.65046083614057,83.18014590854747,83.18014590854747,0.4138282775258401,0.4138282775258401,20.677831925193228,2.01001600001473,2
1777554011.814,-59.28237037037037,5.621074074074073,12.272074,-0.87863,26.05892592592592,43.805704,-18.648222,16.918945,4.516602,-0.723296,-32.557983,3.112793,9.374106,-119.970703,-1.525879,-0.0479,103.430786,40.161133,0.182021,2.279663,16.723633,9.83874,-24.11499,3.295898,-1.906436,99.28894,17.272949,0.124541,-0.291138,-0.488281,9.374106,149.655762,2.685547,-2.529141,3.603516,2.746582,-0.632285,3.80127,0.12207,0.502954,-89.170532,1.464844,9.987231,79.700317,-7.263184,-0.637075,1.170044,11.779785,8.799302,-19.110718,-1.708984,1.911226,114.75769,-210.81543,1.149609,-3.36731,37.231445,8.147856,120.569458,37.597656,-6.768325,3.208008,-161.315918,-1.896855,-5.031738,-45.471191,6.433022,22.587891,37.29248,11.936777,0,7944,38919,46083,30723,0,0,60164,24326,2817,14338,0,0,0,0,0,0,0,0,0,0,0,0,0,0,0,0,0,0,0,0,0,0,0,0,0,659,3661,independent_20260430_210008,trial_001,subject_001,1777554011.8178296,276803.4268428,2266762,1,0,0,1,37.88135898859668,689.0922876931143,842.9018145085672,125.9447510411917,685.9037283529038,836.0271581480365,49.961358309487046,466.0709971634383,894.7974128830253,110.24865256124866,462.6190616192478,887.9692573277282,-102.27556936633248,644.5182271356337,718.2958005779948,-77.57453463117527,703.0542611960909,422.828270408885,-92.9645082385423,695.2673684941395,273.79332185029523,-43.164963230795735,718.2923327571076,72.77761282040137,16.776096817015045,645.1596664516528,42.63983811990397,16.031114827397037,917.3518298401992,59.949201001020064,240.3875341908592,571.7721881892533,690.9322704799903,194.6649926150617,496.40201077291374,396.7873139022211,207.56135510530464,387.03832594837166,268.17578231327207,139.68409454546642,292.4750734856035,88.82886985431064,76.40004572174983,222.80244737056185,64.97753709784683,129.14049799453375,479.8659483345724,49.556502467277866,65.6708454068843,34.32915459311569,67.17597372401875,32.82402627598126,59.70101730489738,41.59007295427374,41.52968507240691,41.65046083614057,83.18014590854747,83.18014590854747,0.4138282775258401,0.4138282775258401,20.677831925193228,2.01001600001473,2
1777554011.823,-59.28237037037037,5.621074074074073,12.272074,-0.87863,26.05892592592592,43.805704,-18.648222,16.918945,4.516602,-0.723296,-32.557983,3.112793,9.374106,-119.970703,-1.525879,-0.0479,103.430786,40.161133,0.182021,2.279663,16.723633,9.83874,-24.11499,3.295898,-1.906436,99.28894,17.272949,0.124541,-0.291138,-0.488281,9.374106,149.655762,2.685547,-2.529141,3.603516,2.746582,-0.632285,3.80127,0.12207,0.502954,-89.170532,1.464844,9.987231,79.700317,-7.263184,-0.637075,1.170044,11.779785,8.799302,-19.110718,-1.708984,1.911226,114.75769,-210.81543,1.149609,-3.36731,37.231445,8.147856,120.569458,37.597656,-6.768325,3.208008,-161.315918,-1.896855,-5.031738,-45.471191,6.433022,22.587891,37.29248,11.936777,0,7944,38919,46083,30723,0,0,60164,24326,2817,14338,0,0,0,0,0,0,0,0,0,0,0,0,0,0,0,0,0,0,0,0,0,0,0,0,0,659,3661,independent_20260430_210008,trial_001,subject_001,1777554011.8278332,276803.4370871,2266763,1,0,0,1,35.82795165354809,691.2330949806595,843.5606094838563,123.890853854942,688.203248956415,836.4458119313196,48.60272365266231,468.1658319102574,895.2199330470497,108.8244665599122,464.7659142601908,888.2969958215385,-103.16704010622075,647.5806924939595,719.2850561257151,-78.36214530452989,705.6143178818423,423.20225998202073,-95.09268233249284,696.1227877958181,274.7871396375708,-43.80388870035257,714.1809760034317,72.93125955065179,16.284843187145462,640.9295795416837,43.11756857809346,15.446960848036683,913.1251910143296,58.1047945723315,238.66265003971267,574.278920420439,691.0185209292541,193.8340967361789,498.0640141956847,396.93876251083935,207.44330660292457,386.9282187252873,269.9291865581929,140.31666232835389,289.62555238758,91.1953996394166,76.61979988469564,219.36824968869203,68.56204064603398,128.97785996723695,476.1035337728094,49.256148039936186,65.6708454068843,34.32915459311569,67.17597372401875,32.82402627598126,59.70101730489738,41.59007295427374,41.52968507240691,41.65046083614057,83.18014590854747,83.18014590854747,0.4138282775258401,0.4138282775258401,20.677831925193228,2.01001600001473,2
1777554011.831,-59.28237037037037,5.621074074074073,12.272074,-0.87863,26.05892592592592,43.805704,-18.648222,16.918945,4.516602,-0.723296,-32.557983,3.112793,9.374106,-119.970703,-1.525879,-0.0479,103.430786,40.161133,0.182021,2.279663,16.723633,9.83874,-24.11499,3.295898,-1.906436,99.28894,17.272949,0.124541,-0.291138,-0.488281,9.374106,149.655762,2.685547,-2.529141,3.603516,2.746582,-0.632285,3.80127,0.12207,0.502954,-89.170532,1.464844,9.987231,79.700317,-7.263184,-0.637075,1.170044,11.779785,8.799302,-19.110718,-1.708984,1.911226,114.75769,-210.81543,1.149609,-3.36731,37.231445,8.147856,120.569458,37.597656,-6.768325,3.208008,-161.315918,-1.896855,-5.031738,-45.471191,6.433022,22.587891,37.29248,11.936777,0,7944,38919,46083,30723,0,0,60164,24326,2817,14338,0,0,0,0,0,0,0,0,0,0,0,0,0,0,0,0,0,0,0,0,0,0,0,0,0,659,3661,independent_20260430_210008,trial_001,subject_001,1777554011.8278332,276803.4370871,2266763,1,0,0,1,35.82795165354809,691.2330949806595,843.5606094838563,123.890853854942,688.203248956415,836.4458119313196,48.60272365266231,468.1658319102574,895.2199330470497,108.8244665599122,464.7659142601908,888.2969958215385,-103.16704010622075,647.5806924939595,719.2850561257151,-78.36214530452989,705.6143178818423,423.20225998202073,-95.09268233249284,696.1227877958181,274.7871396375708,-43.80388870035257,714.1809760034317,72.93125955065179,16.284843187145462,640.9295795416837,43.44008820523942,15.446960848036683,913.1251910143296,56.98812403731717,238.66265003971267,574.278920420439,691.0185209292541,193.8340967361789,498.0640141956847,396.93876251083935,207.44330660292457,386.9282187252873,269.9291865581929,140.31666232835389,289.62555238758,91.1953996394166,76.61979988469564,219.36824968869203,72.61379138125105,128.97785996723695,476.1035337728094,48.93571330818282,65.6708454068843,34.32915459311569,67.17597372401875,32.82402627598126,59.70101730489738,41.59007295427374,41.52968507240691,41.65046083614057,83.18014590854747,83.18014590854747,0.4138282775258401,0.4138282775258401,20.677831925193228,2.01001600001473,2
1777554011.841,-59.38637037037037,5.017074074074074,12.272074,-0.87863,26.05892592592592,23.794704,-18.648222,16.814575,0.732422,-0.560435,-33.008423,9.338379,9.901011,-121.503296,3.662109,0.234712,104.035034,39.0625,0.205972,2.197266,18.737793,9.647139,-23.851318,1.281738,-2.074087,99.28894,17.272949,0.124541,-0.291138,-0.488281,9.374106,149.655762,2.685547,-2.529141,3.603516,3.723145,-0.617915,3.80127,0.610352,0.550854,-89.197998,1.281738,10.030342,79.700317,-7.263184,-0.637075,1.170044,11.779785,8.799302,-19.110718,-1.708984,1.911226,92.680664,-158.508301,0.938848,-7.767334,17.944336,9.340576,124.568481,28.991699,-4.330195,3.208008,-161.315918,-1.896855,-5.031738,-45.471191,6.433022,22.587891,37.29248,11.936777,0,7944,38919,46083,30723,0,0,60164,24326,2817,14338,0,0,0,0,0,0,0,0,0,0,0,0,0,0,0,0,0,0,0,0,0,0,0,0,0,659,3662,independent_20260430_210008,trial_001,subject_001,1777554011.83783,276803.4467817,2266764,1,0,0,1,33.88435901809392,694.0159758516775,844.4155488407968,121.78813185796248,690.5022017978384,837.040207959812,46.94377699426024,470.4258711741994,895.7572388994706,107.53333452966028,466.9914221789832,888.546411884025,-103.9980861123156,650.4143379508993,720.2929506682475,-78.8401129949585,708.0073873933053,423.51402265229336,-95.78883568852244,696.7122135198045,274.8683753558478,-44.30020606070629,710.2757599837428,73.16238666058607,15.91163801232815,636.6150766849017,43.648026214458646,15.149297561214931,908.9468984115844,56.25779332745141,236.8660549007928,576.8125432251784,691.2654788981265,192.92327934710784,500.0247242702298,397.1584628694629,207.27439553779425,387.1426044771746,271.9084699131603,140.92022422824795,287.0545440041463,93.74415251924368,76.70924850012109,216.3335884378742,77.18274125574537,129.05438740494247,472.4174984011877,48.596813567445295,65.6708454068843,34.32915459311569,67.17597372401875,32.82402627598126,59.70101730489738,41.59007295427374,41.52968507240691,41.65046083614057,83.18014590854747,83.18014590854747,0.4138282775258401,0.4138282775258401,20.677831925193228,2.01001600001473,2
1777554011.851,-59.38637037037037,5.017074074074074,12.272074,-0.87863,26.05892592592592,23.794704,-18.648222,16.814575,0.732422,-0.560435,-33.008423,9.338379,9.901011,-121.503296,3.662109,0.234712,104.035034,39.0625,0.205972,2.197266,18.737793,9.647139,-23.851318,1.281738,-2.074087,99.28894,17.272949,0.124541,-0.291138,-0.488281,9.374106,149.655762,2.685547,-2.529141,3.603516,3.723145,-0.617915,3.80127,0.610352,0.550854,-89.197998,1.281738,10.030342,79.700317,-7.263184,-0.637075,1.170044,11.779785,8.799302,-19.110718,-1.708984,1.911226,92.680664,-158.508301,0.938848,-7.767334,17.944336,9.340576,124.568481,28.991699,-4.330195,3.208008,-161.315918,-1.896855,-5.031738,-45.471191,6.433022,22.587891,37.29248,11.936777,0,7944,38919,46083,30723,0,0,60164,24326,2817,14338,0,0,0,0,0,0,0,0,0,0,0,0,0,0,0,0,0,0,0,0,0,0,0,0,0,659,3662,independent_20260430_210008,trial_001,subject_001,1777554011.8498323,276803.4596032,2266766,1,0,0,1,29.855310170443364,698.3956912859338,846.421795465855,117.88765065795236,695.209528280576,838.6531947959629,43.53833364019871,475.01547528746886,896.6615953545411,103.84853442117686,471.6687970411141,889.6437240868405,-106.35384535648632,655.4099299302508,721.3756271016084,-79.44955460515315,711.0111769594636,423.8487269312613,-96.72077816592083,696.473443517234,275.378184271945,-44.92358024042929,702.6259267058514,73.45784176473244,15.253926163213688,628.2185653049005,43.77357487345029,14.256215564519255,900.546066145971,55.83771306678015,233.5740088971544,581.6858527423364,692.2415783291638,191.48378566287448,504.97505996915214,397.7622221315926,206.58946025912783,388.04969016719554,275.9714804541032,140.92339893128786,282.82633964863203,99.76724751365812,77.53739803766899,210.99027424495813,82.27059090752094,129.01947025299154,465.7432637969398,48.22608454433853,65.6708454068843,34.32915459311569,67.17597372401875,32.82402627598126,59.70101730489738,41.59007295427374,41.52968507240691,41.65046083614057,83.18014590854747,83.18014590854747,0.4138282775258401,0.4138282775258401,20.677831925193228,2.01001600001473,2
1777554011.862,-59.38637037037037,3.786074074074065,10.437074,-0.87863,26.66792592592593,23.794704,-4.157222,16.814575,0.732422,-0.560435,-33.008423,9.338379,9.901011,-121.503296,3.662109,0.234712,105.265503,31.433105,0.201182,2.037964,16.235352,9.513018,-23.236084,0.061035,-2.768643,100.228271,20.324707,-0.162861,-0.466919,-4.02832,9.436377,149.595337,5.065918,-2.792593,3.603516,3.723145,-0.617915,3.80127,0.610352,0.550854,-89.197998,1.281738,10.030342,79.090576,-13.244629,-0.809517,1.279907,-5.493164,9.067544,-18.841553,1.281738,2.356699,92.680664,-158.508301,0.938848,-7.767334,17.944336,9.340576,124.568481,28.991699,-4.330195,-4.378052,-134.460449,0.637075,-6.564331,-31.433105,5.479805,23.356934,9.338379,10.566826,0,7944,38919,46083,30723,0,0,60164,24326,2817,14338,0,0,0,0,0,0,0,0,0,0,0,0,0,0,0,0,0,0,0,0,0,0,0,0,0,659,3662,independent_20260430_210008,trial_001,subject_001,1777554011.8608384,276803.4699581,2266767,1,0,0,1,28.23573030215537,700.9278664967549,847.3365192822104,116.2799641983971,697.4593014533017,839.5737914538387,41.4404641134694,477.5430171446913,897.5108144069889,101.7729461588725,474.00062074892566,890.2218640774433,-107.82786059301786,657.4353104825158,721.3654208734612,-79.9206337307141,711.3989819821445,423.5434068929303,-96.95446397930844,695.1813405391096,275.48552906086337,-44.99789773811741,698.5969743172934,73.57164364739715,14.917049366531778,623.8424920389854,43.836926007492586,13.974483734060325,896.3964261586918,55.64580605525722,231.97741076799232,584.0300730814192,692.8655475795476,190.96537498504927,507.8380871918797,398.0805414183204,206.25267034167592,388.84702787316,278.1788101682939,141.18511311396205,281.1206192583962,103.25028851500454,77.73549745660071,208.747953198316,87.85505027232439,128.95106840656752,462.6295832353689,47.827875429167534,65.6708454068843,34.32915459311569,67.17597372401875,32.82402627598126,59.70101730489738,41.59007295427374,41.52968507240691,41.65046083614057,83.18014590854747,83.18014590854747,0.4138282775258401,0.4138282775258401,20.677831925193228,2.01001600001473,2
1777554011.871,-59.38637037037037,3.786074074074065,10.437074,-0.87863,26.66792592592593,23.794704,-4.157222,16.814575,0.732422,-0.560435,-33.008423,9.338379,9.901011,-121.503296,3.662109,0.234712,105.265503,31.433105,0.201182,2.037964,16.235352,9.513018,-23.236084,0.061035,-2.768643,100.228271,20.324707,-0.162861,-0.466919,-4.02832,9.436377,149.595337,5.065918,-2.792593,3.603516,3.723145,-0.617915,3.80127,0.610352,0.550854,-89.197998,1.281738,10.030342,79.090576,-13.244629,-0.809517,1.279907,-5.493164,9.067544,-18.841553,1.281738,2.356699,92.680664,-158.508301,0.938848,-7.767334,17.944336,9.340576,124.568481,28.991699,-4.330195,-4.378052,-134.460449,0.637075,-6.564331,-31.433105,5.479805,23.356934,9.338379,10.566826,0,7944,38919,46083,30723,0,0,60164,24326,2817,14338,0,0,0,0,0,0,0,0,0,0,0,0,0,0,0,0,0,0,0,0,0,0,0,0,0,659,3662,independent_20260430_210008,trial_001,subject_001,1777554011.8708663,276803.4800936,2266768,1,0,0,1,26.8294852918118,703.5052822043843,848.1695255641997,114.86797850355912,699.7954061051721,840.5449909734884,39.18161243554803,480.0463135342159,898.0701559768049,99.56344728559267,476.3176342167008,890.9506705959733,-109.31333540007763,659.2241574495271,721.0555224343703,-80.41923250287869,710.9066064709691,423.0212839854937,-96.99345148714558,692.9807098000432,275.22545166944127,-44.931665244089096,694.3914668608236,73.52362325624243,14.72708133770364,619.6396323336156,43.87169620218326,13.746332182992042,892.2973202693933,55.59488268472784,230.29314000675967,586.4843076920907,693.3129550678233,190.6624404874428,511.0701653824812,398.4292666927438,205.9728302124426,389.8540794476274,280.61384571266734,141.35273412074022,279.7229403344528,107.01262061029358,78.16376619531815,206.739993680202,93.94027785275702,129.05063922336225,459.4470793657182,47.41273831742888,65.6708454068843,34.32915459311569,67.17597372401875,32.82402627598126,59.70101730489738,41.59007295427374,41.52968507240691,41.65046083614057,83.18014590854747,83.18014590854747,0.4138282775258401,0.4138282775258401,20.677831925193228,2.01001600001473,2
1777554011.881,-59.38637037037037,3.786074074074065,10.437074,-0.87863,26.66792592592593,23.794704,-4.157222,16.814575,0.732422,-0.560435,-33.008423,9.338379,9.901011,-121.503296,3.662109,0.234712,105.265503,31.433105,0.201182,2.037964,16.235352,9.513018,-23.236084,0.061035,-2.768643,100.228271,20.324707,-0.162861,-0.466919,-4.02832,9.436377,149.595337,5.065918,-2.792593,3.603516,3.723145,-0.617915,3.80127,0.610352,0.550854,-89.197998,1.281738,10.030342,79.090576,-13.244629,-0.809517,1.279907,-5.493164,9.067544,-18.841553,1.281738,2.356699,92.680664,-158.508301,0.938848,-7.767334,17.944336,9.340576,124.568481,28.991699,-4.330195,-4.378052,-134.460449,0.637075,-6.564331,-31.433105,5.479805,23.356934,9.338379,10.566826,0,7944,38919,46083,30723,0,0,60164,24326,2817,14338,0,0,0,0,0,0,0,0,0,0,0,0,0,0,0,0,0,0,0,0,0,0,0,0,0,659,3662,independent_20260430_210008,trial_001,subject_001,1777554011.8808649,276803.4899126,2266769,1,0,0,1,25.62106139902232,705.9632849925673,848.777489688146,113.70186434548536,701.9424035415921,841.4833023229527,36.71196051395941,482.5334221179201,898.6009847864412,97.11730664882684,478.52283084113776,891.6053250144835,-110.76524565464246,660.5845026605407,720.670164612034,-80.96987032400799,709.85387654082,422.3008816419623,-96.4756898901864,689.8867559474403,274.7609044876427,-44.78525898322915,690.1845571974181,73.52699457134328,14.525782253583136,615.4076264675995,43.79963807984427,13.686241278791927,888.1100706077481,56.02247562642961,228.87865430187463,588.7918113566012,694.0898108802206,190.4247343249748,514.7153936790328,398.6965923654252,205.7994070577388,391.1175306719253,283.08837370229395,141.4556676308825,278.792414431733,110.88255094350946,78.70562278181096,204.6982066740947,99.8022727502826,129.13221136267904,456.47143546426815,47.04747404353181,65.6708454068843,34.32915459311569,67.17597372401875,32.82402627598126,59.70101730489738,41.59007295427374,41.52968507240691,41.65046083614057,83.18014590854747,83.18014590854747,0.4138282775258401,0.4138282775258401,20.677831925193228,2.01001600001473,2
1777554011.906,-59.38637037037037,3.786074074074065,10.437074,-0.87863,26.66792592592593,23.794704,-4.157222,16.814575,0.732422,-0.560435,-33.008423,9.338379,9.901011,-121.503296,3.662109,0.234712,105.265503,31.433105,0.201182,2.037964,16.235352,9.513018,-23.236084,0.061035,-2.768643,100.228271,20.324707,-0.162861,-0.466919,-4.02832,9.436377,149.595337,5.065918,-2.792593,3.603516,3.723145,-0.617915,3.80127,0.610352,0.550854,-89.197998,1.281738,10.030342,79.090576,-13.244629,-0.809517,1.279907,-5.493164,9.067544,-18.841553,1.281738,2.356699,92.680664,-158.508301,0.938848,-7.767334,17.944336,9.340576,124.568481,28.991699,-4.330195,-4.378052,-134.460449,0.637075,-6.564331,-31.433105,5.479805,23.356934,9.338379,10.566826,0,7944,38919,46083,30723,0,0,60164,24326,2817,14338,0,0,0,0,0,0,0,0,0,0,0,0,0,0,0,0,0,0,0,0,0,0,0,0,0,659,3662,independent_20260430_210008,trial_001,subject_001,1777554011.9098663,276803.5198968,2266772,1,0,0,1,22.865350646924416,712.619138123632,850.1522846556298,110.94262327441004,707.5796958857534,843.9671343755708,30.615932452128924,489.0714264952133,900.6831194405477,90.69881996620772,484.1687481035911,893.578679879158,-114.23878186917436,664.5856240517727,720.3823592768307,-84.02456553184797,704.9523988200635,420.9118787500173,-98.4310414139913,681.0207804555216,273.74197904234217,-44.97711343285275,677.625808878196,73.41323953488427,14.038462697790752,602.8901301331626,43.79492607634938,13.09386019137821,875.7241391763952,56.052044344305465,225.49605916534148,595.8081665405772,696.2785916590013,191.51235856487747,527.9690349360657,399.194938213158,206.00816484666424,397.4338589444071,291.04971197086405,141.88839012934625,277.4224807195321,124.12575014073568,79.9570788368325,202.13869950546604,106.00053986071646,129.3483043705555,448.2182759185964,46.68250236900252,65.6708454068843,34.32915459311569,67.17597372401875,32.82402627598126,59.70101730489738,41.59007295427374,41.52968507240691,41.65046083614057,83.18014590854747,83.18014590854747,0.4138282775258401,0.4138282775258401,20.677831925193228,2.01001600001473,2
1777554011.912,-59.38637037037037,3.786074074074065,10.437074,-0.87863,26.66792592592593,23.794704,-4.157222,16.814575,0.732422,-0.560435,-33.008423,9.338379,9.901011,-121.503296,3.662109,0.234712,105.265503,31.433105,0.201182,2.037964,16.235352,9.513018,-23.236084,0.061035,-2.768643,100.228271,20.324707,-0.162861,-0.466919,-4.02832,9.436377,149.595337,5.065918,-2.792593,3.603516,3.723145,-0.617915,3.80127,0.610352,0.550854,-89.197998,1.281738,10.030342,79.090576,-13.244629,-0.809517,1.279907,-5.493164,9.067544,-18.841553,1.281738,2.356699,92.680664,-158.508301,0.938848,-7.767334,17.944336,9.340576,124.568481,28.991699,-4.330195,-4.378052,-134.460449,0.637075,-6.564331,-31.433105,5.479805,23.356934,9.338379,10.566826,0,7944,38919,46083,30723,0,0,60164,24326,2817,14338,0,0,0,0,0,0,0,0,0,0,0,0,0,0,0,0,0,0,0,0,0,0,0,0,0,659,3662,independent_20260430_210008,trial_001,subject_001,1777554011.9098663,276803.5198968,2266772,1,0,0,1,22.865350646924416,712.619138123632,850.1522846556298,110.94262327441004,707.5796958857534,843.9671343755708,30.615932452128924,489.0714264952133,900.6831194405477,90.69881996620772,484.1687481035911,893.578679879158,-114.23878186917436,664.5856240517727,720.3823592768307,-84.02456553184797,704.9523988200635,420.9118787500173,-98.4310414139913,681.0207804555216,273.74197904234217,-44.97711343285275,677.625808878196,73.41323953488427,14.038462697790752,602.8901301331626,43.82029129233081,13.09386019137821,875.7241391763952,55.91438376222787,225.49605916534148,595.8081665405772,696.2785916590013,191.51235856487747,527.9690349360657,399.194938213158,206.00816484666424,397.4338589444071,291.04971197086405,141.88839012934625,277.4224807195321,124.12575014073568,79.9570788368325,202.13869950546604,113.13732050458054,129.3483043705555,448.2182759185964,46.21896194189462,65.6708454068843,34.32915459311569,67.17597372401875,32.82402627598126,59.70101730489738,41.59007295427374,41.52968507240691,41.65046083614057,83.18014590854747,83.18014590854747,0.4138282775258401,0.4138282775258401,20.677831925193228,2.01001600001473,2
1777554011.924,-59.91437037037037,3.786074074074065,10.239074,-0.87863,26.66792592592593,16.965704,-4.157222,16.287231,-2.563477,-0.958008,-33.31604,10.742188,9.465117,-122.717285,5.065918,0.239502,105.265503,31.433105,0.201182,2.037964,16.235352,9.513018,-23.236084,0.061035,-2.768643,101.260986,22.216797,-0.167651,-0.686646,2.685547,9.196875,149.661255,4.760742,-3.103945,3.603516,3.723145,-0.617915,3.80127,0.610352,0.550854,-89.197998,1.281738,10.030342,79.090576,-13.244629,-0.809517,1.279907,-5.493164,9.067544,-18.841553,1.281738,2.356699,85.24292,-111.633301,1.163979,-9.239502,14.709473,8.875942,125.535278,24.841309,-2.41897,-4.378052,-134.460449,0.637075,-6.564331,-31.433105,5.479805,23.356934,9.338379,10.566826,0,7944,38919,46083,30723,0,0,60164,24326,2817,14338,0,0,0,0,0,0,0,0,0,0,0,0,0,0,0,0,0,0,0,0,0,0,0,0,0,659,3663,independent_20260430_210008,trial_001,subject_001,1777554011.9203837,276803.5300434,2266773,1,0,0,1,22.03151317135536,714.4547464498888,850.6709093440078,110.07879397096822,709.0839153595806,844.7171476633955,28.7499535810112,490.9657874665384,901.4244349060071,88.92799595840307,485.827282253715,894.1216279384696,-115.23707591666404,665.6178642323673,720.6622811953024,-85.29425999388073,703.3731476130289,420.5481433847044,-99.58383753416622,678.3977645599851,273.6896130053441,-45.41026105937176,673.5315460595999,73.29625534726524,13.68149492911435,598.6172714747117,43.85631686397018,12.84180103880167,871.5852265607873,55.72980186810449,224.73185947506408,598.2135191240192,696.9757699796544,192.2713460854352,533.0273484711586,399.28722291666304,206.1967991976035,400.48291499247216,293.5844168775015,142.03332522939567,277.6653553625822,128.8166839192647,80.26703408787735,202.2941841504355,121.81259821759588,129.50390038163405,445.9081396881453,45.53107782189821,65.6708454068843,34.32915459311569,67.17597372401875,32.82402627598126,59.70101730489738,41.59007295427374,41.52968507240691,41.65046083614057,83.18014590854747,83.18014590854747,0.4138282775258401,0.4138282775258401,20.677831925193228,2.01001600001473,2
1777554011.93,-59.91437037037037,3.786074074074065,10.239074,-0.87863,26.66792592592593,16.965704,-4.157222,16.287231,-2.563477,-0.958008,-33.31604,10.742188,9.465117,-122.717285,5.065918,0.239502,105.265503,31.433105,0.201182,2.037964,16.235352,9.513018,-23.236084,0.061035,-2.768643,101.260986,22.216797,-0.167651,-0.686646,2.685547,9.196875,149.661255,4.760742,-3.103945,3.603516,3.723145,-0.617915,3.80127,0.610352,0.550854,-89.197998,1.281738,10.030342,79.090576,-13.244629,-0.809517,1.279907,-5.493164,9.067544,-18.841553,1.281738,2.356699,85.24292,-111.633301,1.163979,-9.239502,14.709473,8.875942,125.535278,24.841309,-2.41897,-4.378052,-134.460449,0.637075,-6.564331,-31.433105,5.479805,23.356934,9.338379,10.566826,0,7944,38919,46083,30723,0,0,60164,24326,2817,14338,0,0,0,0,0,0,0,0,0,0,0,0,0,0,0,0,0,0,0,0,0,0,0,0,0,659,3663,independent_20260430_210008,trial_001,subject_001,1777554011.9303792,276803.5401489,2266774,1,0,0,1,21.13833072208187,716.0801026210285,851.1788651898737,109.13260059090938,710.5382920893783,845.4857069372025,27.192924444304737,492.5486408974633,901.9147057709322,87.39981650541623,487.2563539784452,894.6994050688158,-116.26866997466384,666.4929571777193,720.9082284575173,-86.62535458014936,702.0219095515864,420.26163464053445,-100.88279193530852,676.3656959685436,273.4322798477437,-45.90274539410652,669.531089350301,73.28736879296484,13.250013869106622,594.4837658380277,43.89768180265766,12.587269980970898,867.5071371989299,55.54007118090406,224.00103607190096,600.6689955505186,697.6404389898448,193.10349598337768,538.4626500366509,399.2826606196954,206.53442131044176,403.9756573746442,296.04949489027285,142.2886418574218,278.29021292007786,133.8483749464965,80.73020793584257,203.0014997543389,131.80558218367085,129.59149456096344,443.59852184764776,44.59150545685963,65.6708454068843,34.32915459311569,67.17597372401875,32.82402627598126,59.70101730489738,41.59007295427374,41.52968507240691,41.65046083614057,83.18014590854747,83.18014590854747,0.4138282775258401,0.4138282775258401,20.677831925193228,2.01001600001473,2
1777554011.944,-60.13337037037037,3.786074074074065,10.580074,-0.87863,27.294925925925924,15.410704,-1.619222,16.067505,-1.525879,-0.852627,-33.43689,10.559082,9.445957,-123.184204,6.103516,0.330513,105.265503,31.433105,0.201182,2.037964,16.235352,9.513018,-23.236084,0.061035,-2.768643,101.601562,23.132324,-0.239502,-0.774536,2.563477,9.192085,149.672241,5.981445,-3.079995,3.603516,3.723145,-0.617915,3.80127,0.610352,0.550854,-89.197998,1.281738,10.030342,78.464355,-8.239746,-0.182021,1.098633,4.211426,9.144185,-18.726196,9.70459,3.424878,83.688354,-97.717285,0.953218,-9.558105,10.864258,8.789722,125.765991,21.54541,-2.131567,-10.83252,-40.710449,-0.943638,-8.371582,-31.921387,5.901328,24.351196,-1.281738,6.567144,0,7944,38919,46083,30723,0,0,60164,24326,2817,14338,0,0,0,0,0,0,0,0,0,0,0,0,0,0,0,0,0,0,0,0,0,0,0,0,0,659,3663,independent_20260430_210008,trial_001,subject_001,1777554011.9403796,276803.5498767,2266775,1,0,0,1,20.28830875198017,718.0742227475797,851.5513809769768,108.08616412242016,711.8080838608462,846.2686074553502,25.514801225946115,493.6774601770972,902.4971873763632,86.2213156185721,488.5035064805677,895.3632240367415,-117.3327628667724,667.1502562271887,721.1377696327461,-87.96760971150533,700.9310294302851,420.06894702812974,-102.19217806574711,674.6091240534741,273.1370579596272,-46.602337673479695,665.4788759377333,73.2001278722022,12.871626201349596,590.3404563571347,43.96260863545503,12.157433669117566,863.4137632814057,55.34329717860192,223.4257644109043,603.2142114000952,698.312071621351,194.00039865902207,544.3032055682677,399.2443051143185,206.7758049252376,407.8268200951526,298.4900253447764,142.51198811270376,279.3072685578064,138.96754920999737,81.12221282796268,204.21150657229725,142.76193882645865,129.70357488978,441.5435301322161,43.74572410133183,65.6708454068843,34.32915459311569,67.17597372401875,32.82402627598126,59.70101730489738,41.59007295427374,41.52968507240691,41.65046083614057,83.18014590854747,83.18014590854747,0.4138282775258401,0.4138282775258401,20.677831925193228,2.01001600001473,2
1777554011.952,-60.51837037037037,0.9740740740740677,8.597074,-2.83463,27.294925925925924,13.626704,-1.619222,15.682983,-3.540039,-0.747246,-33.607178,12.329102,9.80042,-123.821411,8.056641,0.320933,108.078003,36.376953,-0.03832,1.499634,23.742676,9.503438,-21.934204,1.403809,-2.744692,102.43103,25.695801,0.325723,-1.010742,8.728027,9.153765,149.880981,6.286621,-3.424878,3.960571,4.821777,-0.598755,3.861694,1.159668,0.742456,-89.192505,0.793457,10.073452,78.464355,-8.239746,-0.182021,1.098633,4.211426,9.144185,-18.726196,9.70459,3.424878,81.276855,-47.119141,1.144819,-10.360107,-5.493164,7.4054,125.864868,23.010254,-2.050137,-10.83252,-40.710449,-0.943638,-8.371582,-31.921387,5.901328,24.351196,-1.281738,6.567144,0,7944,38919,46083,30723,0,0,60164,24326,2817,14338,0,0,0,0,0,0,0,0,0,0,0,0,0,0,0,0,0,0,0,0,0,0,0,0,0,659,3663,independent_20260430_210008,trial_001,subject_001,1777554011.9503808,276803.5599631,2266776,1,0,0,1,18.99172112680192,718.5754852539833,852.131018247985,106.95980618241497,712.9955033535065,847.0578816141596,24.45668312301221,494.8608008489667,902.9987454861237,84.8830426083618,489.68403696926833,895.7077412373758,-118.4845934309851,667.4958469063284,721.3044387535957,-89.10977001303183,699.6946655213035,419.8314511884071,-103.30553505875852,672.8325075429665,272.9272388900807,-47.2307082389519,661.7240014651247,73.28492075836455,12.39239935921281,586.2367960721601,44.02053537869717,11.85974609345324,859.2624104008054,55.17349398459668,222.77163746014207,605.7696452245502,698.8962240438076,194.9513773101652,550.4757137563878,399.1721237199006,207.13998343340825,412.1419932627565,301.05899651101976,142.67734637143826,280.7096049549291,144.365200265389,81.50429629464749,206.16142928546645,153.99965251285218,129.84589978258057,439.5824017154288,42.78111057919293,65.6708454068843,34.32915459311569,67.17597372401875,32.82402627598126,59.70101730489738,41.59007295427374,41.52968507240691,41.65046083614057,83.18014590854747,83.18014590854747,0.4138282775258401,0.4138282775258401,20.677831925193228,2.01001600001473,2
1777554011.962,-60.84237037037037,0.9740740740740677,8.960074,-2.83463,27.953925925925915,13.626704,-0.614222,15.358887,-4.943848,-0.656235,-33.684082,14.892578,9.656719,-124.200439,8.850098,0.445474,108.078003,36.376953,-0.03832,1.499634,23.742676,9.503438,-21.934204,1.403809,-2.744692,102.793579,26.123047,0.0479,-1.126099,7.995605,9.115444,150.001831,6.530762,-3.400928,3.960571,4.821777,-0.598755,3.861694,1.159668,0.742456,-89.192505,0.793457,10.073452,77.805176,-15.930176,0.387993,0.406494,9.155273,8.698711,-18.297729,18.127441,4.220024,81.276855,-47.119141,1.144819,-10.360107,-5.493164,7.4054,125.864868,23.010254,-2.050137,-12.23877,-21.362305,0.407153,-9.849243,-17.700195,5.623506,23.988647,-15.930176,7.055728,0,7944,38919,46083,30723,0,0,60164,24326,2817,14338,0,0,0,0,0,0,0,0,0,0,0,0,0,0,0,0,0,0,0,0,0,0,0,0,0,659,3663,independent_20260430_210008,trial_001,subject_001,1777554011.960889,276803.5698457,2266777,1,0,0,1,17.820604055959258,719.5747190720783,852.5915666517466,105.78682666735756,713.9897226997082,847.8497038794175,23.34169029493158,495.9386108679324,903.4471995686732,83.85706966204152,490.64145313206376,896.0544636445958,-119.46975613824378,667.8804689367233,721.3837467053143,-90.06311728863052,698.260068324081,419.59669485615007,-104.16883285145424,670.5236684886527,272.75643166226484,-47.767949347495446,657.7404874698144,73.25959091796139,12.090978323907269,582.0810955768012,44.10034831675833,11.487948078182102,855.2378338558539,55.00754273110002,222.2102273642437,608.3354705069721,699.4517605366447,195.82885344342256,556.9563285365834,399.1762228578969,207.77863898583595,416.5379912183317,303.7599483487132,143.00140743945187,282.5742119693009,149.93774843437677,81.61527792033681,208.8151327311656,165.30090379303704,130.3988086269111,437.4927541625138,41.87083816923236,65.6708454068843,34.32915459311569,67.17597372401875,32.82402627598126,59.70101730489738,41.59007295427374,41.52968507240691,41.65046083614057,83.18014590854747,83.18014590854747,0.4138282775258401,0.4138282775258401,20.677831925193228,2.01001600001473,2
1777554011.971,-60.84237037037037,0.9740740740740677,8.960074,-2.83463,27.953925925925915,13.626704,-0.614222,15.358887,-4.943848,-0.656235,-33.684082,14.892578,9.656719,-124.200439,8.850098,0.445474,108.078003,36.376953,-0.03832,1.499634,23.742676,9.503438,-21.934204,1.403809,-2.744692,102.793579,26.123047,0.0479,-1.126099,7.995605,9.115444,150.001831,6.530762,-3.400928,3.960571,4.821777,-0.598755,3.861694,1.159668,0.742456,-89.192505,0.793457,10.073452,77.805176,-15.930176,0.387993,0.406494,9.155273,8.698711,-18.297729,18.127441,4.220024,81.276855,-47.119141,1.144819,-10.360107,-5.493164,7.4054,125.864868,23.010254,-2.050137,-12.23877,-21.362305,0.407153,-9.849243,-17.700195,5.623506,23.988647,-15.930176,7.055728,0,7944,38919,46083,30723,0,0,60164,24326,2817,14338,0,0,0,0,0,0,0,0,0,0,0,0,0,0,0,0,0,0,0,0,0,0,0,0,0,659,3663,independent_20260430_210008,trial_001,subject_001,1777554011.9703994,276803.5801334,2266778,1,0,0,1,16.769698339605885,720.805957379161,852.9577853835439,104.61109562007957,714.8152370487891,848.608322565195,22.309337917043155,496.77086938866114,903.6526591584998,82.90734020152738,491.4240638177165,896.377562064848,-120.3197160193218,668.0941321109989,721.3676573331318,-90.8333686342706,696.5705123078777,419.2479315960623,-104.80155248409628,667.7375265272493,272.62563588119104,-47.99297980136453,653.5479027899898,73.18874935826425,11.8767108311273,577.8819532926849,44.20874235461179,11.252520316936296,851.136285050014,54.84688239527433,221.9108578974565,610.638411886273,700.2560443613404,196.69688836698907,563.7860716947295,399.2520740671682,208.05164701794035,421.7614067107705,306.40571843876705,143.27807190093063,284.84476666070594,155.99826195832608,81.84301786533653,212.17613820697585,176.7253684420429,130.838060822907,436.0804312775566,41.12649083667488,65.6708454068843,34.32915459311569,67.17597372401875,32.82402627598126,59.70101730489738,41.59007295427374,41.52968507240691,41.65046083614057,83.18014590854747,83.18014590854747,0.4138282775258401,0.4138282775258401,20.677831925193228,2.01001600001473,2
1777554011.981,-60.84237037037037,0.9740740740740677,8.960074,-2.83463,27.953925925925915,13.626704,-0.614222,15.358887,-4.943848,-0.656235,-33.684082,14.892578,9.656719,-124.200439,8.850098,0.445474,108.078003,36.376953,-0.03832,1.499634,23.742676,9.503438,-21.934204,1.403809,-2.744692,102.793579,26.123047,0.0479,-1.126099,7.995605,9.115444,150.001831,6.530762,-3.400928,3.960571,4.821777,-0.598755,3.861694,1.159668,0.742456,-89.192505,0.793457,10.073452,77.805176,-15.930176,0.387993,0.406494,9.155273,8.698711,-18.297729,18.127441,4.220024,81.276855,-47.119141,1.144819,-10.360107,-5.493164,7.4054,125.864868,23.010254,-2.050137,-12.23877,-21.362305,0.407153,-9.849243,-17.700195,5.623506,23.988647,-15.930176,7.055728,0,7944,38919,46083,30723,0,0,60164,24326,2817,14338,0,0,0,0,0,0,0,0,0,0,0,0,0,0,0,0,0,0,0,0,0,0,0,0,0,659,3663,independent_20260430_210008,trial_001,subject_001,1777554011.9803958,276803.5900821,2266779,1,0,0,1,15.507857984549196,721.1197895954398,853.3621139477317,103.43585045952332,715.5288614790239,849.326049543542,21.100294170044368,497.389122230671,903.9448775671474,81.98532336902268,492.0948190315696,896.7212172480472,-121.15617463584512,668.2225234830238,721.2985389863446,-91.56114150972704,694.4376703997945,418.8659624172749,-105.21792380955682,664.5640945041105,272.45360040227746,-48.190482510373386,649.4608763220003,73.20007121925389,11.660854906346298,573.6722387449342,44.311149838430666,11.087405638116074,846.9135245493792,54.7117122083743,221.46801099723325,613.1574557231579,700.8480315100251,197.51897847020285,570.8632471754629,399.3538683637322,208.23002308201748,427.1615806790408,309.12426285718504,143.03868290573743,287.1885303704192,161.3911417440702,82.23151283026229,216.62032712386423,188.1427812366192,131.05837881292123,434.85071244788793,40.54274845908122,65.6708454068843,34.32915459311569,67.17597372401875,32.82402627598126,59.70101730489738,41.59007295427374,41.52968507240691,41.65046083614057,83.18014590854747,83.18014590854747,0.4138282775258401,0.4138282775258401,20.677831925193228,2.01001600001473,2
1777554012.003,-61.54537037037037,-1.151925925925923,7.784074,-3.79063,27.953925925925915,13.730704,-0.614222,14.655762,-9.338379,-0.507744,-33.689575,20.080566,9.594448,-124.777222,10.192871,0.881367,110.203857,43.457031,0.124541,1.021729,22.644043,9.134604,-20.912476,2.624512,-2.921924,103.743896,29.296875,0.067061,-1.455688,12.023926,8.943003,150.325928,8.300781,-3.405718,4.196777,5.67627,-0.637075,3.911133,1.464844,0.900527,-89.197998,0.793457,10.011182,77.805176,-15.930176,0.387993,0.406494,9.155273,8.698711,-18.297729,18.127441,4.220024,80.722046,15.930176,1.288521,-11.112671,9.216309,7.40061,126.392212,9.460449,-1.892065,-12.23877,-21.362305,0.407153,-9.849243,-17.700195,5.623506,23.988647,-15.930176,7.055728,0,7944,38919,46083,30723,0,0,60164,24326,2817,14338,0,0,0,0,0,0,0,0,0,0,0,0,0,0,0,0,0,0,0,0,0,0,0,0,0,659,3663,independent_20260430_210008,trial_001,subject_001,1777554012.0009706,276803.609926,2266781,1,0,0,1,13.353741031501531,721.9343737248923,854.0359075837073,101.33737705882304,716.4636592560818,850.6940038061972,19.007251094791528,498.3455399341666,904.3877272766936,79.76469478097256,493.0205655075414,897.145834220786,-122.38405575833448,668.1084852167786,721.0168442911961,-92.67484604160202,689.8381936281888,418.3044627561851,-105.87435523573082,657.9482294754381,272.2600161682829,-48.38107658616794,641.2175317533785,73.28325946121853,11.309369221368913,565.2266523680025,44.433254530616985,10.7502482688436,838.743599602242,54.59612758086491,220.6646128845399,618.4162987067928,702.2393858321557,198.94067111923587,585.4418583478914,400.09857826258445,208.41788453783064,439.006503942121,314.6893846599912,142.85281449931682,293.98928743068683,173.0808445004831,82.58174846828922,228.80732153905075,198.62595118825632,131.62080810755694,432.1377989223987,40.46067694275192,65.6708454068843,34.32915459311569,67.17597372401875,32.82402627598126,59.70101730489738,41.59007295427374,41.52968507240691,41.65046083614057,83.18014590854747,83.18014590854747,0.4138282775258401,0.4138282775258401,20.677831925193228,2.01001600001473,2
1777554012.022,-61.54537037037037,-1.151925925925923,7.784074,-3.79063,27.953925925925915,13.730704,-0.614222,14.655762,-9.338379,-0.507744,-33.689575,20.080566,9.594448,-124.777222,10.192871,0.881367,110.203857,43.457031,0.124541,1.021729,22.644043,9.134604,-20.912476,2.624512,-2.921924,103.743896,29.296875,0.067061,-1.455688,12.023926,8.943003,150.325928,8.300781,-3.405718,4.196777,5.67627,-0.637075,3.911133,1.464844,0.900527,-89.197998,0.793457,10.011182,77.805176,-15.930176,0.387993,0.406494,9.155273,8.698711,-18.297729,18.127441,4.220024,80.722046,15.930176,1.288521,-11.112671,9.216309,7.40061,126.392212,9.460449,-1.892065,-12.23877,-21.362305,0.407153,-9.849243,-17.700195,5.623506,23.988647,-15.930176,7.055728,0,7944,38919,46083,30723,0,0,60164,24326,2817,14338,0,0,0,0,0,0,0,0,0,0,0,0,0,0,0,0,0,0,0,0,0,0,0,0,0,659,3663,independent_20260430_210008,trial_001,subject_001,1777554012.020622,276803.629621,2266783,1,0,0,1,11.576583492750018,722.3695966074803,854.7406605562647,99.53220073141992,716.9482129758292,852.2906094970293,17.095537796577307,498.6163749184247,905.1395381957958,77.99221393441975,493.3103545981717,897.7577431139257,-123.51510588342158,666.9655456685603,720.6155835013186,-93.478468504589,685.4755757341578,417.7720685078869,-106.35335374812546,651.9702660245852,272.1665498980505,-48.71314956222199,633.0535231394293,73.39797427885156,11.089500993251944,556.9734316175563,44.56921485127626,10.303686358211008,830.3957068936581,54.49998728473562,220.0447014429729,623.9292541713576,704.1697715136418,200.0229191282994,600.291261015213,401.6339370868121,208.59787921049377,451.6603004492417,320.024716834905,142.679273964263,302.6951709060006,183.4946238083873,81.59878109564433,245.2092313610881,207.87387315651188,133.63985637389473,430.5505592321194,40.85038842073243,65.6708454068843,34.32915459311569,67.17597372401875,32.82402627598126,59.70101730489738,41.59007295427374,41.52968507240691,41.65046083614057,83.18014590854747,83.18014590854747,0.4138282775258401,0.4138282775258401,20.677831925193228,2.01001600001473,2
1777554012.039,-61.54537037037037,-2.48092592592593,7.784074,-3.79063,28.26692592592592,13.730704,0.819778,14.655762,-9.338379,-0.507744,-33.689575,20.080566,9.594448,-124.777222,10.192871,0.881367,111.533203,42.84668,0.354463,0.648193,33.26416,8.861572,-20.132446,3.356934,-2.715952,103.743896,29.296875,0.067061,-1.455688,12.023926,8.943003,150.325928,8.300781,-3.405718,4.196777,5.67627,-0.637075,3.911133,1.464844,0.900527,-89.197998,0.793457,10.011182,77.492065,5.310059,0.689766,-0.148315,32.348633,7.798184,-16.962891,19.40918,2.299219,80.722046,15.930176,1.288521,-11.112671,9.216309,7.40061,126.392212,9.460449,-1.892065,-11.359863,34.912109,2.596201,-9.656982,20.568848,4.114644,24.049072,17.51709,7.084468,0,7944,38919,46083,30723,0,0,60164,24326,2817,14338,0,0,0,0,0,0,0,0,0,0,0,0,0,0,0,0,0,0,0,0,0,0,0,0,0,659,3663,independent_20260430_210008,trial_001,subject_001,1777554012.040187,276803.6497646,2266785,1,0,0,1,9.985522280898348,722.2835158680501,855.5268327241206,97.9392453395205,717.0146595172195,854.0897305649827,15.265253367019437,498.5533188274792,905.779170161976,76.34604021624565,493.1706739821968,898.3628414882753,-124.53866937237186,665.294731634312,720.3097874047527,-94.34959152937785,681.319192190874,417.40076392824136,-107.11994842956146,646.5308217629353,272.13371369777343,-49.23659875531374,624.7846020433982,73.42883863433612,10.566375915788068,548.5387598760755,44.702439041661904,9.825026783646637,822.1332345400393,54.36795862387113,219.5014850581189,629.2532657893398,706.4842905230227,200.91792436016576,614.8460506646985,403.774665009592,208.6670763021684,464.73858080221686,324.92095264044826,142.55651639640664,313.03445765976096,192.1693975783308,79.72126121734911,262.89036238094747,216.4267216684989,136.34972181686078,430.510122796143,41.61643033893098,65.6708454068843,34.32915459311569,67.17597372401875,32.82402627598126,59.70101730489738,41.59007295427374,41.52968507240691,41.65046083614057,83.18014590854747,83.18014590854747,0.4138282775258401,0.4138282775258401,20.677831925193228,2.01001600001473,0
1777554012.046,-61.54537037037037,-2.48092592592593,7.784074,-3.79063,28.26692592592592,13.730704,0.819778,14.655762,-9.338379,-0.507744,-33.689575,20.080566,9.594448,-124.777222,10.192871,0.881367,111.533203,42.84668,0.354463,0.648193,33.26416,8.861572,-20.132446,3.356934,-2.715952,103.743896,29.296875,0.067061,-1.455688,12.023926,8.943003,150.325928,8.300781,-3.405718,4.196777,5.67627,-0.637075,3.911133,1.464844,0.900527,-89.197998,0.793457,10.011182,77.492065,5.310059,0.689766,-0.148315,32.348633,7.798184,-16.962891,19.40918,2.299219,80.722046,15.930176,1.288521,-11.112671,9.216309,7.40061,126.392212,9.460449,-1.892065,-11.359863,34.912109,2.596201,-9.656982,20.568848,4.114644,24.049072,17.51709,7.084468,0,7944,38919,46083,30723,0,0,60164,24326,2817,14338,0,0,0,0,0,0,0,0,0,0,0,0,0,0,0,0,0,0,0,0,0,0,0,0,0,659,3664,independent_20260430_210008,trial_001,subject_001,1777554012.0501852,276803.6596589,2266786,1,0,0,1,9.16717367372075,722.0335408751515,856.0374512195359,97.11683402646608,716.9148425979854,855.0164619936028,14.676517136613558,498.37532648460456,906.019866165576,75.77263551005196,492.9838082131853,898.8301945446117,-125.07907480178692,664.2163434996703,720.0932238368017,-94.81805341150604,679.1485712548565,417.2763534625497,-107.50730344758524,643.590345325572,272.16972200534855,-49.40053219138765,620.5242958698045,73.42499433601238,10.283903948103095,544.2943273744619,44.835449761037545,9.704801837193802,817.9111240508024,54.24691316951777,219.25332858902468,631.6254314743077,707.6624832309033,201.09656738544905,621.8555380848321,404.9487624077996,208.7682247162037,471.1783692609515,327.1831438252341,142.1715343425448,318.2938925244538,195.6178019417609,78.57797550761937,269.2642007004937,223.2596841889485,137.95039102662537,434.3489960823066,42.76281756754267,65.6708454068843,34.32915459311569,67.17597372401875,32.82402627598126,59.70101730489738,41.59007295427374,41.52968507240691,41.65046083614057,83.18014590854747,83.18014590854747,0.4138282775258401,0.4138282775258401,20.677831925193228,2.01001600001473,0
1777554012.056,-61.54537037037037,-2.48092592592593,7.784074,-3.79063,28.26692592592592,13.730704,0.819778,14.655762,-9.338379,-0.507744,-33.689575,20.080566,9.594448,-124.777222,10.192871,0.881367,111.533203,42.84668,0.354463,0.648193,33.26416,8.861572,-20.132446,3.356934,-2.715952,103.743896,29.296875,0.067061,-1.455688,12.023926,8.943003,150.325928,8.300781,-3.405718,4.196777,5.67627,-0.637075,3.911133,1.464844,0.900527,-89.197998,0.793457,10.011182,77.492065,5.310059,0.689766,-0.148315,32.348633,7.798184,-16.962891,19.40918,2.299219,80.722046,15.930176,1.288521,-11.112671,9.216309,7.40061,126.392212,9.460449,-1.892065,-11.359863,34.912109,2.596201,-9.656982,20.568848,4.114644,24.049072,17.51709,7.084468,0,7944,38919,46083,30723,0,0,60164,24326,2817,14338,0,0,0,0,0,0,0,0,0,0,0,0,0,0,0,0,0,0,0,0,0,0,0,0,0,659,3664,independent_20260430_210008,trial_001,subject_001,1777554012.0606985,276803.6698214,2266787,1,0,0,1,8.351954556806321,721.7333203522995,856.439360520671,96.2768643034093,716.7910577216246,855.9504210619914,14.047779928595974,498.0519921611349,906.33163503876,75.01199030502299,492.74719528870986,899.1321220494887,-125.4944101378082,663.0553562403016,719.9890498217954,-95.17811484515862,676.677878851097,417.118097385776,-107.78873585432882,640.3899929667355,272.24193633691675,-49.70022761245769,616.4723311524514,73.64479613449379,10.11519172029854,540.11758463272,44.97099205908429,9.428767312693846,813.596825236007,54.13806132895557,219.11151970394656,633.8233579778979,708.7960674242146,201.34839587517536,628.8046567384818,406.2124354274576,208.70747206217533,477.44855239586633,329.3072435649126,141.53105990716267,323.7005207990836,198.57086276979064,77.18827973566646,274.2147720140468,228.5475870761694,139.57144534589105,441.5943554569724,44.23563836758497,65.6708454068843,34.32915459311569,67.17597372401875,32.82402627598126,59.70101730489738,41.59007295427374,41.52968507240691,41.65046083614057,83.18014590854747,83.18014590854747,0.4138282775258401,0.4138282775258401,20.677831925193228,2.01001600001473,0
1777554012.06,-62.94137037037037,-3.4099259259259327,7.185074,-4.43363,28.26692592592592,15.894704,0.819778,13.260498,-15.563965,-0.579595,-33.43689,26.489258,9.527388,-125.392456,13.061523,1.24541,112.461548,45.227051,0.330513,0.32959,36.010742,9.182505,-19.484253,2.929688,-2.725532,105.402832,37.719727,-0.071851,-2.114868,12.695312,8.957373,150.803833,13.183594,-3.108735,4.504395,8.361816,-0.646655,3.960571,1.708984,0.713716,-89.197998,1.037598,10.006392,77.492065,5.310059,0.689766,-0.148315,32.348633,7.798184,-16.962891,19.40918,2.299219,82.573242,57.067871,2.337539,-11.002808,41.625977,7.35271,127.617188,-4.455566,-2.265688,-11.359863,34.912109,2.596201,-9.656982,20.568848,4.114644,24.049072,17.51709,7.084468,0,7944,38919,46083,30723,0,0,60164,24326,2817,14338,0,0,0,0,0,0,0,0,0,0,0,0,0,0,0,0,0,0,0,0,0,0,0,0,0,659,3665,independent_20260430_210008,trial_001,subject_001,1777554012.0606985,276803.6698214,2266787,1,0,0,1,8.351954556806321,721.7333203522995,856.439360520671,96.2768643034093,716.7910577216246,855.9504210619914,14.047779928595974,498.0519921611349,906.33163503876,75.01199030502299,492.74719528870986,899.1321220494887,-125.4944101378082,663.0553562403016,719.9890498217954,-95.17811484515862,676.677878851097,417.118097385776,-107.78873585432882,640.3899929667355,272.24193633691675,-49.70022761245769,616.4723311524514,73.64479613449379,10.11519172029854,540.11758463272,45.10650276740847,9.428767312693846,813.596825236007,54.027275166670826,219.11151970394656,633.8233579778979,708.7960674242146,201.34839587517536,628.8046567384818,406.2124354274576,208.70747206217533,477.44855239586633,329.3072435649126,141.53105990716267,323.7005207990836,198.57086276979064,77.18827973566646,274.2147720140468,232.1515824752369,139.57144534589105,441.5943554569724,45.97778569050459,65.6708454068843,34.32915459311569,67.17597372401875,32.82402627598126,59.70101730489738,41.59007295427374,41.52968507240691,41.65046083614057,83.18014590854747,83.18014590854747,0.4138282775258401,0.4138282775258401,20.677831925193228,2.01001600001473,0
1777554012.073,-62.94137037037037,-4.7989259259259285,7.185074,-5.78963,27.79992592592592,17.278704,1.934778,13.260498,-15.563965,-0.579595,-33.43689,26.489258,9.527388,-125.392456,13.061523,1.24541,113.851318,34.973145,-0.311353,-0.159302,28.076172,9.469907,-18.495483,1.77002,-2.332749,105.402832,37.719727,-0.071851,-2.114868,12.695312,8.957373,150.803833,13.183594,-3.108735,4.806519,11.169434,-0.593965,3.982544,2.075195,0.804727,-89.181519,1.403809,9.939331,77.958984,20.446777,1.16877,-0.686646,45.227051,7.620952,-15.430298,28.808594,1.681304,84.424438,60.60791,2.48124,-10.39856,69.641113,8.962163,129.765015,-12.207031,-1.355581,-8.393555,102.966309,1.106499,-5.180054,133.789062,-3.530259,24.680786,43.518066,4.981641,0,7944,38919,46083,30723,0,0,60164,24326,2817,14338,0,0,0,0,0,0,0,0,0,0,0,0,0,0,0,0,0,0,0,0,0,0,0,0,0,659,3666,independent_20260430_210008,trial_001,subject_001,1777554012.070215,276803.6796544,2266788,1,0,0,1,7.488953980020232,721.278351314743,856.9371134048449,95.47848911921804,716.5025351989291,856.8782343583812,13.489367578877234,497.526538467236,906.5888973437684,74.45071432051107,492.3523868413471,899.4006845653939,-125.91197458590284,662.0414820054697,719.9372750291925,-95.64388613488464,674.0515200041087,417.0569296295214,-108.10421607044664,637.0662715619436,272.24988896207395,-49.77250526455568,612.2167620254439,73.69824663837413,9.880338277043206,535.8104690214584,45.238892831741104,9.306053350078386,809.35788105435,53.93540836939204,218.94390746708737,635.8348442193685,710.0216346068463,201.19611690505573,635.3690855306721,407.3483375890436,208.409491556442,483.4952662976007,331.26634788393426,141.21845153845345,330.1679040980724,200.2037487549709,75.19560220197367,279.3994290771501,233.93318750934367,140.8317615643255,451.0298754551956,47.938097304187984,65.6708454068843,34.32915459311569,67.17597372401875,32.82402627598126,59.70101730489738,41.59007295427374,41.52968507240691,41.65046083614057,83.18014590854747,83.18014590854747,0.4138282775258401,0.4138282775258401,20.677831925193228,2.01001600001473,0
1777554012.083,-62.94137037037037,-4.7989259259259285,7.185074,-5.78963,27.79992592592592,17.278704,1.934778,13.260498,-15.563965,-0.579595,-33.43689,26.489258,9.527388,-125.392456,13.061523,1.24541,113.851318,34.973145,-0.311353,-0.159302,28.076172,9.469907,-18.495483,1.77002,-2.332749,105.402832,37.719727,-0.071851,-2.114868,12.695312,8.957373,150.803833,13.183594,-3.108735,4.806519,11.169434,-0.593965,3.982544,2.075195,0.804727,-89.181519,1.403809,9.939331,77.958984,20.446777,1.16877,-0.686646,45.227051,7.620952,-15.430298,28.808594,1.681304,84.424438,60.60791,2.48124,-10.39856,69.641113,8.962163,129.765015,-12.207031,-1.355581,-8.393555,102.966309,1.106499,-5.180054,133.789062,-3.530259,24.680786,43.518066,4.981641,0,7944,38919,46083,30723,0,0,60164,24326,2817,14338,0,0,0,0,0,0,0,0,0,0,0,0,0,0,0,0,0,0,0,0,0,0,0,0,0,659,3666,independent_20260430_210008,trial_001,subject_001,1777554012.0802147,276803.6897622,2266789,1,0,0,1,6.67163116794682,720.8040916123623,857.3400112645596,94.67794565857558,716.1496037868562,857.7461652770313,12.994172535309437,497.18361292043255,906.7570765751703,74.0408822818366,491.8393523202215,899.6838635129501,-126.26493119335196,660.91085361941,719.781239836867,-95.95127791465995,671.2473803021926,416.84332663235057,-108.36898418794208,633.5669500001807,272.32699342469186,-49.961621252789065,608.0916251202171,73.79639265465501,9.749718213120577,531.5609120471631,45.355596275382815,8.98307953766148,805.1099757389098,53.85686701959236,218.76021758280925,637.6875158722333,711.330991544265,201.13062852787468,641.805889755927,408.6260285193997,208.00158887030008,489.61834873871817,332.968973212108,141.13676251304207,337.2684289801351,200.93794519897924,74.50806423313202,285.1804463821668,233.8015633223508,142.41230094104512,461.2911533177888,50.03348913015494,65.6708454068843,34.32915459311569,67.17597372401875,32.82402627598126,59.70101730489738,41.59007295427374,41.52968507240691,41.65046083614057,83.18014590854747,83.18014590854747,0.4138282775258401,0.4138282775258401,20.677831925193228,2.01001600001473,0
1777554012.093,-64.63237037037037,-4.7989259259259285,8.032074,-5.78963,26.75592592592592,17.278704,1.934778,11.568604,-16.845703,-0.981958,-32.958984,30.395508,10.226733,-125.859375,12.817383,1.18793,113.851318,34.973145,-0.311353,-0.159302,28.076172,9.469907,-18.495483,1.77002,-2.332749,107.63855,50.415039,-0.962798,-3.197021,1.708984,9.656719,151.062012,27.099609,-3.147056,4.806519,11.169434,-0.593965,3.982544,2.075195,0.804727,-89.181519,1.403809,9.939331,79.002686,35.705566,1.786685,-1.329346,70.495605,8.162227,-12.996826,32.165527,1.307681,84.424438,60.60791,2.48124,-10.39856,69.641113,8.962163,129.765015,-12.207031,-1.355581,-8.393555,102.966309,1.106499,-5.180054,133.789062,-3.530259,24.680786,43.518066,4.981641,0,7944,38919,46083,30723,0,0,60164,24326,2817,14338,0,0,0,0,0,0,0,0,0,0,0,0,0,0,0,0,0,0,0,0,0,0,0,0,0,659,3666,independent_20260430_210008,trial_001,subject_001,1777554012.0902147,276803.6998378,2266790,1,0,0,1,5.9093643953022434,720.2333087554011,857.7188610780019,93.91398501559466,715.7491529568081,858.6049379672174,12.384768236063127,496.527741052764,907.0344035390256,73.53124399784735,491.3046367249065,899.9567845810648,-126.62577396600872,659.5675729719956,719.6183718130517,-96.28685232889966,668.3319044227985,416.7166339953995,-108.54452591855728,629.9437790655811,272.3525009847318,-50.06809698597517,603.8235348868016,73.8836259386285,9.460608737545376,527.2140339146304,45.4847346514246,8.80575602081297,800.8886726647158,53.8058666447103,218.70680723557825,639.4619974743196,712.789050210361,201.1041432956793,648.0309778810102,410.1005441674006,207.6068274816237,495.9085679806477,334.23110167627306,140.872333327557,344.7238757598737,201.31316470409504,74.58027224332227,291.11157192134,231.7278151005322,142.92028021152734,471.7545596942922,52.1940924282836,65.6708454068843,34.32915459311569,67.17597372401875,32.82402627598126,59.70101730489738,41.59007295427374,41.52968507240691,41.65046083614057,83.18014590854747,83.18014590854747,0.4138282775258401,0.4138282775258401,20.677831925193228,2.01001600001473,0
1777554012.12,-64.63237037037037,-4.7989259259259285,8.032074,-5.78963,26.75592592592592,17.278704,1.934778,11.568604,-16.845703,-0.981958,-32.958984,30.395508,10.226733,-125.859375,12.817383,1.18793,113.851318,34.973145,-0.311353,-0.159302,28.076172,9.469907,-18.495483,1.77002,-2.332749,107.63855,50.415039,-0.962798,-3.197021,1.708984,9.656719,151.062012,27.099609,-3.147056,4.806519,11.169434,-0.593965,3.982544,2.075195,0.804727,-89.181519,1.403809,9.939331,79.002686,35.705566,1.786685,-1.329346,70.495605,8.162227,-12.996826,32.165527,1.307681,84.424438,60.60791,2.48124,-10.39856,69.641113,8.962163,129.765015,-12.207031,-1.355581,-8.393555,102.966309,1.106499,-5.180054,133.789062,-3.530259,24.680786,43.518066,4.981641,0,7944,38919,46083,30723,0,0,60164,24326,2817,14338,0,0,0,0,0,0,0,0,0,0,0,0,0,0,0,0,0,0,0,0,0,0,0,0,0,659,3666,independent_20260430_210008,trial_001,subject_001,1777554012.120728,276803.7296783,2266793,1,0,0,1,4.028641927504489,718.5406809051289,858.8278794144287,91.89113841353984,713.8784956041853,861.174500295409,11.069816958611602,494.3320003626445,907.7399418827928,72.2091798358184,489.27630047455966,901.0920731052892,-127.66533147477864,655.045510870144,719.2302318310769,-97.1965798993628,659.1748821024581,416.4287166504602,-109.24568579552805,619.0095221326482,272.5662108772326,-50.51643276181997,590.6959628455421,73.95225416918807,9.02866332709969,514.0692541350369,45.59979440230624,8.06078655703827,787.8510064077431,53.77439007137698,218.70490703355733,643.501314034348,717.2818871692342,201.0011497056196,665.7259135080873,414.92061384981287,206.75029811567327,515.6379844490226,334.85950839162075,142.0163371096158,369.21042624858745,197.92157177128183,75.24361424969227,312.7039520439168,228.69876543543987,146.82131575384977,505.7836394619158,54.43070893397083,65.6708454068843,34.32915459311569,67.17597372401875,32.82402627598126,59.70101730489738,41.59007295427374,41.52968507240691,41.65046083614057,83.18014590854747,83.18014590854747,0.4138282775258401,0.4138282775258401,20.677831925193228,2.01001600001473,0
1777554012.129,-64.63237037037037,-4.7989259259259285,8.032074,-5.78963,26.75592592592592,17.278704,1.934778,11.568604,-16.845703,-0.981958,-32.958984,30.395508,10.226733,-125.859375,12.817383,1.18793,113.851318,34.973145,-0.311353,-0.159302,28.076172,9.469907,-18.495483,1.77002,-2.332749,107.63855,50.415039,-0.962798,-3.197021,1.708984,9.656719,151.062012,27.099609,-3.147056,4.806519,11.169434,-0.593965,3.982544,2.075195,0.804727,-89.181519,1.403809,9.939331,79.002686,35.705566,1.786685,-1.329346,70.495605,8.162227,-12.996826,32.165527,1.307681,84.424438,60.60791,2.48124,-10.39856,69.641113,8.962163,129.765015,-12.207031,-1.355581,-8.393555,102.966309,1.106499,-5.180054,133.789062,-3.530259,24.680786,43.518066,4.981641,0,7944,38919,46083,30723,0,0,60164,24326,2817,14338,0,0,0,0,0,0,0,0,0,0,0,0,0,0,0,0,0,0,0,0,0,0,0,0,0,659,3666,independent_20260430_210008,trial_001,subject_001,1777554012.1307292,276803.7400261,2266794,1,0,0,1,3.68481794268895,718.5466942438229,858.9180944613092,91.32054496522112,713.1153368417957,862.0061849952257,10.578104015549089,493.35815350383945,907.908303661647,71.69280481020769,488.4891822992879,901.386487204056,-127.97385226100072,653.2614263829591,719.1159148253995,-97.54278509432989,655.8402754290829,416.3404905444631,-109.4886394358192,615.1905489860467,272.6025461884,-50.60312665002108,586.2543370301355,73.9605882916995,8.760167560119212,509.69131010364384,45.70560211922061,7.871013757140605,783.4299753799729,53.750134419330415,218.8175254218742,644.4283938025517,718.6244307107319,200.95952209848195,671.192149694384,416.50019819531633,206.67587337698407,522.2086866874499,334.4601720764871,142.1351862610116,378.0904211388262,194.9835927476044,75.1394975180625,321.0213429148952,223.35344078704185,149.1312272292979,518.0807334299599,56.46575340700613,65.6708454068843,34.32915459311569,67.17597372401875,32.82402627598126,59.70101730489738,41.59007295427374,41.52968507240691,41.65046083614057,83.18014590854747,83.18014590854747,0.4138282775258401,0.4138282775258401,20.677831925193228,2.01001600001473,0
1777554012.136,-64.63237037037037,-4.7989259259259285,8.032074,-5.78963,26.75592592592592,17.278704,1.934778,11.568604,-16.845703,-0.981958,-32.958984,30.395508,10.226733,-125.859375,12.817383,1.18793,113.851318,34.973145,-0.311353,-0.159302,28.076172,9.469907,-18.495483,1.77002,-2.332749,107.63855,50.415039,-0.962798,-3.197021,1.708984,9.656719,151.062012,27.099609,-3.147056,4.806519,11.169434,-0.593965,3.982544,2.075195,0.804727,-89.181519,1.403809,9.939331,79.002686,35.705566,1.786685,-1.329346,70.495605,8.162227,-12.996826,32.165527,1.307681,84.424438,60.60791,2.48124,-10.39856,69.641113,8.962163,129.765015,-12.207031,-1.355581,-8.393555,102.966309,1.106499,-5.180054,133.789062,-3.530259,24.680786,43.518066,4.981641,0,7944,38919,46083,30723,0,0,60164,24326,2817,14338,0,0,0,0,0,0,0,0,0,0,0,0,0,0,0,0,0,0,0,0,0,0,0,0,0,659,3667,independent_20260430_210008,trial_001,subject_001,1777554012.1407273,276803.7498096,2266795,1,0,0,1,2.957797530138045,716.692196848411,859.5405599732732,90.79278546922193,712.236306264693,862.7652726039155,10.04271059721254,492.3680535020949,908.1237618417412,71.416940983398,487.5263597068883,901.6009611609752,-128.23682386098048,651.5474769495589,719.0553786959294,-97.9705109380463,652.5304034282998,416.26071180323765,-109.80564667593907,611.4026023259587,272.700531918709,-50.81532530055583,582.0040040471467,74.11603289048298,8.761028815742227,505.7148892502343,45.79309348323886,7.6803745535589725,778.9843558457146,53.74331913266327,218.9329463756615,645.2012816730332,719.9349781382318,200.9920806152866,676.462316255079,418.1633946580952,206.6514617260009,528.6487597892457,333.8228955623899,142.34123950400078,387.2673027909304,191.4731347354233,74.85845703959184,329.8241304132447,216.38720072148968,151.57940981501966,530.6534131112797,58.11264107095047,65.6708454068843,34.32915459311569,67.17597372401875,32.82402627598126,59.70101730489738,41.59007295427374,41.52968507240691,41.65046083614057,83.18014590854747,83.18014590854747,0.4138282775258401,0.4138282775258401,20.677831925193228,2.01001600001473,0
1777554012.145,-64.63237037037037,-6.177925925925933,8.032074,-7.30063,26.041925925925923,16.355704,6.104778,11.568604,-16.845703,-0.981958,-32.958984,30.395508,10.226733,-125.859375,12.817383,1.18793,115.230103,28.320312,-1.753154,-0.736084,15.441895,10.293794,-17.468262,2.929688,-2.715952,107.63855,50.415039,-0.962798,-3.197021,1.708984,9.656719,151.062012,27.099609,-3.147056,5.531616,17.211914,-0.809517,4.053955,1.586914,0.675396,-89.170532,0.427246,10.380015,79.716797,54.992676,1.020278,-1.461182,57.739258,9.330996,-12.041016,18.188477,0.847837,85.259399,32.287598,-2.663262,-9.761353,50.65918,14.001284,132.572021,-14.953613,3.501519,-2.373047,121.582031,-8.281978,-1.054688,54.382324,-0.134121,26.114502,7.69043,12.521162,0,7944,38919,46083,30723,0,0,60164,24326,2817,14338,0,0,0,0,0,0,0,0,0,0,0,0,0,0,0,0,0,0,0,0,0,0,0,0,0,659,3667,independent_20260430_210008,trial_001,subject_001,1777554012.1407273,276803.7498096,2266795,1,0,0,1,2.957797530138045,716.692196848411,859.5405599732732,90.79278546922193,712.236306264693,862.7652726039155,10.04271059721254,492.3680535020949,908.1237618417412,71.416940983398,487.5263597068883,901.6009611609752,-128.23682386098048,651.5474769495589,719.0553786959294,-97.9705109380463,652.5304034282998,416.26071180323765,-109.80564667593907,611.4026023259587,272.700531918709,-50.81532530055583,582.0040040471467,74.11603289048298,8.761028815742227,505.7148892502343,45.89033206000741,7.6803745535589725,778.9843558457146,53.737507141609534,218.9329463756615,645.2012816730332,719.9349781382318,200.9920806152866,676.462316255079,418.1633946580952,206.6514617260009,528.6487597892457,333.8228955623899,142.34123950400078,387.2673027909304,191.4731347354233,74.85845703959184,329.8241304132447,209.08516892481825,151.57940981501966,530.6534131112797,59.26179137586616,65.6708454068843,34.32915459311569,67.17597372401875,32.82402627598126,59.70101730489738,41.59007295427374,41.52968507240691,41.65046083614057,83.18014590854747,83.18014590854747,0.4138282775258401,0.4138282775258401,20.677831925193228,2.01001600001473,0
1777554012.153,-65.40137037037037,-6.628925925925927,8.630074,-7.30063,26.06392592592593,16.355704,9.279778,10.799561,-2.197266,-1.901646,-32.953491,11.047363,11.122471,-126.414185,8.117676,-0.718506,115.680542,7.446289,-1.652563,-0.845947,-5.737305,11.03625,-17.473755,2.807617,-3.70749,109.616089,59.082031,-0.263452,-4.246216,-7.69043,10.135723,150.562134,36.621094,-2.960244,5.531616,17.211914,-0.809517,4.053955,1.586914,0.675396,-89.170532,0.427246,10.380015,79.694824,-70.983887,-2.035767,-1.203003,130.065918,19.806812,-9.146118,2.319336,7.769443,85.259399,32.287598,-2.663262,-9.761353,50.65918,14.001284,132.572021,-14.953613,3.501519,1.636963,103.820801,0.469424,0.049438,14.831543,3.180586,26.114502,6.347656,16.305293,0,7944,38919,46083,30723,0,0,60164,24326,2817,14338,0,0,0,0,0,0,0,0,0,0,0,0,0,0,0,0,0,0,0,0,0,0,0,0,0,659,3667,independent_20260430_210008,trial_001,subject_001,1777554012.1507287,276803.7599069,2266796,1,0,0,1,2.5100979833308137,715.7543466888843,859.8711881673163,90.29354818988216,711.2911363144185,863.4687439478176,9.739376453054089,491.4506310960375,908.4141383929408,71.29444981780688,486.48704264522286,901.9727849616656,-128.50887456381412,649.7423331636195,718.8730188625232,-98.41918305441033,649.0066321003522,416.18844998477664,-110.16793292312282,607.4864393922677,272.6426703868161,-51.03202183487046,577.6433734303504,74.17690341008088,8.842275638900565,501.2624617462396,45.95149752608664,7.428041086879352,774.622735884645,53.73818764960028,219.13622573189463,645.897040659602,721.2533574193284,201.13912207790747,681.5173026370531,419.9527191514599,206.7062434122996,535.1420765884583,332.91929977493004,142.4903307286026,396.7285470358288,187.23213961681304,74.70494459870595,339.0926201037525,202.1901097581952,154.3238878483638,543.9352935261971,59.83797167600042,65.6708454068843,34.32915459311569,67.17597372401875,32.82402627598126,59.70101730489738,41.59007295427374,41.52968507240691,41.65046083614057,83.18014590854747,83.18014590854747,0.4138282775258401,0.4138282775258401,20.677831925193228,2.01001600001473,0
1777554012.161,-65.40137037037037,-6.628925925925927,8.630074,-7.30063,26.06392592592593,16.355704,9.279778,10.799561,-2.197266,-1.901646,-32.953491,11.047363,11.122471,-126.414185,8.117676,-0.718506,115.680542,7.446289,-1.652563,-0.845947,-5.737305,11.03625,-17.473755,2.807617,-3.70749,109.616089,59.082031,-0.263452,-4.246216,-7.69043,10.135723,150.562134,36.621094,-2.960244,5.531616,17.211914,-0.809517,4.053955,1.586914,0.675396,-89.170532,0.427246,10.380015,79.694824,-70.983887,-2.035767,-1.203003,130.065918,19.806812,-9.146118,2.319336,7.769443,85.259399,32.287598,-2.663262,-9.761353,50.65918,14.001284,132.572021,-14.953613,3.501519,1.636963,103.820801,0.469424,0.049438,14.831543,3.180586,26.114502,6.347656,16.305293,0,7944,38919,46083,30723,0,0,60164,24326,2817,14338,0,0,0,0,0,0,0,0,0,0,0,0,0,0,0,0,0,0,0,0,0,0,0,0,0,659,3667,independent_20260430_210008,trial_001,subject_001,1777554012.1597333,276803.7698358,2266797,1,0,0,1,2.071376166418032,714.6906200126069,860.0476883684628,89.86229289942064,710.2607537758911,864.1016726254528,9.299596169253926,490.59067971669737,908.599965158682,70.6606031636963,485.5643749138514,902.2388339665624,-128.71982977674722,647.783091729029,718.7784808250016,-98.902265907013,645.3485202086215,416.1265769251973,-110.46656390484844,603.5076626904532,272.64522775496414,-51.06054751077357,573.1159147617658,74.1358050324925,8.573175674313966,496.8604874967154,46.01340529165028,7.259667171103377,770.2496441844103,53.74783684313642,219.2954245862583,646.4524627410129,722.5866365020029,201.0384703047132,686.1148334323177,421.5985573390679,206.7557804113341,541.6948431987126,331.6448670422143,142.92296366983237,406.7400022182232,182.6256009066012,74.65421523279794,348.40084509286726,194.08704154877057,156.76349217383992,557.651482907624,60.00870140588528,65.6708454068843,34.32915459311569,67.17597372401875,32.82402627598126,59.70101730489738,41.59007295427374,41.52968507240691,41.65046083614057,83.18014590854747,83.18014590854747,0.4138282775258401,0.4138282775258401,20.677831925193228,2.01001600001473,0
1777554012.171,-65.40137037037037,-6.628925925925927,8.630074,-8.08563,26.06392592592593,19.866704,10.086778,10.799561,-2.197266,-1.901646,-32.953491,11.047363,11.122471,-126.414185,8.117676,-0.718506,115.680542,-3.234863,-0.852627,-0.758057,-15.869141,10.806328,-17.72644,1.586914,-3.592529,109.616089,59.082031,-0.263452,-4.246216,-7.69043,10.135723,150.562134,36.621094,-2.960244,6.723633,28.991699,-0.450264,4.257202,5.737305,0.445474,-89.219971,-1.586914,10.140513,79.694824,-70.983887,-2.035767,-1.203003,130.065918,19.806812,-9.146118,2.319336,7.769443,88.747559,104.980469,0.881367,-9.058228,58.105469,8.808882,135.219727,-3.295898,-3.185376,2.444458,37.963867,-0.071851,0.153809,-1.464844,5.704937,26.262817,8.850098,23.696323,0,7944,38919,46083,30723,0,0,60164,24326,2817,14338,0,0,0,0,0,0,0,0,0,0,0,0,0,0,0,0,0,0,0,0,0,0,0,0,0,659,3667,independent_20260430_210008,trial_001,subject_001,1777554012.170941,276803.7798598,2266798,1,0,0,1,1.6724905549959073,713.4585393560887,860.2228063927495,89.46616321463574,709.1872464183322,864.661449579203,9.199397910659789,489.37666023936407,908.896387712146,70.39559491517328,484.4622962263986,902.6374893997388,-128.8745089921802,645.921534290483,718.755147836602,-99.37032864834332,641.6713605597105,415.9971701217801,-110.86699147073524,599.4165237625509,272.72746041713737,-51.24632508068576,568.8035209341881,74.14229991441822,8.476932039908476,492.4764939448967,46.072595038926,6.871898323634796,765.9818184894808,53.7499741322915,219.4773494981825,646.8919057933131,723.8669792653111,201.2115436315859,690.536413482679,423.33403232790647,207.0180840075056,548.1257383350437,330.08146760247337,143.46400402924874,417.0986476727193,177.48134336415154,74.6801401315587,358.46764696250693,185.46718354437868,159.13259630165473,571.7891710049839,59.927460331724426,65.6708454068843,34.32915459311569,67.17597372401875,32.82402627598126,59.70101730489738,41.59007295427374,41.52968507240691,41.65046083614057,83.18014590854747,83.18014590854747,0.4138282775258401,0.4138282775258401,20.677831925193228,2.01001600001473,0
1777554012.18,-65.40137037037037,-6.628925925925927,8.630074,-8.08563,26.06392592592593,19.866704,10.086778,10.799561,-2.197266,-1.901646,-32.953491,11.047363,11.122471,-126.414185,8.117676,-0.718506,115.680542,-3.234863,-0.852627,-0.758057,-15.869141,10.806328,-17.72644,1.586914,-3.592529,109.616089,59.082031,-0.263452,-4.246216,-7.69043,10.135723,150.562134,36.621094,-2.960244,6.723633,28.991699,-0.450264,4.257202,5.737305,0.445474,-89.219971,-1.586914,10.140513,79.694824,-70.983887,-2.035767,-1.203003,130.065918,19.806812,-9.146118,2.319336,7.769443,88.747559,104.980469,0.881367,-9.058228,58.105469,8.808882,135.219727,-3.295898,-3.185376,2.444458,37.963867,-0.071851,0.153809,-1.464844,5.704937,26.262817,8.850098,23.696323,0,7944,38919,46083,30723,0,0,60164,24326,2817,14338,0,0,0,0,0,0,0,0,0,0,0,0,0,0,0,0,0,0,0,0,0,0,0,0,0,659,3667,independent_20260430_210008,trial_001,subject_001,1777554012.1809428,276803.7900287,2266799,1,0,0,1,1.3276170937725098,712.2333337732531,860.2911111328502,89.08314605181687,708.1254991758238,865.1275107107907,8.734484129349044,488.2763468968423,909.1798711575344,70.21183638476333,483.2664648845831,902.8991479790116,-129.07553916598434,643.9103504172274,718.5907009129144,-99.69796137606322,637.9238354521761,415.9111462565688,-111.1549782131762,595.3531852617608,272.71220992680145,-51.46694527343971,564.3900267178354,74.10066880981866,8.171321518147295,488.1907788249932,46.11855855646829,6.689243554694184,761.5781954816763,53.76849818184314,219.65018322519225,647.2420523314876,725.1481198836963,201.34886863550668,694.679429717917,424.9956198351102,207.3197958228764,554.7171342726277,328.142993868646,144.1251638738589,427.8306058461144,171.84646577125838,75.41358297898611,368.9834712239879,176.57567145130815,161.23993169661625,586.2060080403121,59.33935491474895,65.6708454068843,34.32915459311569,67.17597372401875,32.82402627598126,59.70101730489738,41.59007295427374,41.52968507240691,41.65046083614057,83.18014590854747,83.18014590854747,0.4138282775258401,0.4138282775258401,20.677831925193228,2.01001600001473,0
1777554012.191,-65.40137037037037,-6.628925925925927,8.630074,-8.08563,26.06392592592593,19.866704,10.086778,10.799561,-2.197266,-1.901646,-32.953491,11.047363,11.122471,-126.414185,8.117676,-0.718506,115.680542,-3.234863,-0.852627,-0.758057,-15.869141,10.806328,-17.72644,1.586914,-3.592529,109.616089,59.082031,-0.263452,-4.246216,-7.69043,10.135723,150.562134,36.621094,-2.960244,6.723633,28.991699,-0.450264,4.257202,5.737305,0.445474,-89.219971,-1.586914,10.140513,79.694824,-70.983887,-2.035767,-1.203003,130.065918,19.806812,-9.146118,2.319336,7.769443,88.747559,104.980469,0.881367,-9.058228,58.105469,8.808882,135.219727,-3.295898,-3.185376,2.444458,37.963867,-0.071851,0.153809,-1.464844,5.704937,26.262817,8.850098,23.696323,0,7944,38919,46083,30723,0,0,60164,24326,2817,14338,0,0,0,0,0,0,0,0,0,0,0,0,0,0,0,0,0,0,0,0,0,0,0,0,0,659,3667,independent_20260430_210008,trial_001,subject_001,1777554012.189942,276803.7997197,2266800,1,0,0,1,0.9979635851811264,710.9444086960964,860.3663562491123,88.72558472655824,706.9335092104656,865.5535930873882,8.520320483951156,486.959622641784,909.4183981459964,69.83492116660659,482.10352941265006,903.2286293350096,-129.22524471032395,641.8216925680414,718.5309055697526,-100.15224044614428,634.2328053303809,415.9023773332584,-111.52735071395308,591.3462420252015,272.8065633947673,-51.61929055472852,559.9245281144952,74.09507399102766,8.030710184996778,483.4112496214312,46.16633011695568,6.447001209812803,757.2627962726173,53.78324129291363,219.81574551473247,647.421777255091,726.3488416503812,201.56256023773503,698.6055436674984,426.6414257171409,207.7503444661424,561.321149006121,325.9371354969468,145.03413548835618,438.9407850763511,165.94886748302443,76.56694069272703,379.70987729195855,167.51127985954048,163.2912607871211,600.874002618251,58.59831018620253,65.6708454068843,34.32915459311569,67.17597372401875,32.82402627598126,59.70101730489738,41.59007295427374,41.52968507240691,41.65046083614057,83.18014590854747,83.18014590854747,0.4138282775258401,0.4138282775258401,20.677831925193228,2.01001600001473,0
1777554012.201,-65.99537037037037,-6.161925925925928,11.601074,-8.08563,27.31692592592593,19.866704,7.729778,10.206299,-16.967773,-0.05269,-34.238892,-14.770508,11.668535,-128.062134,-4.455566,-0.517324,115.213623,-19.836426,1.034648,-0.373535,-16.479492,10.954819,-18.242798,-6.652832,-3.262017,113.03833,74.462891,1.130449,-6.157837,7.69043,10.130933,149.463501,51.330566,-3.127896,6.723633,28.991699,-0.450264,4.257202,5.737305,0.445474,-89.219971,-1.586914,10.140513,78.442383,31.799316,-6.1073,-0.203247,16.845703,5.963599,-4.592285,4.394531,-1.470542,88.747559,104.980469,0.881367,-9.058228,58.105469,8.808882,135.219727,-3.295898,-3.185376,3.57605,31.494141,1.2502,-0.406494,-9.033203,0.0479,26.334229,2.319336,9.651929,0,7944,38919,46083,30723,0,0,60164,24326,2817,14338,0,0,0,0,0,0,0,0,0,0,0,0,0,0,0,0,0,0,0,0,0,0,0,0,0,659,3667,independent_20260430_210008,trial_001,subject_001,1777554012.2009408,276803.8098824,2266801,1,0,0,1,0.6394484825016571,709.5054902916005,860.3911808986938,88.36281933684083,705.7820778478358,865.9271326603658,8.198479807522016,485.6609684385836,909.606536644756,69.76765267159416,480.824100152283,903.4097195596944,-129.3197732768479,639.6738016548542,718.4868222580636,-100.53443362037127,630.430783496251,415.8363683142676,-111.72821323269056,587.1536975650105,272.8593210540176,-51.6491009322429,555.5482406831834,74.00082425532563,7.976410395272395,479.082096795608,46.20186404790306,6.3931537988090446,752.8981670853142,53.81606388302174,219.99015809355527,647.4517705684368,727.513683020766,201.6558661137481,702.2350049210038,428.1924308620728,208.35630453282067,567.9753215055389,323.63883558196943,146.0621332688474,450.2858180307842,159.8119384068497,77.51900303461338,390.9047172274225,158.4485941905828,164.9497711486893,615.6964676068035,57.79173928696533,65.6708454068843,34.32915459311569,67.17597372401875,32.82402627598126,59.70101730489738,41.59007295427374,41.52968507240691,41.65046083614057,83.18014590854747,83.18014590854747,0.4138282775258401,0.4138282775258401,20.677831925193228,2.01001600001473,0
1777554012.226,-65.99537037037037,-6.161925925925928,11.601074,-8.08563,27.31692592592593,19.866704,7.729778,10.206299,-16.967773,-0.05269,-34.238892,-14.770508,11.668535,-128.062134,-4.455566,-0.517324,115.213623,-19.836426,1.034648,-0.373535,-16.479492,10.954819,-18.242798,-6.652832,-3.262017,113.03833,74.462891,1.130449,-6.157837,7.69043,10.130933,149.463501,51.330566,-3.127896,6.723633,28.991699,-0.450264,4.257202,5.737305,0.445474,-89.219971,-1.586914,10.140513,78.442383,31.799316,-6.1073,-0.203247,16.845703,5.963599,-4.592285,4.394531,-1.470542,88.747559,104.980469,0.881367,-9.058228,58.105469,8.808882,135.219727,-3.295898,-3.185376,3.57605,31.494141,1.2502,-0.406494,-9.033203,0.0479,26.334229,2.319336,9.651929,0,7944,38919,46083,30723,0,0,60164,24326,2817,14338,0,0,0,0,0,0,0,0,0,0,0,0,0,0,0,0,0,0,0,0,0,0,0,0,0,659,3667,independent_20260430_210008,trial_001,subject_001,1777554012.2304523,276803.8398237,2266804,1,0,0,1,-0.4084376240242198,705.2947305531777,860.4400166864947,87.25125628372976,701.9405429260233,866.8720419379729,8.137593495401362,481.6817425801773,909.9949122353478,69.56515956223548,476.9792158702508,903.9534422333224,-129.79604430371015,633.2222592093941,718.1673751709485,-101.67434146435156,619.6228901160772,415.61451076533,-112.79113348143754,575.1818769332313,272.9064743355186,-52.14728085966914,542.6233345940955,74.10182146031929,7.300234541307431,465.8916406054397,46.22890735920333,5.63628534394332,739.9951324476509,53.846578311625386,220.5659726379752,646.9663648072767,730.47874085185,201.97734069018705,711.8071619896476,432.6720941906081,210.2621688337859,587.9225736098848,316.40271629494094,149.9420126053043,486.233496931397,140.98852643781433,82.03937492405814,426.2471159246082,150.12014735114215,169.1240273494604,660.8320793825867,56.64222856911538,65.6708454068843,34.32915459311569,67.17597372401875,32.82402627598126,59.70101730489738,41.59007295427374,41.52968507240691,41.65046083614057,83.18014590854747,83.18014590854747,0.4138282775258401,0.4138282775258401,20.677831925193228,2.01001600001473,0
1777554012.236,-65.99537037037037,-6.161925925925928,11.601074,-8.08563,27.31692592592593,19.866704,7.729778,10.206299,-16.967773,-0.05269,-34.238892,-14.770508,11.668535,-128.062134,-4.455566,-0.517324,115.213623,-19.836426,1.034648,-0.373535,-16.479492,10.954819,-18.242798,-6.652832,-3.262017,113.03833,74.462891,1.130449,-6.157837,7.69043,10.130933,149.463501,51.330566,-3.127896,6.723633,28.991699,-0.450264,4.257202,5.737305,0.445474,-89.219971,-1.586914,10.140513,78.442383,31.799316,-6.1073,-0.203247,16.845703,5.963599,-4.592285,4.394531,-1.470542,88.747559,104.980469,0.881367,-9.058228,58.105469,8.808882,135.219727,-3.295898,-3.185376,3.57605,31.494141,1.2502,-0.406494,-9.033203,0.0479,26.334229,2.319336,9.651929,0,7944,38919,46083,30723,0,0,60164,24326,2817,14338,0,0,0,0,0,0,0,0,0,40713,2308,0,0,0,0,28426,10755,0,0,0,0,0,0,0,0,659,3669,independent_20260430_210008,trial_001,subject_001,1777554012.2404535,276803.8495422,2266805,1,0,0,1,-0.7576686543063655,703.8270242712923,860.4147305837014,86.90480346676213,700.6004241939903,867.115603363415,8.164658581684293,480.1593131548744,910.1795810804476,69.52616735746395,475.7151345820425,904.1190644792864,-129.90196860853774,631.0447020384169,718.0476658395365,-101.9534400227616,615.9000175396953,415.548299706809,-113.09237548210209,571.2989856805474,273.0292471741729,-52.41632551270485,538.2700878236661,74.16304942821714,7.022110959892055,461.6946597330981,46.283646780557376,5.412466093960971,735.7312815026718,53.86788685867477,220.7193051802444,646.6788344644903,731.3696069657531,202.043416261166,714.4315616689198,434.1046053909717,211.0029978844449,594.5247149899426,314.01112268796294,152.02138659876374,498.55375815342416,134.96799218566528,83.74686090107765,438.5912931203666,140.99785771813717,170.3012478132507,676.0153126053619,55.97397469431774,65.6708454068843,34.32915459311569,67.17597372401875,32.82402627598126,59.70101730489738,41.59007295427374,41.52968507240691,41.65046083614057,83.18014590854747,83.18014590854747,0.4138282775258401,0.4138282775258401,20.677831925193228,2.01001600001473,0
1777554012.243,-65.99537037037037,-6.161925925925928,11.601074,-8.08563,27.31692592592593,19.866704,7.729778,10.206299,-16.967773,-0.05269,-34.238892,-14.770508,11.668535,-128.062134,-4.455566,-0.517324,115.213623,-19.836426,1.034648,-0.373535,-16.479492,10.954819,-18.242798,-6.652832,-3.262017,113.03833,74.462891,1.130449,-6.157837,7.69043,10.130933,149.463501,51.330566,-3.127896,6.723633,28.991699,-0.450264,4.257202,5.737305,0.445474,-89.219971,-1.586914,10.140513,78.442383,31.799316,-6.1073,-0.203247,16.845703,5.963599,-4.592285,4.394531,-1.470542,88.747559,104.980469,0.881367,-9.058228,58.105469,8.808882,135.219727,-3.295898,-3.185376,3.57605,31.494141,1.2502,-0.406494,-9.033203,0.0479,26.334229,2.319336,9.651929,0,7944,38919,46083,30723,0,0,60164,24326,2817,14338,0,0,0,0,0,0,0,0,0,40713,2308,0,0,0,0,28426,10755,0,0,0,0,0,0,0,0,659,3669,independent_20260430_210008,trial_001,subject_001,1777554012.2404535,276803.8495422,2266805,1,0,0,1,-0.7576686543063655,703.8270242712923,860.4147305837014,86.90480346676213,700.6004241939903,867.115603363415,8.164658581684293,480.1593131548744,910.1795810804476,69.52616735746395,475.7151345820425,904.1190644792864,-129.90196860853774,631.0447020384169,718.0476658395365,-101.9534400227616,615.9000175396953,415.548299706809,-113.09237548210209,571.2989856805474,273.0292471741729,-52.41632551270485,538.2700878236661,74.16304942821714,7.022110959892055,461.6946597330981,46.34930537078112,5.412466093960971,735.7312815026718,53.88550558923624,220.7193051802444,646.6788344644903,731.3696069657531,202.043416261166,714.4315616689198,434.1046053909717,211.0029978844449,594.5247149899426,314.01112268796294,152.02138659876374,498.55375815342416,134.96799218566528,83.74686090107765,438.5912931203666,131.55103175539847,170.3012478132507,676.0153126053619,55.62685456147271,65.6708454068843,34.32915459311569,67.17597372401875,32.82402627598126,59.70101730489738,41.59007295427374,41.52968507240691,41.65046083614057,83.18014590854747,83.18014590854747,0.4138282775258401,0.4138282775258401,20.677831925193228,2.01001600001473,0
1777554012.254,-66.70337037037037,-6.161925925925928,14.892074,-10.15663,26.05292592592592,23.574704,7.729778,9.497681,-22.949219,1.609453,-34.815674,5.432129,10.935659,-129.160767,-2.258301,1.22625,115.213623,-19.836426,1.034648,-0.373535,-16.479492,10.954819,-18.242798,-6.652832,-3.262017,115.861816,86.242676,3.496729,-8.415527,45.166016,10.518926,149.91394,41.381836,-3.966152,8.074951,47.546387,-0.474214,4.581299,12.390137,0.273032,-89.274902,-1.525879,10.059082,79.705811,38.574219,-0.067061,-1.472168,-74.401855,6.207891,-7.009277,37.780762,-4.205654,91.203003,65.979004,-0.273032,-9.239502,20.568848,8.205337,137.158813,12.878418,-5.082231,3.57605,31.494141,1.2502,-0.406494,-9.033203,0.0479,26.334229,2.319336,9.651929,0,7944,38919,46083,30723,0,0,60164,24326,2817,14338,0,0,0,0,0,0,0,0,0,40713,2308,0,0,0,0,28426,10755,0,0,0,0,0,0,0,0,659,3669,independent_20260430_210008,trial_001,subject_001,1777554012.2504525,276803.8599273,2266806,1,0,0,1,-1.0965660320884456,702.3026608286469,860.4174195893123,86.50355959773017,699.3595786423126,867.3287772926998,8.07439194058962,478.7525997499216,910.295784660054,69.62535059082295,474.40082651088784,904.2736007328914,-130.0764463354664,628.849636649222,717.9526602275164,-102.35129383866855,612.3222655650139,415.5583827914362,-113.34152879123468,567.193659305209,272.96834121571544,-52.52678454574757,534.0220452944022,74.16307142101878,7.238460972718228,457.2155124282868,46.42418202737438,5.308369828622759,731.4174292325238,53.87652692305905,220.97652404252048,646.3732164801161,732.196059774969,202.05871890429475,716.8355227019806,435.4781211933907,211.82957296430047,601.109044744806,311.4298834953814,153.4958032260878,511.2207469577959,128.9584630794484,85.28096015009949,450.8444885302845,121.92322015316832,171.3151239396395,691.2395005532795,55.65936438741595,65.6708454068843,34.32915459311569,67.17597372401875,32.82402627598126,59.70101730489738,41.59007295427374,41.52968507240691,41.65046083614057,83.18014590854747,83.18014590854747,0.4138282775258401,0.4138282775258401,20.677831925193228,2.01001600001473,0
1777554012.268,-67.53837037037037,-5.1399259259259225,14.892074,-10.76163,26.05292592592592,23.903704,5.977778,8.66272,-11.352539,0.091011,-34.914551,21.972656,9.484277,-130.094604,3.90625,0.201182,114.191895,-46.447754,2.725532,0.032959,-0.305176,11.357183,-18.319702,-12.634277,-1.499282,115.861816,86.242676,3.496729,-8.415527,45.166016,10.518926,149.91394,41.381836,-3.966152,10.294189,79.89502,-0.110171,5.20752,23.864746,-0.071851,-89.241943,-0.488281,10.221943,79.705811,38.574219,-0.067061,-1.472168,-74.401855,6.207891,-7.009277,37.780762,-4.205654,92.796021,36.071777,-0.105381,-9.667969,-48.522949,9.077124,136.40625,15.136719,-5.685776,4.279175,14.892578,0.536484,-0.725098,-5.126953,1.096919,26.345215,0.12207,9.929751,0,7944,38919,46083,30723,0,0,60164,24326,2817,14338,0,0,0,0,0,0,0,0,0,40713,2308,0,0,0,0,28426,10755,0,0,0,0,0,0,0,0,659,3669,independent_20260430_210008,trial_001,subject_001,1777554012.2704833,276803.8796254,2266808,1,0,0,1,-1.7667257819834083,699.3517318885014,860.3401794831642,85.84645008338366,696.6406018852746,867.6865619048111,8.324886257194146,475.9686074987931,910.312428892184,69.99727442956876,471.6611367949868,904.7206619783052,-130.26360582605292,624.4518321084167,717.6867233261448,-102.94775384278768,604.9747633966846,415.4529654286199,-113.94008782022836,559.1082418016543,273.0351239416122,-52.89670794954213,525.3560832185897,74.32240742561153,6.418726855713902,448.5683006507656,46.50021784678519,4.684335979702522,722.7289927507979,53.86289432900106,221.3961852496176,645.6291199964459,733.840943369141,202.0313353086065,721.0377565737318,437.8785537813341,213.53662814907256,614.1658170166877,306.5381166996152,156.48027496513149,536.8956925466878,117.54718250721952,88.7221943549937,477.8470276564288,112.83555429912992,172.90670576099532,721.5378673672167,56.08050522009462,65.6708454068843,34.32915459311569,67.17597372401875,32.82402627598126,59.70101730489738,41.59007295427374,41.52968507240691,41.65046083614057,83.18014590854747,83.18014590854747,0.4138282775258401,0.4138282775258401,20.677831925193228,2.01001600001473,0
1777554012.273,-67.53837037037037,-2.3489259259259256,19.056074,-10.73963,23.60892592592592,23.903704,4.653778,8.66272,-11.352539,0.091011,-34.914551,21.972656,9.484277,-130.094604,3.90625,0.201182,111.401367,-87.82959,4.842729,-0.065918,40.161133,9.82437,-17.347412,-0.915527,0.737666,119.003906,107.36084,3.319497,-11.14563,109.863281,10.873389,152.089233,40.344238,-1.877695,13.458252,120.239258,-1.149609,6.004028,32.470703,0.196392,-88.90686,11.71875,11.146421,82.150269,79.833984,4.124224,-2.521362,-46.75293,12.161909,-8.151855,16.845703,-1.163979,92.796021,36.071777,-0.105381,-9.667969,-48.522949,9.077124,136.40625,15.136719,-5.685776,4.54834,5.67627,0.364043,-0.900879,-3.601074,1.015488,26.30127,-0.427246,10.504556,0,7944,38919,46083,30723,0,0,60164,24326,2817,14338,0,0,0,0,0,0,0,0,0,40713,2308,0,0,0,0,28426,10755,0,0,0,0,0,0,0,0,659,3669,independent_20260430_210008,trial_001,subject_001,1777554012.2704833,276803.8796254,2266808,1,0,0,1,-1.7667257819834083,699.3517318885014,860.3401794831642,85.84645008338366,696.6406018852746,867.6865619048111,8.324886257194146,475.9686074987931,910.312428892184,69.99727442956876,471.6611367949868,904.7206619783052,-130.26360582605292,624.4518321084167,717.6867233261448,-102.94775384278768,604.9747633966846,415.4529654286199,-113.94008782022836,559.1082418016543,273.0351239416122,-52.89670794954213,525.3560832185897,74.32240742561153,6.418726855713902,448.5683006507656,46.56936642804333,4.684335979702522,722.7289927507979,53.84472034509727,221.3961852496176,645.6291199964459,733.840943369141,202.0313353086065,721.0377565737318,437.8785537813341,213.53662814907256,614.1658170166877,306.5381166996152,156.48027496513149,536.8956925466878,117.54718250721952,88.7221943549937,477.8470276564288,104.08767454082708,172.90670576099532,721.5378673672167,56.98232604570593,65.6708454068843,34.32915459311569,67.17597372401875,32.82402627598126,59.70101730489738,41.59007295427374,41.52968507240691,41.65046083614057,83.18014590854747,83.18014590854747,0.4138282775258401,0.4138282775258401,20.677831925193228,2.01001600001473,0
1777554012.283,-67.82937037037037,-2.3489259259259256,25.478074,-10.73963,21.410925925925923,22.722704,3.539778,8.371582,7.93457,-0.847837,-34.82666,19.40918,9.383687,-130.907593,3.662109,-2.069297,111.401367,-87.82959,4.842729,-0.065918,40.161133,9.82437,-17.347412,-0.915527,0.737666,122.634888,116.271973,0.450264,-13.260498,35.766602,10.471025,154.033813,-0.12207,-3.894302,13.458252,120.239258,-1.149609,6.004028,32.470703,0.196392,-88.90686,11.71875,11.146421,84.347534,68.969727,1.916016,-2.872925,-7.568359,11.0602,-8.761597,7.69043,-0.091011,94.059448,19.714355,1.839375,-10.167847,-68.603516,11.663745,133.560791,18.005371,-2.567461,4.696655,5.554199,-0.00958,-1.07666,-4.394531,0.589175,26.317749,1.831055,9.81958,0,7944,38919,46083,30723,0,0,60164,24326,2817,14338,0,0,0,0,0,0,0,0,0,40713,2308,0,0,0,0,28426,10755,0,0,0,0,0,0,0,0,659,3669,independent_20260430_210008,trial_001,subject_001,1777554012.279855,276803.8899201,2266809,1,0,0,1,-2.096908209999671,697.8239997323499,860.2058171820853,85.53148126558625,695.2593849559347,867.802847666681,8.423916995922575,474.4396413922765,910.4656573849612,69.97601201092569,470.358481515746,904.8729982683508,-130.32851455368075,622.1241811533648,717.5779065671712,-103.31556023806014,601.4341319562175,415.294361633557,-114.18023030717016,555.1617140642533,273.0889094408083,-53.04629022230738,520.8889579402822,74.26566049652564,6.331054478567669,444.1731752229761,46.64147505008611,4.4117467711741165,718.4228301660527,53.82390975964304,221.599831100851,645.1270120166944,734.5956475147852,201.9350157449996,722.7740503257897,438.9914250777459,214.409415622476,620.5292597190625,304.1260969476603,157.573082374059,549.9108928174518,112.14963311683532,90.832770988853,489.853361322752,95.83517611078152,173.59684685657413,736.5829963281238,58.37457005669448,65.6708454068843,34.32915459311569,67.17597372401875,32.82402627598126,59.70101730489738,41.59007295427374,41.52968507240691,41.65046083614057,83.18014590854747,83.18014590854747,0.4138282775258401,0.4138282775258401,20.677831925193228,2.01001600001473,0
1777554012.291,-67.82937037037037,-2.3489259259259256,25.478074,-10.73963,21.410925925925923,22.722704,3.539778,8.371582,7.93457,-0.847837,-34.82666,19.40918,9.383687,-130.907593,3.662109,-2.069297,111.401367,-87.82959,4.842729,-0.065918,40.161133,9.82437,-17.347412,-0.915527,0.737666,122.634888,116.271973,0.450264,-13.260498,35.766602,10.471025,154.033813,-0.12207,-3.894302,13.458252,120.239258,-1.149609,6.004028,32.470703,0.196392,-88.90686,11.71875,11.146421,84.347534,68.969727,1.916016,-2.872925,-7.568359,11.0602,-8.761597,7.69043,-0.091011,94.059448,19.714355,1.839375,-10.167847,-68.603516,11.663745,133.560791,18.005371,-2.567461,4.696655,5.554199,-0.00958,-1.07666,-4.394531,0.589175,26.317749,1.831055,9.81958,0,7944,38919,46083,30723,0,0,60164,24326,2817,14338,0,0,0,0,0,0,0,0,0,40713,2308,0,0,0,0,28426,10755,0,0,0,0,0,0,0,0,659,3669,independent_20260430_210008,trial_001,subject_001,1777554012.2901528,276803.8996331,2266810,1,0,0,1,-2.4210619133232827,696.1702539541322,860.121452673572,85.21217174173205,693.8932234016831,867.8634165119192,8.450863983537328,472.935931362001,910.575819986326,70.12980026409197,469.0049357206194,905.0247048177362,-130.4603826016812,619.8231664951652,717.4585675403512,-103.64024052847935,597.9087058535588,415.2617396444745,-114.48284640995412,551.3076246059148,273.159141882788,-53.207156146253006,516.5492558091843,74.28936689038576,5.900275493581285,439.9867001715275,46.70340306890456,4.279907555671874,714.0033150533875,53.81085523521961,221.74120238711427,644.4866005448869,735.2117251255377,201.7945209261341,724.2579344652215,439.9955176807908,215.2329517636705,626.9486762665484,301.7622707222463,159.43490388510926,562.8776926531976,107.32779119642974,92.38553262030192,503.9666483542663,88.15323394142453,174.104940727698,751.4208879786478,60.28185822049846,65.6708454068843,34.32915459311569,67.17597372401875,32.82402627598126,59.70101730489738,41.59007295427374,41.52968507240691,41.65046083614057,83.18014590854747,83.18014590854747,0.4138282775258401,0.4138282775258401,20.677831925193228,2.01001600001473,0
