timestamp,torso_angle,left_hip_angle,left_knee_angle,left_ankle_angle,right_hip_angle,right_knee_angle,right_ankle_angle,imu1ang_x,imu1vel_x,imu1acc_x,imu1ang_y,imu1vel_y,imu1acc_y,imu1ang_z,imu1vel_z,imu1acc_z,imu2ang_x,imu2vel_x,imu2acc_x,imu2ang_y,imu2vel_y,imu2acc_y,imu2ang_z,imu2vel_z,imu2acc_z,imu3ang_x,imu3vel_x,imu3acc_x,imu3ang_y,imu3vel_y,imu3acc_y,imu3ang_z,imu3vel_z,imu3acc_z,imu4ang_x,imu4vel_x,imu4acc_x,imu4ang_y,imu4vel_y,imu4acc_y,imu4ang_z,imu4vel_z,imu4acc_z,imu5ang_x,imu5vel_x,imu5acc_x,imu5ang_y,imu5vel_y,imu5acc_y,imu5ang_z,imu5vel_z,imu5acc_z,imu6ang_x,imu6vel_x,imu6acc_x,imu6ang_y,imu6vel_y,imu6acc_y,imu6ang_z,imu6vel_z,imu6acc_z,imu7ang_x,imu7vel_x,imu7acc_x,imu7ang_y,imu7vel_y,imu7acc_y,imu7ang_z,imu7vel_z,imu7acc_z,L_1,L_2,L_3,L_4,L_5,L_6,L_7,L_8,L_9,L_10,L_11,L_12,L_13,L_14,L_15,L_16,L_17,L_18,R_1,R_2,R_3,R_4,R_5,R_6,R_7,R_8,R_9,R_10,R_11,R_12,R_13,R_14,R_15,R_16,R_17,R_18,frame_id_left,frame_id_right,vicon_Session_ID,vicon_Trial_ID,vicon_Subject_ID,vicon_Vicon_Recv_Timestamp,vicon_Vicon_Recv_Timestamp_Mono,vicon_Vicon_Frame_Num,vicon_Vicon_Subject_Name,vicon_Vicon_Gap_Flag,vicon_Vicon_Gap_Size,vicon_Vicon_Original_Valid_Flag,vicon_Vicon_LASI_X,vicon_Vicon_LASI_Y,vicon_Vicon_LASI_Z,vicon_Vicon_RASI_X,vicon_Vicon_RASI_Y,vicon_Vicon_RASI_Z,vicon_Vicon_LPSI_X,vicon_Vicon_LPSI_Y,vicon_Vicon_LPSI_Z,vicon_Vicon_RPSI_X,vicon_Vicon_RPSI_Y,vicon_Vicon_RPSI_Z,vicon_Vicon_LTHI_X,vicon_Vicon_LTHI_Y,vicon_Vicon_LTHI_Z,vicon_Vicon_LKNE_X,vicon_Vicon_LKNE_Y,vicon_Vicon_LKNE_Z,vicon_Vicon_LTIB_X,vicon_Vicon_LTIB_Y,vicon_Vicon_LTIB_Z,vicon_Vicon_LANK_X,vicon_Vicon_LANK_Y,vicon_Vicon_LANK_Z,vicon_Vicon_LHEE_X,vicon_Vicon_LHEE_Y,vicon_Vicon_LHEE_Z,vicon_Vicon_LTOE_X,vicon_Vicon_LTOE_Y,vicon_Vicon_LTOE_Z,vicon_Vicon_RTHI_X,vicon_Vicon_RTHI_Y,vicon_Vicon_RTHI_Z,vicon_Vicon_RKNE_X,vicon_Vicon_RKNE_Y,vicon_Vicon_RKNE_Z,vicon_Vicon_RTIB_X,vicon_Vicon_RTIB_Y,vicon_Vicon_RTIB_Z,vicon_Vicon_RANK_X,vicon_Vicon_RANK_Y,vicon_Vicon_RANK_Z,vicon_Vicon_RHEE_X,vicon_Vicon_RHEE_Y,vicon_Vicon_RHEE_Z,vicon_Vicon_RTOE_X,vicon_Vicon_RTOE_Y,vicon_Vicon_RTOE_Z,left_pct_stance,left_pct_swing,right_pct_stance,right_pct_swing,step_frequency,step_length,left_step_length,right_step_length,left_stride_length,right_stride_length,left_step_speed,right_step_speed,step_width,cycle_time,phase_label
1777554784.844,12.644629629629634,31.85107407407408,33.201074,6.58537,5.222925925925921,36.279704,-18.417222,88.846436,-11.352539,-0.02874,-1.653442,-45.349121,9.144185,-39.841919,-14.282227,-1.887275,77.200928,15.319824,1.21667,0.428467,-24.230957,8.195757,-36.990967,-17.822266,-0.967588,96.157837,53.649902,4.339775,2.620239,156.12793,11.304492,-92.905884,-21.850586,-2.974614,-4.262695,164.794922,5.384004,-0.543823,76.049805,2.48124,-88.868408,6.530762,12.118799,100.535889,-134.277344,-3.084785,0.961304,-66.711426,11.314072,-32.420654,24.536133,-3.266807,135.071411,167.724609,-1.537603,-1.5271,-57.739258,12.976216,-120.9375,8.728027,-2.888394,11.195068,60.852051,0.871787,-1.647949,2.868652,0.158071,-100.447998,-8.056641,10.250684,0,7944,38919,46083,30723,0,0,60164,24326,2817,14338,0,0,0,0,0,0,0,13323,25348,62214,0,0,0,54535,12549,6665,0,0,0,9226,56833,0,0,25866,0,659,18526,independent_20260430_211301,trial_001,subject_001,1777554784.843912,277576.4531985,2344064,1,0,0,1,0.0,0.0,0.0,153.00116790752594,600.0201056389782,828.9107615324424,76.03699494653357,380.29936299229337,883.1396846000254,136.40395200170187,377.5748873117557,878.2783392098883,-84.37801445462105,564.2865813850534,713.446485257502,-76.72530025565588,657.1105406525772,429.84551288013614,-97.08285138939692,668.2225894251536,290.4807001118331,-57.16090816381308,741.0917833932015,80.68922093310259,6.052852798910776,680.7911754133272,32.82003717735385,-12.128998536236807,933.958455344896,128.41451380774,270.49987955497494,485.1220928968217,686.3006684144591,226.8264048729299,411.43670052479104,391.9349194346925,239.71651139711125,319.41262777076025,266.7103838696524,169.14852650831077,228.46047252848533,76.7781456461713,106.39880683703846,162.95376767888447,51.28530672293062,172.77019193549435,419.164128146724,49.3849993310692,60.81956691630504,39.18043308369497,69.79184735376795,30.20815264623205,81.07927871068017,49.71131159419377,47.63888241494327,51.78374077344428,99.42262318838756,99.42262318838756,0.6717595479698506,0.6717595479698506,24.71349571929501,1.4800328999990595,2
1777554784.85,12.644629629629634,31.85107407407408,33.201074,6.58537,5.222925925925921,36.279704,-18.417222,88.846436,-11.352539,-0.02874,-1.653442,-45.349121,9.144185,-39.841919,-14.282227,-1.887275,77.200928,15.319824,1.21667,0.428467,-24.230957,8.195757,-36.990967,-17.822266,-0.967588,96.157837,53.649902,4.339775,2.620239,156.12793,11.304492,-92.905884,-21.850586,-2.974614,-4.262695,164.794922,5.384004,-0.543823,76.049805,2.48124,-88.868408,6.530762,12.118799,100.535889,-134.277344,-3.084785,0.961304,-66.711426,11.314072,-32.420654,24.536133,-3.266807,135.071411,167.724609,-1.537603,-1.5271,-57.739258,12.976216,-120.9375,8.728027,-2.888394,11.195068,60.852051,0.871787,-1.647949,2.868652,0.158071,-100.447998,-8.056641,10.250684,0,7944,38919,46083,30723,0,0,60164,24326,2817,14338,0,0,0,0,0,0,0,6663,8454,33287,0,0,0,12546,20228,8713,0,0,0,39681,0,0,0,27906,0,659,18527,independent_20260430_211301,trial_001,subject_001,1777554784.8534198,277576.4632714,2344065,1,0,0,1,0.0,0.0,0.0,152.2964938154153,601.5464503610394,827.4241551136972,73.57630204799509,382.59958825669946,882.0671953557948,133.94702443424424,379.5247467565551,877.5078138087406,-85.33183179034836,567.611857635138,711.8354867347748,-76.27946957566704,659.405243401895,427.8613081762372,-96.25434064324644,667.5746092980924,288.3289765312292,-56.3402206324141,735.6039939181386,77.10813274543419,5.534622409315404,674.6779076859892,33.0572371647488,-11.360029850708404,930.9065107570228,121.73130338698468,269.40240024153456,485.3279572291792,685.3663899659191,225.83047442701908,410.1877241608253,391.3020574529956,239.08165529334863,316.1200946028417,267.4892900424074,169.271629586766,222.1621094062354,78.2822169471128,106.46057042967944,156.24853331833071,53.26060491191515,172.62733903566755,412.2975572732309,49.0549348061645,60.81956691630504,39.18043308369497,69.79184735376795,30.20815264623205,81.07927871068017,49.71131159419377,47.63888241494327,51.78374077344428,99.42262318838756,99.42262318838756,0.6717595479698506,0.6717595479698506,24.71349571929501,1.4800328999990595,2
1777554784.863,12.480629629629632,31.85107407407408,34.755074,6.58537,7.277925925925928,36.279704,0.479778,88.681641,-8.666992,0.03353,-1.400757,-21.850586,9.129814,-40.418701,-12.451172,-0.632285,77.200928,15.319824,1.21667,0.428467,-24.230957,8.195757,-36.990967,-17.822266,-0.967588,97.712402,25.756836,-7.419771,3.279419,-11.169434,8.56459,-89.972534,9.155273,-2.687212,-4.262695,164.794922,5.384004,-0.543823,76.049805,2.48124,-88.868408,6.530762,12.118799,98.481445,-135.375977,-2.078877,0.697632,-55.419922,11.879297,-33.348999,29.174805,-4.090693,135.071411,167.724609,-1.537603,-1.5271,-57.739258,12.976216,-120.9375,8.728027,-2.888394,42.648926,521.66748,-0.081431,2.730103,41.870117,0.732876,-103.178101,-54.56543,7.774233,0,7944,38919,46083,30723,0,0,60164,24326,2817,14338,0,0,0,0,0,0,0,6663,8454,33287,0,0,0,12546,20228,8713,0,0,0,39681,0,0,0,27906,0,659,18527,independent_20260430_211301,trial_001,subject_001,1777554784.8635263,277576.4731911,2344066,1,0,0,1,0.0,0.0,0.0,151.77072484137557,602.9080062288493,826.1954811437356,71.0505027151756,385.1979738560372,881.0980751573759,131.46996853577167,381.6151825048431,876.6804536404628,-86.15124952490198,571.0320027549195,710.2391754236886,-75.64241003256856,661.784978121531,425.7131110887792,-95.66790050903477,666.890949363094,286.23265835785287,-55.68470420908593,729.6237581830878,73.72990605997828,5.5373600430061165,669.2972854598081,33.655881711218484,-10.41630292466733,928.1114415985868,113.74531382703738,267.8111121239092,485.85151953598654,684.375008194692,224.7490324826022,409.2403148596592,390.6008437312148,238.5204513896209,312.99453562942625,268.3496684441786,169.21647734170796,215.9317238902817,80.67062367669844,106.4722961566416,149.6253256556143,55.97310622669065,172.432451538489,405.5342872392378,48.74192788706242,60.81956691630504,39.18043308369497,69.79184735376795,30.20815264623205,81.07927871068017,49.71131159419377,47.63888241494327,51.78374077344428,99.42262318838756,99.42262318838756,0.6717595479698506,0.6717595479698506,24.71349571929501,1.4800328999990595,2
1777554784.871,12.480629629629632,31.85107407407408,34.755074,6.58537,7.277925925925928,36.279704,0.479778,88.681641,-8.666992,0.03353,-1.400757,-21.850586,9.129814,-40.418701,-12.451172,-0.632285,77.200928,15.319824,1.21667,0.428467,-24.230957,8.195757,-36.990967,-17.822266,-0.967588,97.712402,25.756836,-7.419771,3.279419,-11.169434,8.56459,-89.972534,9.155273,-2.687212,-4.262695,164.794922,5.384004,-0.543823,76.049805,2.48124,-88.868408,6.530762,12.118799,98.481445,-135.375977,-2.078877,0.697632,-55.419922,11.879297,-33.348999,29.174805,-4.090693,135.071411,167.724609,-1.537603,-1.5271,-57.739258,12.976216,-120.9375,8.728027,-2.888394,42.648926,521.66748,-0.081431,2.730103,41.870117,0.732876,-103.178101,-54.56543,7.774233,0,7944,38919,46083,30723,0,0,60164,24326,2817,14338,0,0,0,0,0,0,0,6663,8454,33287,0,0,0,12546,20228,8713,0,0,0,39681,0,0,0,27906,0,659,18527,independent_20260430_211301,trial_001,subject_001,1777554784.8735278,277576.4831722,2344067,1,0,0,1,0.0,0.0,0.0,150.7392871933473,605.0352153104685,824.7957188287584,68.43694091879917,387.8924859657342,880.193637278722,129.05489110852082,383.8927475116095,875.8681162641745,-86.82627496150862,574.5120946234779,708.7849541503159,-74.98125568570376,663.6424090988702,423.6584543848897,-94.76425943389584,665.9433954159332,284.3951082225197,-55.54942894931946,724.4010316430141,72.48634636899223,5.34685871572101,663.9057717737027,34.44608852841249,-9.348522236659404,925.424132525426,105.81118772968784,266.22249013960123,486.6634724798568,683.4785998141843,223.70322974673945,408.6163446408788,389.9850584092457,238.01929810369072,310.15972640668923,269.4259415180595,169.55324222349623,210.15543115183303,83.06554941970795,106.65061888150882,143.29781765603505,59.55832647568625,172.30451205874394,398.7825202841109,48.41122156697132,60.81956691630504,39.18043308369497,69.79184735376795,30.20815264623205,81.07927871068017,49.71131159419377,47.63888241494327,51.78374077344428,99.42262318838756,99.42262318838756,0.6717595479698506,0.6717595479698506,24.71349571929501,1.4800328999990595,2
1777554784.878,12.480629629629632,24.06707407407407,34.755074,-2.60363,9.94192592592593,63.295704,8.823778,88.681641,-8.666992,0.03353,-1.400757,-21.850586,9.129814,-40.418701,-12.451172,-0.632285,84.984741,48.522949,-2.42376,2.576294,-6.774902,10.178833,-35.233154,1.831055,-1.092129,97.712402,25.756836,-7.419771,3.279419,-11.169434,8.56459,-89.972534,9.155273,-2.687212,0.302124,4.272461,-0.756826,2.510376,3.662109,0.287402,-88.90686,0.793457,10.140513,95.817261,-129.455566,-1.082549,0.203247,-33.996582,11.309282,-34.205933,30.944824,-4.564907,148.29895,62.438965,-1.657354,0.192261,-46.508789,6.059399,-124.233398,24.108887,-10.250684,50.993042,337.402344,-4.334985,3.674927,-86.120605,5.369634,-104.957886,-122.070312,16.990269,0,7944,38919,46083,30723,0,0,60164,24326,2817,14338,0,0,0,0,0,0,0,6663,8454,33287,0,0,0,12546,20228,8713,0,0,0,39681,0,0,0,27906,0,659,18527,independent_20260430_211301,trial_001,subject_001,1777554784.8735278,277576.4831722,2344067,1,0,0,1,0.0,0.0,0.0,150.7392871933473,605.0352153104685,824.7957188287584,68.43694091879917,387.8924859657342,880.193637278722,129.05489110852082,383.8927475116095,875.8681162641745,-86.82627496150862,574.5120946234779,708.7849541503159,-74.98125568570376,663.6424090988702,423.6584543848897,-94.76425943389584,665.9433954159332,284.3951082225197,-55.54942894931946,724.4010316430141,72.48634636899223,5.34685871572101,663.9057717737027,35.52222184596531,-9.348522236659404,925.424132525426,97.447866457815,266.22249013960123,486.6634724798568,683.4785998141843,223.70322974673945,408.6163446408788,389.9850584092457,238.01929810369072,310.15972640668923,269.4259415180595,169.55324222349623,210.15543115183303,83.06554941970795,106.65061888150882,143.29781765603505,64.04522469618833,172.30451205874394,398.7825202841109,48.09233650912978,60.81956691630504,39.18043308369497,69.79184735376795,30.20815264623205,81.07927871068017,49.71131159419377,47.63888241494327,51.78374077344428,99.42262318838756,99.42262318838756,0.6717595479698506,0.6717595479698506,24.71349571929501,1.4800328999990595,2
1777554784.888,12.480629629629632,24.06707407407407,34.755074,-2.60363,9.94192592592593,63.295704,8.823778,88.681641,-8.666992,0.03353,-1.400757,-21.850586,9.129814,-40.418701,-12.451172,-0.632285,84.984741,48.522949,-2.42376,2.576294,-6.774902,10.178833,-35.233154,1.831055,-1.092129,97.712402,25.756836,-7.419771,3.279419,-11.169434,8.56459,-89.972534,9.155273,-2.687212,0.302124,4.272461,-0.756826,2.510376,3.662109,0.287402,-88.90686,0.793457,10.140513,95.817261,-129.455566,-1.082549,0.203247,-33.996582,11.309282,-34.205933,30.944824,-4.564907,148.29895,62.438965,-1.657354,0.192261,-46.508789,6.059399,-124.233398,24.108887,-10.250684,50.993042,337.402344,-4.334985,3.674927,-86.120605,5.369634,-104.957886,-122.070312,16.990269,0,7944,38919,46083,30723,0,0,60164,24326,2817,14338,0,0,0,0,0,0,0,6663,8454,33287,0,0,0,12546,20228,8713,0,0,0,39681,0,0,0,27906,0,659,18527,independent_20260430_211301,trial_001,subject_001,1777554784.883526,277576.4928487,2344068,1,0,0,1,0.0,0.0,0.0,149.5692521099288,607.2846282313874,823.4500746601484,65.94612570148394,390.7330138458545,879.449286682279,126.51951032861264,386.3443175533369,875.0074851120006,-87.19898034604405,577.9755120198521,707.7606771318232,-74.99559454054292,664.9162781103274,422.1623885993109,-93.98708543489576,665.6717841289859,283.10958167249765,-55.56180682661983,720.6924522713109,71.93330009078886,5.1973678485301456,658.5934773826336,36.61599342872004,-9.218120328099143,922.6179422114466,89.66038403019232,264.614785879251,487.8670455324229,682.5921634564351,222.72281565644903,408.08378578535127,389.3718063298261,237.4535142406839,307.59233531740085,270.62463921981475,169.9612387768419,204.3655886570401,85.2894388946619,106.68516393216134,137.0153910655471,69.53386597278626,172.27093953931865,392.0906833824724,47.73594111753789,60.81956691630504,39.18043308369497,69.79184735376795,30.20815264623205,81.07927871068017,49.71131159419377,47.63888241494327,51.78374077344428,99.42262318838756,99.42262318838756,0.6717595479698506,0.6717595479698506,24.71349571929501,1.4800328999990595,2
1777554784.902,12.480629629629632,24.06707407407407,34.755074,-2.60363,9.94192592592593,63.295704,8.823778,88.681641,-8.666992,0.03353,-1.400757,-21.850586,9.129814,-40.418701,-12.451172,-0.632285,84.984741,48.522949,-2.42376,2.576294,-6.774902,10.178833,-35.233154,1.831055,-1.092129,97.712402,25.756836,-7.419771,3.279419,-11.169434,8.56459,-89.972534,9.155273,-2.687212,0.302124,4.272461,-0.756826,2.510376,3.662109,0.287402,-88.90686,0.793457,10.140513,95.817261,-129.455566,-1.082549,0.203247,-33.996582,11.309282,-34.205933,30.944824,-4.564907,148.29895,62.438965,-1.657354,0.192261,-46.508789,6.059399,-124.233398,24.108887,-10.250684,50.993042,337.402344,-4.334985,3.674927,-86.120605,5.369634,-104.957886,-122.070312,16.990269,0,7944,38919,46083,30723,0,0,60164,24326,2817,14338,0,0,0,0,0,0,0,6663,8454,33287,0,0,0,12546,20228,8713,0,0,0,39681,0,0,0,27906,0,659,18527,independent_20260430_211301,trial_001,subject_001,1777554784.903526,277576.5130007,2344070,1,0,0,1,0.0,0.0,0.0,146.83309928585774,612.1167822212024,821.4732468174595,61.28144793867845,396.3015994040297,878.6975415458357,121.84080877654418,391.6189499428583,873.8393074585667,-88.54108403464078,584.5920265204227,706.9270057089241,-76.67405079301369,668.3636619047426,421.2134663902268,-93.6615935397113,667.4064633963827,282.02236194642927,-57.240910834396914,715.2360285119473,70.19503756415159,4.423235249444176,647.5292382876959,37.86205424467061,-10.196137749938767,915.38249952701,82.24929149030908,261.1705535382162,491.1736232242269,681.1074146874437,220.92766770429424,408.1018952506061,388.8295024677061,236.455142834086,303.6710827662922,273.72453152731634,170.4278891588674,193.573211896811,91.6465910913388,106.80260240589853,124.73461675375027,75.20586783165018,172.1788567206142,378.7908314070481,47.43685103517439,60.81956691630504,39.18043308369497,69.79184735376795,30.20815264623205,81.07927871068017,49.71131159419377,47.63888241494327,51.78374077344428,99.42262318838756,99.42262318838756,0.6717595479698506,0.6717595479698506,24.71349571929501,1.4800328999990595,2
1777554784.918,12.419629629629624,22.491074074074064,28.114074,-2.60363,13.643925925925927,63.295704,-6.035222,88.621216,3.90625,1.331631,-0.736084,8.300781,9.354946,-40.457153,-14.221191,-0.752036,86.561279,55.175781,-0.153281,2.477417,-5.126953,9.570498,-35.557251,3.601074,-0.239502,98.85498,29.296875,-1.24062,3.548584,-95.64209,9.953701,-92.730103,9.094238,-3.381768,0.302124,4.272461,-0.756826,2.510376,3.662109,0.287402,-88.90686,0.793457,10.140513,92.114868,-121.21582,0.368833,-0.565796,-6.591797,10.835068,-34.733276,25.817871,-3.424878,148.29895,62.438965,-1.657354,0.192261,-46.508789,6.059399,-124.233398,24.108887,-10.250684,49.361572,-113.342285,9.216035,5.723877,-35.644531,-2.193838,-110.01709,-122.192383,17.871636,0,7944,38919,46083,30723,0,0,60164,24326,2817,14338,0,0,0,0,0,0,0,6663,8454,33287,0,0,0,12546,20228,8713,0,0,0,39681,0,0,0,27906,0,659,18527,independent_20260430_211301,trial_001,subject_001,1777554784.9140396,277576.5232391,2344071,1,0,0,1,0.0,0.0,0.0,145.28983499982894,614.6846273835912,821.0072131717429,59.315021665364085,399.1890188086284,878.7124294596175,119.88165465163016,394.1917677570516,873.642385654574,-89.46047672468049,587.8445113990455,706.9686167092075,-77.80410990271967,670.9595216487107,421.1565866848204,-95.45494621271882,669.09150878729,281.9919690864365,-58.57125035431247,711.2988231466213,69.57068549492428,3.71692608947009,641.6200107304877,39.0623566122131,-11.29013470542005,910.9067536478302,75.76717773496357,259.47198433838497,493.3989628373533,680.5499551905109,219.9425648776981,409.2039062194822,388.7480898794439,235.99370666459663,302.48540414549564,275.4866963341117,170.82166975301047,188.5746538268623,94.90087664624318,107.01869895071393,118.76548635503954,82.43773129170413,172.00392028301343,372.28859086462586,47.08803321657069,60.81956691630504,39.18043308369497,69.79184735376795,30.20815264623205,81.07927871068017,49.71131159419377,47.63888241494327,51.78374077344428,99.42262318838756,99.42262318838756,0.6717595479698506,0.6717595479698506,24.71349571929501,1.4800328999990595,2
1777554784.947,12.419629629629624,22.491074074074064,28.114074,-2.60363,13.643925925925927,63.295704,-6.035222,88.621216,3.90625,1.331631,-0.736084,8.300781,9.354946,-40.457153,-14.221191,-0.752036,86.561279,55.175781,-0.153281,2.477417,-5.126953,9.570498,-35.557251,3.601074,-0.239502,98.85498,29.296875,-1.24062,3.548584,-95.64209,9.953701,-92.730103,9.094238,-3.381768,0.302124,4.272461,-0.756826,2.510376,3.662109,0.287402,-88.90686,0.793457,10.140513,92.114868,-121.21582,0.368833,-0.565796,-6.591797,10.835068,-34.733276,25.817871,-3.424878,148.29895,62.438965,-1.657354,0.192261,-46.508789,6.059399,-124.233398,24.108887,-10.250684,49.361572,-113.342285,9.216035,5.723877,-35.644531,-2.193838,-110.01709,-122.192383,17.871636,0,7944,38919,46083,30723,0,0,60164,24326,2817,14338,0,0,0,0,0,0,0,6663,8454,33287,0,0,0,12546,20228,8713,0,0,0,39681,0,0,0,27906,0,659,18527,independent_20260430_211301,trial_001,subject_001,1777554784.9440422,277576.553237,2344074,1,0,0,1,0.0,0.0,0.0,140.0817880714614,622.7275045748676,821.7911223146147,54.44771003285253,407.0509948946583,879.9540227380179,115.00489167442052,401.9363422826522,874.1082002889635,-93.40319025518112,597.3028721131217,709.3944864866617,-80.43809925942179,679.5623260782608,421.9616592783989,-101.57099267536792,671.2542092258528,282.60890732319,-61.39447388361112,693.6516341899738,69.3611855066364,1.4461981938577928,622.5566875143327,40.16805985790623,-13.90313045589763,894.1948985019039,70.28624819841085,254.02097674331023,501.42488014096216,679.7714957207625,216.9462153602551,418.2291717578783,387.193250834908,234.9492362251736,302.96237536284804,282.1405863521166,172.6046850652599,176.8198320990916,107.433601894639,107.74396889808044,103.72920539341452,91.16887739809845,171.43768796766727,353.88231787567724,46.67916896945687,60.81956691630504,39.18043308369497,69.79184735376795,30.20815264623205,81.07927871068017,49.71131159419377,47.63888241494327,51.78374077344428,99.42262318838756,99.42262318838756,0.6717595479698506,0.6717595479698506,24.71349571929501,1.4800328999990595,2
1777554784.963,12.419629629629624,22.491074074074064,28.114074,-2.60363,13.643925925925927,63.295704,-6.035222,88.621216,3.90625,1.331631,-0.736084,8.300781,9.354946,-40.457153,-14.221191,-0.752036,86.561279,55.175781,-0.153281,2.477417,-5.126953,9.570498,-35.557251,3.601074,-0.239502,98.85498,29.296875,-1.24062,3.548584,-95.64209,9.953701,-92.730103,9.094238,-3.381768,0.302124,4.272461,-0.756826,2.510376,3.662109,0.287402,-88.90686,0.793457,10.140513,92.114868,-121.21582,0.368833,-0.565796,-6.591797,10.835068,-34.733276,25.817871,-3.424878,148.29895,62.438965,-1.657354,0.192261,-46.508789,6.059399,-124.233398,24.108887,-10.250684,49.361572,-113.342285,9.216035,5.723877,-35.644531,-2.193838,-110.01709,-122.192383,17.871636,0,7944,38919,46083,30723,0,0,60164,24326,2817,14338,0,0,0,0,0,0,0,6663,8454,33287,0,0,0,12546,20228,8713,0,0,0,39681,0,0,0,27906,0,659,18527,independent_20260430_211301,trial_001,subject_001,1777554784.9637103,277576.5732419,2344076,1,0,0,1,47.42168975674526,636.7258139114541,830.6083474477375,136.24230385388168,627.6770199513398,823.95250245841,50.968209375710586,411.4942555325225,881.3185068260736,111.71405312509152,406.4872647749531,875.0836997463133,-95.75332012554222,603.6626673109971,711.9747929253983,-81.80483521823756,682.2288403250694,422.3420003647517,-104.0826957298632,669.7204359341264,283.4074563821968,-62.925129171770855,681.7375344133072,69.5315551243307,0.0829588558367272,609.3226818293625,41.104779481165714,-15.39000774876638,881.400575995959,65.96721631151586,250.2900877350773,507.9813389209972,680.2802351872642,216.67989702591103,428.403299596196,386.3596086398889,234.73970271177623,307.18060457093105,287.78145238153303,173.27286436787534,172.49854946082263,119.01315542659108,108.5043454998896,97.45193433201146,101.4600287577431,171.27041835064233,343.2017079825048,46.18335609782682,60.81956691630504,39.18043308369497,69.79184735376795,30.20815264623205,81.07927871068017,49.71131159419377,47.63888241494327,51.78374077344428,99.42262318838756,99.42262318838756,0.6717595479698506,0.6717595479698506,24.71349571929501,1.4800328999990595,2
1777554784.973,12.611629629629633,22.491074074074064,27.247074,-3.66363,17.93992592592592,67.420704,-6.035222,88.813477,3.051758,0.876577,-0.142822,16.845703,10.106982,-39.973755,-17.39502,-1.025068,86.561279,55.175781,-0.153281,2.477417,-5.126953,9.570498,-35.557251,3.601074,-0.239502,99.563599,23.071289,3.832031,3.251953,38.269043,10.068662,-93.669434,-7.446289,-1.446592,0.384521,3.356934,-0.344883,2.548828,2.319336,0.229922,-88.895874,2.075195,10.274634,87.819214,-119.445801,1.537603,-1.296387,36.743164,10.964399,-34.035645,21.118164,-1.834585,148.721924,-21.42334,0.967588,1.829224,-77.636719,6.17436,-126.661377,38.391113,-5.489385,49.361572,-113.342285,9.216035,5.723877,-35.644531,-2.193838,-110.01709,-122.192383,17.871636,0,7944,38919,46083,30723,0,0,60164,24326,2817,14338,0,0,0,0,0,0,0,6663,8454,33287,0,0,0,12546,20228,8713,0,0,0,39681,0,0,0,27906,0,659,18527,independent_20260430_211301,trial_001,subject_001,1777554784.9737055,277576.5832319,2344077,1,0,0,1,45.63249205888433,638.9347634245415,832.0345214128938,134.3398767741293,629.8806166941226,825.3724099320922,48.90182435320303,413.72365346564607,882.1888242488752,110.02158801242928,408.6208786753217,875.8148595604171,-97.09894461273372,606.3139987462248,712.9032565658259,-82.58895012138937,682.2127672343996,422.3445895643288,-105.2827358005802,668.5409341385907,283.4189865302858,-63.44274220178454,675.6459617529075,69.75291023214541,-0.4222666876428786,602.4869155698822,41.90865213561485,-15.866424601301787,874.7643534701554,62.84954105318043,248.67755855219767,511.48599261365945,680.8000740960514,217.12924630151105,434.7504868517579,385.937542683258,234.8144138605058,310.4900199971167,290.9444418599523,173.39827150501176,171.5830198369556,125.36153065126176,108.91330168907668,95.74339788053376,113.68707606822166,171.18237851836025,338.37526267851723,45.51684199544347,60.81956691630504,39.18043308369497,69.79184735376795,30.20815264623205,81.07927871068017,49.71131159419377,47.63888241494327,51.78374077344428,99.42262318838756,99.42262318838756,0.6717595479698506,0.6717595479698506,24.71349571929501,1.4800328999990595,2
1777554784.98,12.611629629629633,19.68407407407408,27.247074,-4.34063,17.93992592592592,67.420704,-12.100222,88.813477,3.051758,0.876577,-0.142822,16.845703,10.106982,-39.973755,-17.39502,-1.025068,89.368286,55.908203,0.780776,2.669678,51.635742,9.872271,-33.898315,-8.789062,-0.225132,99.563599,23.071289,3.832031,3.251953,38.269043,10.068662,-93.669434,-7.446289,-1.446592,0.41748,3.112793,-0.320933,2.581787,2.197266,-0.02395,-88.862915,2.563477,10.135723,87.819214,-119.445801,1.537603,-1.296387,36.743164,10.964399,-34.035645,21.118164,-1.834585,148.721924,-21.42334,0.967588,1.829224,-77.636719,6.17436,-126.661377,38.391113,-5.489385,43.720093,-116.516113,2.50998,8.305664,15.686035,-1.719624,-110.78064,-25.817871,6.203101,0,7944,38919,46083,30723,0,0,60164,24326,2817,14338,0,0,0,0,0,0,0,6663,8454,33287,0,0,0,12546,20228,8713,0,0,0,39681,0,0,0,27906,0,659,18527,independent_20260430_211301,trial_001,subject_001,1777554784.9837043,277576.593082,2344078,1,0,0,1,43.83864935979219,641.108339083771,833.5502352201113,132.53471964817248,631.8122889558365,826.8881573676138,46.82916768590045,415.65938138511154,883.020630364591,107.76859151020771,410.4918945332,876.6362212114374,-98.540390136205,608.3146030245655,713.4743256561779,-83.32115268183485,681.6266173925012,422.1657663206069,-106.24896245238834,666.7561697268258,283.17387868253377,-63.69392817541024,668.9837929207499,69.82252165994996,-1.0087743183574376,595.768781922067,42.5169173627495,-16.290414404903867,868.1186528166348,60.20326408349361,246.6790256698,515.1462512713241,681.3626081425917,217.7647058285905,441.954036030158,385.4863941461219,235.0377718770281,314.6022890383866,294.1746922554646,173.71846438415523,171.56451633251413,132.53671365618243,109.14931885156496,95.48833181906406,126.94372067215158,171.3337589470346,334.2162589527891,44.4040620545982,60.81956691630504,39.18043308369497,69.79184735376795,30.20815264623205,81.07927871068017,49.71131159419377,47.63888241494327,51.78374077344428,99.42262318838756,99.42262318838756,0.6717595479698506,0.6717595479698506,24.71349571929501,1.4800328999990595,2
1777554784.993,12.397629629629634,19.68407407407408,25.637074,-4.32363,23.190925925925924,67.492704,-12.100222,88.599243,-9.338379,-0.747246,0.823975,23.925781,8.895103,-38.902588,-18.066406,-0.076641,89.368286,55.908203,0.780776,2.669678,51.635742,9.872271,-33.898315,-8.789062,-0.225132,100.761108,17.333984,-3.367397,3.757324,-5.554199,9.043594,-91.109619,-2.929688,-1.738784,0.43396,2.197266,-0.450264,2.60376,2.868652,0.086221,-88.840942,2.01416,9.944121,82.567749,-88.867188,1.403481,-1.873169,101.44043,8.320298,-30.300293,14.099121,-2.634521,144.497681,-125.488281,1.005908,1.994019,16.540527,4.512217,-128.468628,21.057129,-6.322852,43.720093,-116.516113,2.50998,8.305664,15.686035,-1.719624,-110.78064,-25.817871,6.203101,0,7944,38919,46083,30723,0,0,60164,24326,2817,14338,0,0,0,0,0,0,0,6663,8454,33287,0,0,0,12546,20228,8713,0,0,0,39681,0,0,0,27906,0,659,18527,independent_20260430_211301,trial_001,subject_001,1777554784.993706,277576.6033433,2344079,1,0,0,1,42.203235065950935,643.0699283557536,834.9638566693283,0.0,0.0,0.0,44.50260832781967,417.4457883730613,883.9946229723637,105.32442463526488,412.1031658599011,877.3602477430102,-100.28337406897889,609.5370482692882,713.813744198908,-83.77644644311225,680.5620625574678,421.75071400118,-106.82988216245182,664.0102839576729,282.9807529858179,-63.72279746108013,662.4878062467761,69.88561122339786,-0.9270854963447034,589.32974998223,43.00642687091533,-16.606297801944333,861.4150821657076,58.26404299772207,245.1974296855697,518.8008445770965,682.1979398382454,218.5658847190452,449.6425837671726,385.1514720539376,235.30165420542247,319.4100124751714,297.4664756287682,173.74813433594358,172.41480663951225,139.922591067387,109.34211339785914,96.3360041167581,141.3405655662084,171.49315707352005,330.3593940098337,43.02824442078703,60.81956691630504,39.18043308369497,69.79184735376795,30.20815264623205,81.07927871068017,49.71131159419377,47.63888241494327,51.78374077344428,99.42262318838756,99.42262318838756,0.6717595479698506,0.6717595479698506,24.71349571929501,1.4800328999990595,2
1777554785.001,12.397629629629634,19.68407407407408,25.637074,-4.32363,23.190925925925924,67.492704,-12.100222,88.599243,-9.338379,-0.747246,0.823975,23.925781,8.895103,-38.902588,-18.066406,-0.076641,89.368286,55.908203,0.780776,2.669678,51.635742,9.872271,-33.898315,-8.789062,-0.225132,100.761108,17.333984,-3.367397,3.757324,-5.554199,9.043594,-91.109619,-2.929688,-1.738784,0.43396,2.197266,-0.450264,2.60376,2.868652,0.086221,-88.840942,2.01416,9.944121,82.567749,-88.867188,1.403481,-1.873169,101.44043,8.320298,-30.300293,14.099121,-2.634521,144.497681,-125.488281,1.005908,1.994019,16.540527,4.512217,-128.468628,21.057129,-6.322852,43.720093,-116.516113,2.50998,8.305664,15.686035,-1.719624,-110.78064,-25.817871,6.203101,0,7944,38919,46083,30723,0,0,60164,24326,2817,14338,0,0,0,0,0,0,0,44802,0,57092,0,0,0,0,0,62981,0,0,0,0,0,0,0,0,0,659,18528,independent_20260430_211301,trial_001,subject_001,1777554785.004209,277576.6131237,2344080,1,0,0,1,40.62343860455273,644.7662265550963,836.3675685270406,128.54502285540138,636.2614740304006,830.0422223961126,42.04376756406394,419.11376269779817,884.9709933061985,102.94954815116203,413.39116043718246,878.0622609945231,-101.84665560228584,610.0333653996081,713.9029236645052,-84.37833121268504,678.800229628808,421.3891089174372,-107.25706623018588,660.4232775268897,282.74028054512127,-64.04132987647021,655.8591131404996,69.89659440133654,-1.6200358090894598,582.1362855524858,43.34651380291928,-16.91529486514851,854.744198034892,56.89337605784034,243.8053831418508,522.4239291357054,683.1008511903826,219.5763770419824,457.6975935095147,385.1531296130709,235.5697594439148,325.08042414776065,300.9801774931668,173.85210924000887,174.08151041608158,147.61182602657271,109.4457525754178,98.79023993031429,156.45544241732577,171.83447637092905,326.8864579995973,41.59765352232447,60.81956691630504,39.18043308369497,69.79184735376795,30.20815264623205,81.07927871068017,49.71131159419377,47.63888241494327,51.78374077344428,99.42262318838756,99.42262318838756,0.6717595479698506,0.6717595479698506,24.71349571929501,1.4800328999990595,2
1777554785.011,12.243629629629623,17.481074074074073,25.637074,-5.56963,23.190925925925924,67.079704,-12.644222,88.445435,-1.586914,-0.455054,1.428223,26.306152,8.416099,-38.040161,-15.075684,0.737666,91.571045,57.800293,-0.158071,2.988281,70.922852,9.287886,-31.569214,-6.713867,-0.335303,100.761108,17.333984,-3.367397,3.757324,-5.554199,9.043594,-91.109619,-2.929688,-1.738784,0.384521,-0.305176,-0.273032,2.598267,1.220703,0.095801,-88.824463,1.831055,10.303374,82.567749,-88.867188,1.403481,-1.873169,101.44043,8.320298,-30.300293,14.099121,-2.634521,138.834229,-183.532715,-0.071851,0.181274,70.739746,4.699028,-127.825928,15.014648,-6.16957,38.952026,-178.588867,2.754272,7.767334,-49.01123,-1.149609,-111.670532,1.831055,10.327324,0,7944,38919,46083,30723,0,0,60164,24326,2817,14338,0,0,0,0,0,0,0,0,0,49664,0,0,0,0,0,2819,0,0,0,0,0,0,0,0,0,659,18529,independent_20260430_211301,trial_001,subject_001,1777554785.014215,277576.6231211,2344081,1,0,0,1,39.10361517353715,646.3129310005071,837.6642185979662,126.8242518661184,637.1729647582583,831.6012469366543,39.67320662838298,420.4898807218873,885.9403298218158,100.51270836827278,414.5352306178535,878.907616042613,-103.53103005704492,610.1495690389909,713.9870133431292,-85.00304932139454,676.0570518135033,420.9811963294756,-107.34584988503526,655.6673890783184,282.5006856235952,-64.01755921763638,649.1468394078333,69.56175329656335,-1.877200010248668,575.3690751206339,43.56256589042809,-17.125614794583846,847.8503438437692,55.96695992552168,242.5494729347575,526.0590711018984,684.0830031267285,220.6122343699552,466.2405683235588,385.44723911581366,235.81125093174825,331.5018274318025,304.6202714680805,173.90570844301143,176.642616798463,155.6876952311986,109.10390191112744,102.74192303033952,171.77924689670832,172.1055904842841,323.77643273057515,40.56123499816774,60.81956691630504,39.18043308369497,69.79184735376795,30.20815264623205,81.07927871068017,49.71131159419377,47.63888241494327,51.78374077344428,99.42262318838756,99.42262318838756,0.6717595479698506,0.6717595479698506,24.71349571929501,1.4800328999990595,2
1777554785.022,12.243629629629623,17.481074074074073,25.637074,-5.56963,23.190925925925924,67.079704,-12.644222,88.445435,-1.586914,-0.455054,1.428223,26.306152,8.416099,-38.040161,-15.075684,0.737666,91.571045,57.800293,-0.158071,2.988281,70.922852,9.287886,-31.569214,-6.713867,-0.335303,100.761108,17.333984,-3.367397,3.757324,-5.554199,9.043594,-91.109619,-2.929688,-1.738784,0.384521,-0.305176,-0.273032,2.598267,1.220703,0.095801,-88.824463,1.831055,10.303374,82.567749,-88.867188,1.403481,-1.873169,101.44043,8.320298,-30.300293,14.099121,-2.634521,138.834229,-183.532715,-0.071851,0.181274,70.739746,4.699028,-127.825928,15.014648,-6.16957,38.952026,-178.588867,2.754272,7.767334,-49.01123,-1.149609,-111.670532,1.831055,10.327324,0,7944,38919,46083,30723,0,0,60164,24326,2817,14338,0,0,0,0,0,0,0,0,0,0,0,0,0,0,0,11264,0,0,0,0,0,0,0,0,0,659,18530,independent_20260430_211301,trial_001,subject_001,1777554785.0242152,277576.6332938,2344082,1,0,0,1,37.55448541856981,647.4913246418854,838.9447188931169,125.75734383034984,639.1177976429568,833.3534288146127,37.57881018082382,421.5080509096492,887.0280018021542,98.2116453756056,415.33990357815975,879.615248830754,-105.02393083268583,609.9760955697385,714.1920877212827,-85.9309794316093,672.5759825466762,420.5505875733591,-107.3539402895912,650.0826736022017,282.360333167073,-64.43250260067141,642.4032150275895,69.74939503829674,-2.163691627469166,568.5825287274673,43.562485340987095,-17.440926557559422,841.2047287459234,56.112753813656056,241.385605272416,529.5954047335237,685.136248665061,221.3356757035133,475.3237260876584,385.6539003570089,235.8882549061477,338.5300199818377,308.3702403298722,173.98739259533605,180.31913236037911,164.1540940165145,109.38317479449329,107.876456370518,186.70596046891623,172.4575702724625,320.84968818043325,39.52659758375462,60.81956691630504,39.18043308369497,69.79184735376795,30.20815264623205,81.07927871068017,49.71131159419377,47.63888241494327,51.78374077344428,99.42262318838756,99.42262318838756,0.6717595479698506,0.6717595479698506,24.71349571929501,1.4800328999990595,2
1777554785.046,12.243629629629623,17.481074074074073,25.637074,-5.56963,23.190925925925924,67.079704,-12.644222,88.445435,-1.586914,-0.455054,1.428223,26.306152,8.416099,-38.040161,-15.075684,0.737666,91.571045,57.800293,-0.158071,2.988281,70.922852,9.287886,-31.569214,-6.713867,-0.335303,100.761108,17.333984,-3.367397,3.757324,-5.554199,9.043594,-91.109619,-2.929688,-1.738784,0.384521,-0.305176,-0.273032,2.598267,1.220703,0.095801,-88.824463,1.831055,10.303374,82.567749,-88.867188,1.403481,-1.873169,101.44043,8.320298,-30.300293,14.099121,-2.634521,138.834229,-183.532715,-0.071851,0.181274,70.739746,4.699028,-127.825928,15.014648,-6.16957,38.952026,-178.588867,2.754272,7.767334,-49.01123,-1.149609,-111.670532,1.831055,10.327324,0,7944,38919,46083,30723,0,0,60164,24326,2817,14338,0,0,0,0,0,0,0,0,0,0,0,0,0,0,0,0,0,0,0,0,0,0,0,0,0,659,18531,independent_20260430_211301,trial_001,subject_001,1777554785.0443945,277576.6534001,2344084,1,0,0,1,34.531162675166925,648.9617863092643,841.0954710099178,122.6839756777148,640.134808420252,836.3221606059448,33.92559660336941,422.9263691379808,889.3059283164275,94.59515866254227,416.2667300299015,881.3085157203453,-107.76108037839234,608.875366168262,715.068957227314,-88.51708656286918,663.3817115937514,419.7439169176412,-107.82704202199842,636.975411095951,282.36410723864685,-64.62890058804733,628.6001904491941,69.53802276470871,-2.919227486023874,554.9170833898419,43.47067653827315,-18.058762166860152,827.6029082317135,56.77626231269459,239.39964517051607,535.8242487716747,687.3405165434459,222.64928326255983,494.632317713099,386.5578440043509,235.79370147101068,354.4350810123759,316.0714827588248,173.5523186927218,189.69373100993727,180.7480996803045,110.11458082722604,123.97866266228618,200.99360769357057,172.9068238559275,315.8901921152463,38.88482404504587,60.81956691630504,39.18043308369497,69.79184735376795,30.20815264623205,81.07927871068017,49.71131159419377,47.63888241494327,51.78374077344428,99.42262318838756,99.42262318838756,0.6717595479698506,0.6717595479698506,24.71349571929501,1.4800328999990595,2
1777554785.052,12.243629629629623,15.52507407407407,23.972074,-6.12463,25.99292592592592,63.498704,-12.644222,88.445435,-1.586914,-0.455054,1.428223,26.306152,8.416099,-38.040161,-15.075684,0.737666,93.526611,49.01123,-1.662144,2.982788,55.419922,9.489067,-29.355469,0.183105,-0.383203,101.299438,19.714355,-0.890947,3.883667,-21.972656,9.642349,-91.746826,1.403809,-1.106499,0.368042,1.403809,-0.402363,2.620239,1.77002,0.01437,-88.791504,2.441406,9.929751,79.766235,-67.504883,-0.828677,-1.356812,121.09375,7.984995,-26.114502,1.403809,-2.524351,132.451172,-223.632812,-2.682422,-1.021729,27.526855,5.451064,-126.804199,-2.990723,-7.242539,38.952026,-178.588867,2.754272,7.767334,-49.01123,-1.149609,-111.670532,1.831055,10.327324,0,7944,38919,46083,30723,0,0,60164,24326,2817,14338,0,0,0,0,0,0,0,0,0,0,0,0,0,0,0,0,0,0,0,0,0,0,0,0,0,659,18531,independent_20260430_211301,trial_001,subject_001,1777554785.0535536,277576.6634025,2344085,1,0,0,1,33.168193965105864,649.29880323078,842.1530966277826,121.30423529737904,640.3672755342935,837.6782802360354,32.335262625097265,423.2710000025474,890.4878079578644,93.07042144163802,416.50824059672846,882.3872579306122,-109.024236126212,608.3563519418517,715.6811810212394,-89.9304414776877,658.4385905316284,419.4945341478009,-108.58304048210616,630.3955102298854,282.5214287681469,-65.29338210183388,621.8293345439262,69.62281504461278,-3.2286018360673574,548.065233302033,43.39230860645793,-18.416453374532107,820.754050775423,57.24925207831606,238.61884720170565,538.4213439470675,688.5430599344174,223.2344899423201,504.5361271666043,387.6735697354927,235.70020697564843,363.2342716108285,319.8830598117682,173.38090396694963,196.0415694890449,188.8198899805407,110.61462134486312,135.5801164642512,213.78526100136065,173.32497553878082,313.5887568261368,38.887940375090494,60.81956691630504,39.18043308369497,69.79184735376795,30.20815264623205,81.07927871068017,49.71131159419377,47.63888241494327,51.78374077344428,99.42262318838756,99.42262318838756,0.6717595479698506,0.6717595479698506,24.71349571929501,1.4800328999990595,2
1777554785.061,12.243629629629623,15.52507407407407,23.972074,-6.12463,25.99292592592592,63.498704,-12.644222,88.445435,-1.586914,-0.455054,1.428223,26.306152,8.416099,-38.040161,-15.075684,0.737666,93.526611,49.01123,-1.662144,2.982788,55.419922,9.489067,-29.355469,0.183105,-0.383203,101.299438,19.714355,-0.890947,3.883667,-21.972656,9.642349,-91.746826,1.403809,-1.106499,0.368042,1.403809,-0.402363,2.620239,1.77002,0.01437,-88.791504,2.441406,9.929751,79.766235,-67.504883,-0.828677,-1.356812,121.09375,7.984995,-26.114502,1.403809,-2.524351,132.451172,-223.632812,-2.682422,-1.021729,27.526855,5.451064,-126.804199,-2.990723,-7.242539,38.952026,-178.588867,2.754272,7.767334,-49.01123,-1.149609,-111.670532,1.831055,10.327324,0,7944,38919,46083,30723,0,0,60164,24326,2817,14338,0,0,0,0,0,0,0,0,0,0,0,0,0,0,0,0,0,0,0,0,0,0,0,0,0,659,18531,independent_20260430_211301,trial_001,subject_001,1777554785.0635602,277576.6731558,2344086,1,0,0,1,31.900462273036645,649.4472129549036,843.2012816711313,120.021372902787,640.443950490461,839.104504388172,30.99780065957184,423.4126698814825,891.6519152442495,91.67979008604468,416.5182034814368,883.2405284620833,-109.92774990376476,607.3418098965872,716.3219005324572,-91.40151938900668,653.4794383613754,419.3075666031825,-109.53977179366784,623.9103981206498,282.5958335873109,-65.67982119958697,614.8829023966089,69.61746245682068,-3.673893599593701,541.1411062146041,43.23633581547208,-18.816205458429472,813.9272997250512,57.85185074361428,238.0654116463681,540.7423641393194,689.8146215752549,223.86344326399112,514.7160086092134,388.9730185061652,235.6549866874135,372.4404526922679,323.413539344548,172.9139239217668,203.01303954799167,195.7064449234262,110.97176808747446,149.68932004561077,225.12452384075016,173.87882864780858,311.34116248496895,39.44013562448404,60.81956691630504,39.18043308369497,69.79184735376795,30.20815264623205,81.07927871068017,49.71131159419377,47.63888241494327,51.78374077344428,99.42262318838756,99.42262318838756,0.6717595479698506,0.6717595479698506,24.71349571929501,1.4800328999990595,2
1777554785.071,12.441629629629633,13.883074074074074,23.972074,-6.22863,28.00892592592592,63.498704,-14.412222,88.643188,6.835938,-1.22625,1.884155,23.681641,8.799302,-37.293091,-12.878418,0.483794,95.169067,41.320801,-1.312471,2.774048,26.367188,9.75731,-28.042603,4.943848,-0.502954,101.299438,19.714355,-0.890947,3.883667,-21.972656,9.642349,-91.746826,1.403809,-1.106499,0.263672,-1.77002,-0.411943,2.642212,2.13623,0.081431,-88.747559,2.380371,10.035132,77.750244,-47.729492,-1.561553,-0.889893,61.157227,7.32397,-23.098755,7.446289,-1.523232,132.451172,-223.632812,-2.682422,-1.021729,27.526855,5.451064,-126.804199,-2.990723,-7.242539,25.136719,-200.927734,-2.49082,2.493896,-84.350586,1.997446,-112.18689,29.23584,10.878179,0,7944,38919,46083,30723,0,0,60164,24326,2817,14338,0,0,0,0,0,0,0,0,0,0,0,0,0,0,0,0,0,0,0,0,0,0,0,0,0,659,18531,independent_20260430_211301,trial_001,subject_001,1777554785.0735605,277576.6833399,2344087,1,0,0,1,30.647984287825057,649.3109556397164,844.2876486064257,118.80605459106124,640.4940096381085,840.541623299427,29.96796577694964,423.1562446997684,892.8015703740454,90.59808040337457,416.3619452769715,884.2313466958063,-111.00986406801006,606.1383829629627,716.7379224147373,-92.74878686730705,648.7367202391526,419.0873459538979,-110.75885006663556,618.1393503413603,282.5456854171469,-66.1479947134067,608.0759494427022,69.63609338148514,-4.161669868809224,534.2450969873843,43.19558692584312,-19.301614710273288,807.1315304894263,57.92663298623582,237.56301094273704,542.9706366589909,691.1618526971404,224.5239036136372,524.8635746900741,390.4689372012012,235.67478088407387,381.946020749358,326.71208735422016,172.09073292939692,210.6983837919728,201.79848975414663,110.5314925545623,164.33635315635388,235.0249481976905,174.71352499682783,309.49998710596384,40.52429945470688,60.81956691630504,39.18043308369497,69.79184735376795,30.20815264623205,81.07927871068017,49.71131159419377,47.63888241494327,51.78374077344428,99.42262318838756,99.42262318838756,0.6717595479698506,0.6717595479698506,24.71349571929501,1.4800328999990595,2
1777554785.078,12.441629629629633,13.883074074074074,23.972074,-6.22863,28.00892592592592,63.498704,-14.412222,88.643188,6.835938,-1.22625,1.884155,23.681641,8.799302,-37.293091,-12.878418,0.483794,95.169067,41.320801,-1.312471,2.774048,26.367188,9.75731,-28.042603,4.943848,-0.502954,101.299438,19.714355,-0.890947,3.883667,-21.972656,9.642349,-91.746826,1.403809,-1.106499,0.263672,-1.77002,-0.411943,2.642212,2.13623,0.081431,-88.747559,2.380371,10.035132,77.750244,-47.729492,-1.561553,-0.889893,61.157227,7.32397,-23.098755,7.446289,-1.523232,132.451172,-223.632812,-2.682422,-1.021729,27.526855,5.451064,-126.804199,-2.990723,-7.242539,25.136719,-200.927734,-2.49082,2.493896,-84.350586,1.997446,-112.18689,29.23584,10.878179,0,7944,38919,46083,30723,0,0,60164,24326,2817,14338,0,0,0,0,0,0,0,0,0,0,0,0,0,0,0,0,0,0,0,0,0,0,0,0,0,659,18531,independent_20260430_211301,trial_001,subject_001,1777554785.0735605,277576.6833399,2344087,1,0,0,1,30.647984287825057,649.3109556397164,844.2876486064257,118.80605459106124,640.4940096381085,840.541623299427,29.96796577694964,423.1562446997684,892.8015703740454,90.59808040337457,416.3619452769715,884.2313466958063,-111.00986406801006,606.1383829629627,716.7379224147373,-92.74878686730705,648.7367202391526,419.0873459538979,-110.75885006663556,618.1393503413603,282.5456854171469,-66.1479947134067,608.0759494427022,69.63609338148514,-4.161669868809224,534.2450969873843,43.20660788077146,-19.301614710273288,807.1315304894263,57.92992534965997,237.56301094273704,542.9706366589909,691.1618526971404,224.5239036136372,524.8635746900741,390.4689372012012,235.67478088407387,381.946020749358,326.71208735422016,172.09073292939692,210.6983837919728,201.79848975414663,110.5314925545623,164.33635315635388,242.97700020686108,174.71352499682783,309.49998710596384,42.07547567764637,60.81956691630504,39.18043308369497,69.79184735376795,30.20815264623205,81.07927871068017,49.71131159419377,47.63888241494327,51.78374077344428,99.42262318838756,99.42262318838756,0.6717595479698506,0.6717595479698506,24.71349571929501,1.4800328999990595,2
1777554785.091,12.721629629629632,13.883074074074074,22.594074,-6.22863,29.029925925925923,56.950704,-14.412222,88.92334,3.356934,-1.063389,2.329102,17.883301,9.158555,-36.254883,-5.004883,0.905317,95.169067,41.320801,-1.312471,2.774048,26.367188,9.75731,-28.042603,4.943848,-0.502954,103.518677,28.991699,-1.312471,3.66394,-4.516602,9.393267,-90.708618,3.967285,-1.446592,0.263672,-1.77002,-0.411943,2.642212,2.13623,0.081431,-88.747559,2.380371,10.035132,76.728516,-24.047852,-0.881367,-1.032715,14.892578,7.242539,-22.197876,14.709473,-0.469424,123.887329,-259.277344,-0.04311,-0.576782,-33.081055,6.658154,-127.369995,0.549316,-8.004155,25.136719,-200.927734,-2.49082,2.493896,-84.350586,1.997446,-112.18689,29.23584,10.878179,0,7944,38919,46083,30723,0,0,60164,24326,2817,14338,0,0,0,0,0,0,0,0,0,0,0,0,0,0,0,0,0,0,0,0,0,0,0,0,0,659,18531,independent_20260430_211301,trial_001,subject_001,1777554785.0941997,277576.703056,2344089,1,0,0,1,28.246308206744413,648.6043367812185,846.0866770602877,116.43835087407994,640.2147239464433,843.4851490193092,27.839341101623983,422.36355556292375,894.8514223829709,88.60906845588008,415.676902737078,886.0258334178278,-113.0676678084433,602.6830583629641,717.4016167500566,-94.87049912302264,639.9264272883245,418.4464049681648,-113.41075738233984,608.3132948691134,281.9440122025345,-67.04069387357357,594.3515507241082,69.62460482134182,-4.729547290911948,520.412656748876,43.21887941418195,-20.124448712046,793.3310795712653,57.941263686240056,236.80585842920485,547.5851933215542,694.5235447751469,225.9867178649043,544.5372487611975,394.1973937268849,236.34194881935665,400.73053252936506,332.8168257373756,169.9588072905434,226.93530845476928,212.07484725137127,104.2162392831184,185.0689289517016,249.0745418777143,179.38620856287844,318.59166175605674,44.0265623996623,60.81956691630504,39.18043308369497,69.79184735376795,30.20815264623205,81.07927871068017,49.71131159419377,47.63888241494327,51.78374077344428,99.42262318838756,99.42262318838756,0.6717595479698506,0.6717595479698506,24.71349571929501,1.4800328999990595,2
1777554785.103,12.721629629629632,13.883074074074074,22.594074,-6.22863,29.029925925925923,56.950704,-14.412222,88.92334,3.356934,-1.063389,2.329102,17.883301,9.158555,-36.254883,-5.004883,0.905317,95.169067,41.320801,-1.312471,2.774048,26.367188,9.75731,-28.042603,4.943848,-0.502954,103.518677,28.991699,-1.312471,3.66394,-4.516602,9.393267,-90.708618,3.967285,-1.446592,0.263672,-1.77002,-0.411943,2.642212,2.13623,0.081431,-88.747559,2.380371,10.035132,76.728516,-24.047852,-0.881367,-1.032715,14.892578,7.242539,-22.197876,14.709473,-0.469424,123.887329,-259.277344,-0.04311,-0.576782,-33.081055,6.658154,-127.369995,0.549316,-8.004155,25.136719,-200.927734,-2.49082,2.493896,-84.350586,1.997446,-112.18689,29.23584,10.878179,0,7944,38919,46083,30723,0,0,60164,24326,2817,14338,0,0,0,0,0,0,0,0,0,0,0,0,0,0,0,0,0,0,0,0,0,0,0,0,0,659,18532,independent_20260430_211301,trial_001,subject_001,1777554785.1039605,277576.7130459,2344090,1,0,0,1,26.98250451486487,647.8226199000848,846.9155116576342,115.22422838690194,639.8266272489769,844.9075053077715,27.053033127115707,421.7734731878664,895.8043091757295,87.82680631314614,415.18879663251226,887.1095436169572,-114.00890956411656,600.5043347001746,717.6280478401868,-95.73071760931798,635.5712814060537,418.1947203671909,-114.624920267853,603.6475681319769,281.5599686716204,-67.53244525794301,587.4388340037725,69.71525265096517,-5.042345781049343,513.3823831454125,43.23880709207284,-20.46234816663332,786.33594848156,57.959695742299445,236.64908110159857,549.9666119840851,696.4623009216508,226.5023051122606,553.9456689755002,396.3778868500879,236.2967320193609,409.6998812467688,335.78243918286586,168.51125970509477,235.4474855747028,215.5303552895093,100.5273295979654,193.33846162890984,253.7779541054154,182.4234676901312,329.3375161292395,46.33849016210277,60.81956691630504,39.18043308369497,69.79184735376795,30.20815264623205,81.07927871068017,49.71131159419377,47.63888241494327,51.78374077344428,99.42262318838756,99.42262318838756,0.6717595479698506,0.6717595479698506,24.71349571929501,1.4800328999990595,2
1777554785.111,12.721629629629632,13.883074074074074,22.594074,-6.22863,29.029925925925923,56.950704,-14.412222,88.92334,3.356934,-1.063389,2.329102,17.883301,9.158555,-36.254883,-5.004883,0.905317,95.169067,41.320801,-1.312471,2.774048,26.367188,9.75731,-28.042603,4.943848,-0.502954,103.518677,28.991699,-1.312471,3.66394,-4.516602,9.393267,-90.708618,3.967285,-1.446592,0.263672,-1.77002,-0.411943,2.642212,2.13623,0.081431,-88.747559,2.380371,10.035132,76.728516,-24.047852,-0.881367,-1.032715,14.892578,7.242539,-22.197876,14.709473,-0.469424,123.887329,-259.277344,-0.04311,-0.576782,-33.081055,6.658154,-127.369995,0.549316,-8.004155,25.136719,-200.927734,-2.49082,2.493896,-84.350586,1.997446,-112.18689,29.23584,10.878179,0,7944,38919,46083,30723,0,0,60164,24326,2817,14338,0,0,0,0,0,0,0,0,0,0,0,0,0,0,0,0,0,0,0,0,0,0,0,0,0,659,18532,independent_20260430_211301,trial_001,subject_001,1777554785.114324,277576.7234405,2344091,1,0,0,1,25.678834174068985,647.01897011823,847.8004977787982,113.97311955305678,639.322362561669,846.3627120177133,26.256886879424023,420.92288407993306,896.7031608114951,87.12202321831086,414.5685130602361,888.0924148259694,-114.8547526249777,598.2281674571105,717.7988694941511,-96.53233581874116,631.2146487768794,418.0278840464777,-115.6894491025955,598.9711498546347,281.24901410354295,-68.19590169486371,580.6156034847209,69.83031645457731,-5.493104902958934,506.4703943244001,43.29563327563498,-20.961634966492703,779.3318212691161,57.9911025717122,235.9919889799672,552.947951227032,698.0508913175455,227.0280071810988,562.9206244094129,398.8888274007344,235.92364168810684,418.4191509924121,338.88535539412123,167.39901594270287,245.19530069022244,218.4537003756204,97.1404995361216,202.0977540049436,255.47138787166944,184.8393130841361,342.1247801080939,48.85241216432097,60.81956691630504,39.18043308369497,69.79184735376795,30.20815264623205,81.07927871068017,49.71131159419377,47.63888241494327,51.78374077344428,99.42262318838756,99.42262318838756,0.6717595479698506,0.6717595479698506,24.71349571929501,1.4800328999990595,2
1777554785.117,12.721629629629632,11.724074074074068,22.594074,-8.65263,29.30492592592593,56.950704,-19.252222,88.92334,3.356934,-1.063389,2.329102,17.883301,9.158555,-36.254883,-5.004883,0.905317,97.327881,41.503906,-0.067061,2.521362,11.474609,9.608818,-27.284546,3.295898,-0.306563,103.518677,28.991699,-1.312471,3.66394,-4.516602,9.393267,-90.708618,3.967285,-1.446592,0.060425,-2.319336,-0.402363,2.675171,2.13623,-0.067061,-88.720093,1.525879,10.221943,76.453857,-8.361816,-1.22146,-1.323853,4.638672,7.122788,-21.989136,17.944336,0.100591,123.887329,-259.277344,-0.04311,-0.576782,-33.081055,6.658154,-127.369995,0.549316,-8.004155,11.733398,-198.791504,2.735112,-2.427979,-75.683594,7.084468,-112.884521,21.30127,13.924644,0,7944,38919,46083,30723,0,0,60164,24326,2817,14338,0,0,0,0,0,0,0,0,0,0,0,0,0,0,0,0,0,0,0,0,0,0,0,0,0,659,18532,independent_20260430_211301,trial_001,subject_001,1777554785.114324,277576.7234405,2344091,1,0,0,1,25.678834174068985,647.01897011823,847.8004977787982,113.97311955305678,639.322362561669,846.3627120177133,26.256886879424023,420.92288407993306,896.7031608114951,87.12202321831086,414.5685130602361,888.0924148259694,-114.8547526249777,598.2281674571105,717.7988694941511,-96.53233581874116,631.2146487768794,418.0278840464777,-115.6894491025955,598.9711498546347,281.24901410354295,-68.19590169486371,580.6156034847209,69.83031645457731,-5.493104902958934,506.4703943244001,43.34857828848541,-20.961634966492703,779.3318212691161,58.0260431765156,235.9919889799672,552.947951227032,698.0508913175455,227.0280071810988,562.9206244094129,398.8888274007344,235.92364168810684,418.4191509924121,338.88535539412123,167.39901594270287,245.19530069022244,218.4537003756204,97.1404995361216,202.0977540049436,255.09650774396025,184.8393130841361,342.1247801080939,51.51541962515336,60.81956691630504,39.18043308369497,69.79184735376795,30.20815264623205,81.07927871068017,49.71131159419377,47.63888241494327,51.78374077344428,99.42262318838756,99.42262318838756,0.6717595479698506,0.6717595479698506,24.71349571929501,1.4800328999990595,2
1777554785.131,12.721629629629632,11.724074074074068,22.594074,-8.65263,29.30492592592593,56.950704,-19.252222,88.92334,3.356934,-1.063389,2.329102,17.883301,9.158555,-36.254883,-5.004883,0.905317,97.327881,41.503906,-0.067061,2.521362,11.474609,9.608818,-27.284546,3.295898,-0.306563,103.518677,28.991699,-1.312471,3.66394,-4.516602,9.393267,-90.708618,3.967285,-1.446592,0.060425,-2.319336,-0.402363,2.675171,2.13623,-0.067061,-88.720093,1.525879,10.221943,76.453857,-8.361816,-1.22146,-1.323853,4.638672,7.122788,-21.989136,17.944336,0.100591,123.887329,-259.277344,-0.04311,-0.576782,-33.081055,6.658154,-127.369995,0.549316,-8.004155,11.733398,-198.791504,2.735112,-2.427979,-75.683594,7.084468,-112.884521,21.30127,13.924644,0,7944,38919,46083,30723,0,0,60164,24326,2817,14338,0,0,0,0,0,0,0,0,0,0,0,0,0,0,0,0,0,0,0,0,0,0,0,0,0,659,18532,independent_20260430_211301,trial_001,subject_001,1777554785.1335227,277576.743142,2344093,1,0,0,1,23.43545225778212,646.5220961218067,848.9660763040409,111.37712811940216,637.9569140838717,849.1247628699023,25.05089605402864,418.97743604034207,898.4052457197408,86.07349316027367,412.9826193623485,889.9820898502987,-116.52218793148216,593.506411804701,718.1054696190446,-97.83343909297275,621.088469871199,417.528723255159,-117.41883825234174,587.9090899254368,281.0623320869796,-69.01220642999147,566.7125904053075,69.91952968058565,-6.211257120517752,492.33219080702,43.41498802778264,-21.59339203002654,765.3613261369873,58.052100353067935,236.1519046353088,557.1189375116977,702.2956788066608,227.604325186352,580.3781221537585,404.8044485236799,234.03006734913885,436.2195852418927,344.04981711537204,166.01348273362555,266.0928286615632,220.2104649801857,92.77666167728168,221.6371639904112,253.30176936326023,187.65682663198035,371.36494768323234,54.27690638153941,60.81956691630504,39.18043308369497,69.79184735376795,30.20815264623205,81.07927871068017,49.71131159419377,47.63888241494327,51.78374077344428,99.42262318838756,99.42262318838756,0.6717595479698506,0.6717595479698506,24.71349571929501,1.4800328999990595,2
1777554785.151,12.721629629629632,11.724074074074068,22.594074,-8.65263,29.30492592592593,56.950704,-19.252222,88.92334,3.356934,-1.063389,2.329102,17.883301,9.158555,-36.254883,-5.004883,0.905317,97.327881,41.503906,-0.067061,2.521362,11.474609,9.608818,-27.284546,3.295898,-0.306563,103.518677,28.991699,-1.312471,3.66394,-4.516602,9.393267,-90.708618,3.967285,-1.446592,0.060425,-2.319336,-0.402363,2.675171,2.13623,-0.067061,-88.720093,1.525879,10.221943,76.453857,-8.361816,-1.22146,-1.323853,4.638672,7.122788,-21.989136,17.944336,0.100591,123.887329,-259.277344,-0.04311,-0.576782,-33.081055,6.658154,-127.369995,0.549316,-8.004155,11.733398,-198.791504,2.735112,-2.427979,-75.683594,7.084468,-112.884521,21.30127,13.924644,0,7944,38919,46083,30723,0,0,60164,24326,2817,14338,0,0,0,0,0,0,0,0,0,0,0,0,0,0,0,0,0,0,0,0,0,0,0,0,0,659,18532,independent_20260430_211301,trial_001,subject_001,1777554785.153828,277576.7631195,2344095,1,0,0,1,20.494237454276988,642.7082492029025,851.0386473376906,108.91183541216164,636.3593472153209,851.9222158558915,24.34127765936095,416.56671992909446,900.0547698516311,85.36289039034415,411.0735478158147,891.7978326644934,-117.99490266671909,588.5317317641867,718.4878184396015,-99.58200987354596,609.2285702632408,417.3369745216199,-118.50913016468512,574.318274163729,281.162353393586,-69.57242265932014,552.6129005920815,70.02369731675337,-5.684953223812888,478.8594841993087,43.41112978463202,-22.19300364975184,751.1938298402506,58.092782116736345,236.2174086138588,561.8337912677954,707.2689588547007,227.67116705334524,597.7373667196925,410.7654506258055,232.15456241565727,455.00185455339135,346.17682545127377,163.84905424725528,289.65826258820204,216.8710838593837,90.8712288810342,242.1732050422555,249.159030637492,188.6158447912219,403.573084479154,56.94158915870668,60.81956691630504,39.18043308369497,69.79184735376795,30.20815264623205,81.07927871068017,49.71131159419377,47.63888241494327,51.78374077344428,99.42262318838756,99.42262318838756,0.6717595479698506,0.6717595479698506,24.71349571929501,1.4800328999990595,0
1777554785.158,12.721629629629632,11.724074074074068,22.594074,-8.65263,29.30492592592593,56.950704,-19.252222,88.92334,3.356934,-1.063389,2.329102,17.883301,9.158555,-36.254883,-5.004883,0.905317,97.327881,41.503906,-0.067061,2.521362,11.474609,9.608818,-27.284546,3.295898,-0.306563,103.518677,28.991699,-1.312471,3.66394,-4.516602,9.393267,-90.708618,3.967285,-1.446592,0.060425,-2.319336,-0.402363,2.675171,2.13623,-0.067061,-88.720093,1.525879,10.221943,76.453857,-8.361816,-1.22146,-1.323853,4.638672,7.122788,-21.989136,17.944336,0.100591,123.887329,-259.277344,-0.04311,-0.576782,-33.081055,6.658154,-127.369995,0.549316,-8.004155,11.733398,-198.791504,2.735112,-2.427979,-75.683594,7.084468,-112.884521,21.30127,13.924644,0,7944,38919,46083,30723,0,0,60164,24326,2817,14338,0,0,0,0,0,0,0,0,0,0,0,0,0,0,0,0,0,0,0,0,0,0,0,0,0,659,18532,independent_20260430_211301,trial_001,subject_001,1777554785.153828,277576.7631195,2344095,1,0,0,1,20.494237454276988,642.7082492029025,851.0386473376906,108.91183541216164,636.3593472153209,851.9222158558915,24.34127765936095,416.56671992909446,900.0547698516311,85.36289039034415,411.0735478158147,891.7978326644934,-117.99490266671909,588.5317317641867,718.4878184396015,-99.58200987354596,609.2285702632408,417.3369745216199,-118.50913016468512,574.318274163729,281.162353393586,-69.57242265932014,552.6129005920815,70.02369731675337,-5.684953223812888,478.8594841993087,43.49608354655842,-22.19300364975184,751.1938298402506,58.13863301103011,236.2174086138588,561.8337912677954,707.2689588547007,227.67116705334524,597.7373667196925,410.7654506258055,232.15456241565727,455.00185455339135,346.17682545127377,163.84905424725528,289.65826258820204,216.8710838593837,90.8712288810342,242.1732050422555,244.0975571192652,188.6158447912219,403.573084479154,59.2830178450601,60.81956691630504,39.18043308369497,69.79184735376795,30.20815264623205,81.07927871068017,49.71131159419377,47.63888241494327,51.78374077344428,99.42262318838756,99.42262318838756,0.6717595479698506,0.6717595479698506,24.71349571929501,1.4800328999990595,0
1777554785.172,12.721629629629632,11.109074074074073,21.391074,-8.67963,29.23392592592592,56.950704,-23.207222,88.92334,3.356934,-1.063389,2.329102,17.883301,9.158555,-36.254883,-5.004883,0.905317,97.943115,39.306641,0.04311,2.460938,10.620117,9.704619,-27.130737,3.295898,-0.201182,105.089722,33.691406,-0.536484,3.565063,-3.234863,9.556128,-91.170044,3.967285,-1.949546,0.032959,-0.305176,-0.402363,2.69165,2.441406,-0.234712,-88.7146,1.647949,9.84353,76.525269,3.417969,-0.804727,-1.63147,10.986328,8.334668,-21.588135,0.244141,1.398691,123.887329,-259.277344,-0.04311,-0.576782,-33.081055,6.658154,-127.369995,0.549316,-8.004155,7.77832,-194.091797,5.479805,-4.152832,-80.566406,8.018525,-112.197876,61.157227,15.524517,0,7944,38919,46083,30723,0,0,60164,24326,2817,14338,0,0,0,0,0,0,0,0,0,0,0,0,0,0,0,0,0,0,0,0,0,0,0,0,0,659,18532,independent_20260430_211301,trial_001,subject_001,1777554785.173982,277576.7831953,2344097,1,0,0,1,18.381072090961048,640.5770790377063,852.5981533747745,106.64676944346635,634.6142544112156,854.7591624932058,24.007336698873708,414.01392414894207,901.7588801207762,85.34427506369695,408.9446093036645,893.7863839999811,-119.23038677696576,580.9898224000177,718.6436649060539,-101.51619267768852,596.3703052313812,417.3081841232036,-119.45352741170376,559.5621310967807,281.65943073147315,-69.88755443293412,538.3558123616265,70.10055964768677,-7.231406210646898,464.1610280734213,43.58540256350886,-22.9241841081434,736.9752988731195,58.19076559231941,236.3846769701291,566.5531823372819,712.4862665791326,227.17615046033328,614.1396204715555,416.3598085720517,231.68632009558488,474.239691833877,345.4494325135962,162.35510525580798,314.9618378796132,209.4674546126295,89.58153072521193,265.13308096831986,238.22329313321288,189.35126142144287,438.585293767483,61.2156177508327,60.81956691630504,39.18043308369497,69.79184735376795,30.20815264623205,81.07927871068017,49.71131159419377,47.63888241494327,51.78374077344428,99.42262318838756,99.42262318838756,0.6717595479698506,0.6717595479698506,24.71349571929501,1.4800328999990595,0
1777554785.179,12.963629629629636,9.565074074074076,21.391074,-10.20663,29.23392592592592,32.319704,-26.217222,89.165039,-1.586914,-0.943638,2.191772,11.901855,9.489067,-35.249634,8.666992,1.437012,99.486694,45.593262,0.067061,2.329102,24.291992,9.613608,-26.488037,0.0,-0.613125,105.089722,33.691406,-0.536484,3.565063,-3.234863,9.556128,-91.170044,3.967285,-1.949546,0.076904,2.990723,-0.440684,2.763062,2.258301,-0.138911,-88.681641,2.075195,10.217153,76.525269,3.417969,-0.804727,-1.63147,10.986328,8.334668,-21.588135,0.244141,1.398691,98.031006,-233.886719,0.210762,-0.785522,44.494629,9.570498,-125.491333,-6.347656,-5.283413,4.768066,-193.54248,5.685776,-5.498657,-79.833984,8.286768,-111.005859,95.153809,15.725698,0,7944,38919,46083,30723,0,0,60164,24326,2817,14338,0,0,0,0,0,0,0,0,0,0,0,0,0,0,0,0,0,0,0,0,0,0,0,0,0,659,18533,independent_20260430_211301,trial_001,subject_001,1777554785.1839895,277576.7930064,2344098,1,0,0,1,17.2648187049501,639.1524427928779,853.3619087399505,105.5521486878702,633.7274714373239,856.0994219501971,24.06072253136453,412.64781306436754,902.450770504744,85.36326449149324,407.7967375277228,894.5433928414263,-119.88959835725927,577.6374192885623,718.65802966218,-102.396700187889,589.6847043025721,417.3325304535167,-119.99273137435031,552.069089707098,281.89794145281667,-70.0616228797286,530.9920561067747,70.11412241717755,-6.986376743261797,457.27421421327966,43.68182185260344,-23.229545065481897,729.804572178957,58.24786624611453,236.41062039295832,568.7965646964495,714.9200637864392,226.77914805763288,621.8907135681541,419.1384761878804,231.34184311681045,483.8780106330762,344.53968371193827,161.8768248110436,328.4016959156807,204.29738356717525,89.09324128051867,277.37744123355634,230.78512295998163,190.0612814160196,457.5673992356529,62.48528206085009,60.81956691630504,39.18043308369497,69.79184735376795,30.20815264623205,81.07927871068017,49.71131159419377,47.63888241494327,51.78374077344428,99.42262318838756,99.42262318838756,0.6717595479698506,0.6717595479698506,24.71349571929501,1.4800328999990595,0
1777554785.188,12.963629629629636,9.565074074074076,21.391074,-10.20663,29.23392592592592,32.319704,-26.217222,89.165039,-1.586914,-0.943638,2.191772,11.901855,9.489067,-35.249634,8.666992,1.437012,99.486694,45.593262,0.067061,2.329102,24.291992,9.613608,-26.488037,0.0,-0.613125,105.089722,33.691406,-0.536484,3.565063,-3.234863,9.556128,-91.170044,3.967285,-1.949546,0.076904,2.990723,-0.440684,2.763062,2.258301,-0.138911,-88.681641,2.075195,10.217153,76.525269,3.417969,-0.804727,-1.63147,10.986328,8.334668,-21.588135,0.244141,1.398691,98.031006,-233.886719,0.210762,-0.785522,44.494629,9.570498,-125.491333,-6.347656,-5.283413,4.768066,-193.54248,5.685776,-5.498657,-79.833984,8.286768,-111.005859,95.153809,15.725698,0,7944,38919,46083,30723,0,0,60164,24326,2817,14338,0,0,0,0,0,0,0,0,0,0,0,0,0,0,0,0,0,0,0,0,0,0,0,0,0,659,18533,independent_20260430_211301,trial_001,subject_001,1777554785.1839895,277576.7930064,2344098,1,0,0,1,17.2648187049501,639.1524427928779,853.3619087399505,105.5521486878702,633.7274714373239,856.0994219501971,24.06072253136453,412.64781306436754,902.450770504744,85.36326449149324,407.7967375277228,894.5433928414263,-119.88959835725927,577.6374192885623,718.65802966218,-102.396700187889,589.6847043025721,417.3325304535167,-119.99273137435031,552.069089707098,281.89794145281667,-70.0616228797286,530.9920561067747,70.11412241717755,-6.986376743261797,457.27421421327966,43.79158050625155,-23.229545065481897,729.804572178957,58.298706051013504,236.41062039295832,568.7965646964495,714.9200637864392,226.77914805763288,621.8907135681541,419.1384761878804,231.34184311681045,483.8780106330762,344.53968371193827,161.8768248110436,328.4016959156807,204.29738356717525,89.09324128051867,277.37744123355634,221.4647081859778,190.0612814160196,457.5673992356529,63.00354657494052,60.81956691630504,39.18043308369497,69.79184735376795,30.20815264623205,81.07927871068017,49.71131159419377,47.63888241494327,51.78374077344428,99.42262318838756,99.42262318838756,0.6717595479698506,0.6717595479698506,24.71349571929501,1.4800328999990595,0
1777554785.199,12.963629629629636,7.676074074074066,21.187074,-11.40363,29.34392592592592,32.319704,-7.914222,89.165039,-1.586914,-0.943638,2.191772,11.901855,9.489067,-35.249634,8.666992,1.437012,101.376343,57.250977,0.364043,2.136841,32.836914,9.024434,-25.43335,2.197266,-1.556763,106.430054,37.719727,-0.201182,3.493652,2.685547,9.445957,-91.203003,0.915527,-2.850073,0.219727,6.591797,-0.354463,2.867432,4.760742,-0.138911,-88.654175,1.953125,9.891431,76.415405,-4.394531,0.546064,-1.213989,26.550293,8.794512,-20.939941,-9.94873,3.324287,98.031006,-233.886719,0.210762,-0.785522,44.494629,9.570498,-125.491333,-6.347656,-5.283413,-2.785034,-212.219238,0.311353,-8.113403,-72.021484,8.267607,-106.809082,126.647949,17.20103,0,7944,38919,46083,30723,0,0,60164,24326,2817,14338,0,0,0,0,0,0,0,0,0,0,0,0,0,0,0,0,0,0,0,0,0,0,0,0,0,659,18533,independent_20260430_211301,trial_001,subject_001,1777554785.1939907,277576.8033029,2344099,1,0,0,1,16.166242738643717,637.6909126372806,854.0512009253737,104.50519866780186,632.8054007392722,857.3578065359076,24.11392283627078,411.2710190242017,903.106737807529,85.44357380227169,406.7214057720556,895.4673714826562,-120.25732231029764,574.8460445603732,718.668364547219,-103.38503040255588,583.2267410286455,417.30543516696673,-120.62171316520748,544.980477995122,282.04028180899047,-70.29391320601563,523.8631268554744,70.17126711059447,-7.573265423816127,450.1866167208349,43.89531011498502,-23.58308418665861,722.7290991793094,58.34975903659987,236.64411243732167,570.6011784758958,717.3698879027646,226.43414772946696,629.3344514824043,421.9564942277475,230.9601219656391,493.2259466643328,343.2063760100714,161.5654254446072,342.3876361871342,198.26092664221247,88.76232132738653,290.3044227802204,211.2175020444059,190.9418537460857,477.3058063364956,62.59067475911293,60.81956691630504,39.18043308369497,69.79184735376795,30.20815264623205,81.07927871068017,49.71131159419377,47.63888241494327,51.78374077344428,99.42262318838756,99.42262318838756,0.6717595479698506,0.6717595479698506,24.71349571929501,1.4800328999990595,0
1777554785.21,12.963629629629636,7.676074074074066,21.187074,-11.40363,29.34392592592592,32.319704,-7.914222,89.165039,-1.586914,-0.943638,2.191772,11.901855,9.489067,-35.249634,8.666992,1.437012,101.376343,57.250977,0.364043,2.136841,32.836914,9.024434,-25.43335,2.197266,-1.556763,106.430054,37.719727,-0.201182,3.493652,2.685547,9.445957,-91.203003,0.915527,-2.850073,0.219727,6.591797,-0.354463,2.867432,4.760742,-0.138911,-88.654175,1.953125,9.891431,76.415405,-4.394531,0.546064,-1.213989,26.550293,8.794512,-20.939941,-9.94873,3.324287,98.031006,-233.886719,0.210762,-0.785522,44.494629,9.570498,-125.491333,-6.347656,-5.283413,-2.785034,-212.219238,0.311353,-8.113403,-72.021484,8.267607,-106.809082,126.647949,17.20103,0,7944,38919,46083,30723,0,0,60164,24326,2817,14338,0,0,0,0,0,0,0,0,0,0,0,0,0,0,0,0,0,0,0,0,0,0,0,0,0,659,18533,independent_20260430_211301,trial_001,subject_001,1777554785.2137103,277576.823306,2344101,1,0,0,1,14.10363713680868,634.6288263216614,855.0473419875451,102.48651873100629,630.6633735324461,859.4440407731441,24.447290075166137,408.3123351542576,904.242241164054,86.15048801390184,404.2764436399767,896.6687279909125,-121.28770180165112,567.6581707350612,718.56143818917,-104.95444241543048,570.7334001697794,417.2989323249136,-121.80815797397526,531.6444459604434,282.0742701508478,-71.23569425370216,509.7236508703804,70.36014097912042,-8.142666000001517,435.8284509784137,44.00618216523786,-24.205609926385865,708.5297022347078,58.38991994649718,236.11878979160164,576.6447237366348,721.7476437538967,225.4880521650317,642.848841684283,427.7359257176786,230.4381183442726,511.8257463718064,339.8043506448432,161.15503121356,372.29428872829936,183.58585831984664,88.64950962426504,318.38677018438926,199.67757622543675,193.14071029852383,519.0839414685212,61.93850556662706,60.81956691630504,39.18043308369497,69.79184735376795,30.20815264623205,81.07927871068017,49.71131159419377,47.63888241494327,51.78374077344428,99.42262318838756,99.42262318838756,0.6717595479698506,0.6717595479698506,24.71349571929501,1.4800328999990595,0
1777554785.218,12.963629629629636,7.676074074074066,21.187074,-11.40363,29.34392592592592,32.319704,-7.914222,89.165039,-1.586914,-0.943638,2.191772,11.901855,9.489067,-35.249634,8.666992,1.437012,101.376343,57.250977,0.364043,2.136841,32.836914,9.024434,-25.43335,2.197266,-1.556763,106.430054,37.719727,-0.201182,3.493652,2.685547,9.445957,-91.203003,0.915527,-2.850073,0.219727,6.591797,-0.354463,2.867432,4.760742,-0.138911,-88.654175,1.953125,9.891431,76.415405,-4.394531,0.546064,-1.213989,26.550293,8.794512,-20.939941,-9.94873,3.324287,98.031006,-233.886719,0.210762,-0.785522,44.494629,9.570498,-125.491333,-6.347656,-5.283413,-2.785034,-212.219238,0.311353,-8.113403,-72.021484,8.267607,-106.809082,126.647949,17.20103,0,7944,38919,46083,30723,0,0,60164,24326,2817,14338,0,0,0,0,0,0,0,0,0,0,0,0,0,0,0,0,0,0,0,0,0,0,0,0,0,659,18533,independent_20260430_211301,trial_001,subject_001,1777554785.2137103,277576.823306,2344101,1,0,0,1,14.10363713680868,634.6288263216614,855.0473419875451,102.48651873100629,630.6633735324461,859.4440407731441,24.447290075166137,408.3123351542576,904.242241164054,86.15048801390184,404.2764436399767,896.6687279909125,-121.28770180165112,567.6581707350612,718.56143818917,-104.95444241543048,570.7334001697794,417.2989323249136,-121.80815797397526,531.6444459604434,282.0742701508478,-71.23569425370216,509.7236508703804,70.36014097912042,-8.142666000001517,435.8284509784137,44.10289699003282,-24.205609926385865,708.5297022347078,58.428986521341415,236.11878979160164,576.6447237366348,721.7476437538967,225.4880521650317,642.848841684283,427.7359257176786,230.4381183442726,511.8257463718064,339.8043506448432,161.15503121356,372.29428872829936,183.58585831984664,88.64950962426504,318.38677018438926,187.9048704104131,193.14071029852383,519.0839414685212,60.74475041971091,60.81956691630504,39.18043308369497,69.79184735376795,30.20815264623205,81.07927871068017,49.71131159419377,47.63888241494327,51.78374077344428,99.42262318838756,99.42262318838756,0.6717595479698506,0.6717595479698506,24.71349571929501,1.4800328999990595,0
1777554785.228,12.963629629629636,5.572074074074067,21.187074,-11.40363,29.37692592592592,32.319704,-15.918222,89.165039,-1.586914,-0.943638,2.191772,11.901855,9.489067,-35.249634,8.666992,1.437012,103.480225,58.410645,-0.234712,1.724854,37.841797,9.460327,-24.230347,4.516602,-1.504072,106.430054,37.719727,-0.201182,3.493652,2.685547,9.445957,-91.203003,0.915527,-2.850073,0.219727,6.591797,-0.354463,2.867432,4.760742,-0.138911,-88.654175,1.953125,9.891431,76.382446,4.821777,0.579595,-0.631714,33.325195,8.047266,-20.099487,-11.352539,3.429668,98.031006,-233.886719,0.210762,-0.785522,44.494629,9.570498,-125.491333,-6.347656,-5.283413,-10.788574,-198.242188,-1.872905,-9.173584,-27.282715,7.151528,-102.513428,108.154297,11.299702,0,7944,38919,46083,30723,0,0,60164,24326,2817,14338,0,0,0,0,0,0,0,0,0,0,0,0,0,0,0,0,0,0,0,0,0,0,0,0,0,659,18533,independent_20260430_211301,trial_001,subject_001,1777554785.223709,277576.8333262,2344102,1,0,0,1,13.122998079665216,632.9585410804365,855.3412992077083,101.61793053506707,629.6119730100138,860.1430462752381,24.767956891564573,406.85386807928967,904.6957870238422,86.2547968294263,403.13458309988937,897.1416532658437,-121.88362084593255,563.8099036177124,718.4276087051184,-105.71425351612788,564.8636666772137,417.25358458990974,-122.5320386649445,525.4196738027483,282.0615730647502,-71.51835783419182,502.631310679906,70.27968267774177,-8.501441353170659,428.7143184260268,44.21241055074308,-24.49309626700134,701.3730158063264,58.45090236023161,236.19460287394264,578.5612149500129,724.1170583762743,225.05971459138345,648.8016545606367,430.5565666679095,230.3175827376673,521.1306136415752,337.49590885506103,161.3354118151116,388.2562278876003,175.35732130448952,88.74500591842838,333.83496399835013,175.01249768937404,194.511608881554,540.6468265047923,59.83677789363104,60.81956691630504,39.18043308369497,69.79184735376795,30.20815264623205,81.07927871068017,49.71131159419377,47.63888241494327,51.78374077344428,99.42262318838756,99.42262318838756,0.6717595479698506,0.6717595479698506,24.71349571929501,1.4800328999990595,0
1777554785.239,12.963629629629636,5.572074074074067,21.187074,-11.40363,29.37692592592592,32.319704,-15.918222,89.165039,-1.586914,-0.943638,2.191772,11.901855,9.489067,-35.249634,8.666992,1.437012,103.480225,58.410645,-0.234712,1.724854,37.841797,9.460327,-24.230347,4.516602,-1.504072,106.430054,37.719727,-0.201182,3.493652,2.685547,9.445957,-91.203003,0.915527,-2.850073,0.219727,6.591797,-0.354463,2.867432,4.760742,-0.138911,-88.654175,1.953125,9.891431,76.382446,4.821777,0.579595,-0.631714,33.325195,8.047266,-20.099487,-11.352539,3.429668,98.031006,-233.886719,0.210762,-0.785522,44.494629,9.570498,-125.491333,-6.347656,-5.283413,-10.788574,-198.242188,-1.872905,-9.173584,-27.282715,7.151528,-102.513428,108.154297,11.299702,0,7944,38919,46083,30723,0,0,60164,24326,2817,14338,0,0,0,0,0,0,0,0,0,0,0,0,0,0,0,0,0,0,0,0,0,0,0,0,0,659,18533,independent_20260430_211301,trial_001,subject_001,1777554785.2437153,277576.8531683,2344104,1,0,0,1,11.346452027877763,629.6285393737336,855.520836591901,99.52824329554228,626.7466140704886,861.4625822500894,25.583235164810667,403.93987802954325,905.4731162230088,88.79772426504799,401.2707012094845,898.6727906455321,-122.5448972280117,556.681511549169,718.2580378638081,-106.92044168695666,552.9519326442771,417.1785453311749,-123.72967776970754,512.9075398597264,282.0919005456643,-72.15470363895673,488.28950448622726,70.36471231610345,-9.020595146397609,413.902586597338,44.30361807172408,-25.383315475854985,687.0233640363191,58.46576421573979,237.14976900181776,579.0610910099227,728.8140121118905,224.2032038620036,659.0914272244202,435.64536434613495,229.73989452042068,539.9724547966637,331.34080129749185,162.59072050974152,421.7953596977823,157.71321361163035,89.7314563275176,366.9299281561968,162.340007794934,198.54188916008965,584.402897855484,58.12969420521075,60.81956691630504,39.18043308369497,69.79184735376795,30.20815264623205,81.07927871068017,49.71131159419377,47.63888241494327,51.78374077344428,99.42262318838756,99.42262318838756,0.6717595479698506,0.6717595479698506,24.71349571929501,1.4800328999990595,0
1777554785.258,12.963629629629636,5.572074074074067,21.187074,-11.40363,29.37692592592592,32.319704,-15.918222,89.165039,-1.586914,-0.943638,2.191772,11.901855,9.489067,-35.249634,8.666992,1.437012,103.480225,58.410645,-0.234712,1.724854,37.841797,9.460327,-24.230347,4.516602,-1.504072,106.430054,37.719727,-0.201182,3.493652,2.685547,9.445957,-91.203003,0.915527,-2.850073,0.219727,6.591797,-0.354463,2.867432,4.760742,-0.138911,-88.654175,1.953125,9.891431,76.382446,4.821777,0.579595,-0.631714,33.325195,8.047266,-20.099487,-11.352539,3.429668,98.031006,-233.886719,0.210762,-0.785522,44.494629,9.570498,-125.491333,-6.347656,-5.283413,-10.788574,-198.242188,-1.872905,-9.173584,-27.282715,7.151528,-102.513428,108.154297,11.299702,0,7944,38919,46083,30723,0,0,60164,24326,2817,14338,0,0,0,0,0,0,0,0,0,0,0,0,0,0,0,0,0,0,0,0,0,0,0,0,0,659,18533,independent_20260430_211301,trial_001,subject_001,1777554785.253735,277576.8631763,2344105,1,0,0,1,10.568788486467897,627.9409379112293,855.5073654757554,98.71973692234236,625.6173753306521,861.8782153916854,25.851561625890856,402.49104368499405,905.7612136751396,88.62441805395244,400.04657101484855,899.0719485810603,-122.89594488435436,553.3002493898537,718.1150721682777,-107.53016729927256,547.2151348215776,417.0567790823488,-124.32503305738872,506.5641496763238,282.1228410920493,-72.19340969372452,481.0453305581789,70.30784797192267,-10.44696134590407,405.62631452756216,44.39597011661533,-25.671578032241666,679.8329737770382,58.47501876518691,237.1504502562535,579.9706832703778,730.50573797771,223.7719840088897,663.4255479234176,437.7923800249288,229.86165452938505,549.2150005446778,328.1484591248744,163.3330736240476,439.37232074239625,148.44125803618633,90.09981593615616,385.30763386456994,149.6146722320674,201.2294682706017,606.4378114443994,56.4531731017167,60.81956691630504,39.18043308369497,69.79184735376795,30.20815264623205,81.07927871068017,49.71131159419377,47.63888241494327,51.78374077344428,99.42262318838756,99.42262318838756,0.6717595479698506,0.6717595479698506,24.71349571929501,1.4800328999990595,0
1777554785.269,12.963629629629636,4.6540740740740745,21.187074,-11.01963,29.37692592592592,15.900704,-15.918222,89.165039,-1.586914,-0.943638,2.191772,11.901855,9.489067,-35.249634,8.666992,1.437012,104.397583,59.387207,-0.483794,1.521606,39.855957,9.699829,-23.664551,4.211426,-1.508862,106.430054,37.719727,-0.201182,3.493652,2.685547,9.445957,-91.203003,0.915527,-2.850073,0.604248,10.314941,-0.402363,3.043213,4.272461,-0.062271,-88.610229,2.075195,9.934541,76.382446,4.821777,0.579595,-0.631714,33.325195,8.047266,-20.099487,-11.352539,3.429668,81.469116,-145.385742,-1.025068,0.834961,41.931152,8.286768,-120.481567,-21.911621,-0.843047,-10.788574,-198.242188,-1.872905,-9.173584,-27.282715,7.151528,-102.513428,108.154297,11.299702,0,7944,38919,46083,30723,0,0,60164,24326,2817,14338,0,0,0,0,0,0,0,0,0,0,0,0,0,0,0,0,0,0,0,0,0,0,0,0,0,659,18533,independent_20260430_211301,trial_001,subject_001,1777554785.2642658,277576.8731889,2344106,1,0,0,1,9.864471448092324,626.2942294168244,855.4200140485831,98.00319941067364,624.4926306834922,862.1742943058596,26.50396223176321,401.1396213398243,906.1048111168265,88.45337738283095,398.8178176728009,899.5144404560065,-123.14247818107012,550.0792657996623,718.0337478925321,-108.17019147084106,541.3387792412468,417.0120768232361,-124.67361377815014,499.9994084150982,282.21900867312826,-72.7227527378656,473.9349531712091,70.50937778236512,-9.790341228382424,399.2790754308133,44.450586748171325,-26.00256393005713,672.6983551167746,58.47102531795571,237.1932581628657,580.7437526106586,731.9920505653101,223.2165412020008,667.1519459332345,439.6430564860453,230.07573800204625,558.221724679648,324.89870735863553,164.5053324302444,457.3762122261779,139.343654967039,90.78234815860522,404.18607590725946,136.36172094392575,204.18853750445584,628.5826989488812,55.57488212659885,60.81956691630504,39.18043308369497,69.79184735376795,30.20815264623205,81.07927871068017,49.71131159419377,47.63888241494327,51.78374077344428,99.42262318838756,99.42262318838756,0.6717595479698506,0.6717595479698506,24.71349571929501,1.4800328999990595,0
1777554785.28,12.963629629629636,3.770074074074074,18.809074,-10.85963,28.958925925925925,13.522704,-15.918222,89.165039,-1.586914,-0.943638,2.191772,11.901855,9.489067,-35.249634,8.666992,1.437012,105.281982,57.128906,-0.584385,1.329346,39.916992,9.742939,-23.093262,2.624512,-1.437012,109.846802,38.94043,-1.049019,3.147583,14.831543,9.091494,-91.060181,5.493164,-2.121987,0.76355,11.779785,-0.387993,3.12561,5.67627,-0.0479,-88.599243,1.647949,9.953701,76.799927,-8.361816,-0.03832,0.005493,34.729004,10.063872,-17.605591,5.493164,5.647456,79.090576,-109.130859,-0.967588,1.312866,34.057617,7.3575,-119.833374,-15.686035,-0.105381,-10.788574,-198.242188,-1.872905,-9.173584,-27.282715,7.151528,-102.513428,108.154297,11.299702,0,7944,38919,46083,30723,0,0,60164,24326,2817,14338,0,0,0,0,0,0,0,0,0,0,0,0,0,0,0,0,0,0,0,0,0,0,0,0,0,659,18533,independent_20260430_211301,trial_001,subject_001,1777554785.2842672,277576.8932553,2344108,1,0,0,1,8.61113679986597,623.2578386148725,855.0899643165081,96.76072877403226,622.3899804643548,862.342233158958,27.308341639231337,398.575232507794,906.4168317156076,88.15808776594348,396.40251672894766,899.9033115520442,-123.84890492855882,543.4270671004354,717.7117794595334,-109.2500033758417,529.6449622222341,416.7815607354925,-125.44875473565828,487.0073206335978,282.3355182160523,-73.00103593498939,459.5755042060924,70.50683159531798,-10.411126146481177,384.9597694085681,44.4797091282958,-26.5851710647814,658.4230378351137,58.45780098727535,236.9963101794899,581.0029867797457,733.8594382238305,222.4765772496624,673.3128375523685,442.83127958147736,230.4667672039207,575.7799179030424,318.1197905045544,167.151310285158,495.17143296704273,121.55824834480498,92.63262689785756,444.5456802520711,123.62831080681364,210.7081968213359,672.8321629870217,54.98184247790862,60.81956691630504,39.18043308369497,69.79184735376795,30.20815264623205,81.07927871068017,49.71131159419377,47.63888241494327,51.78374077344428,99.42262318838756,99.42262318838756,0.6717595479698506,0.6717595479698506,24.71349571929501,1.4800328999990595,0
1777554785.29,12.963629629629636,3.770074074074074,18.809074,-10.85963,28.958925925925925,13.522704,-15.918222,89.165039,-1.586914,-0.943638,2.191772,11.901855,9.489067,-35.249634,8.666992,1.437012,105.281982,57.128906,-0.584385,1.329346,39.916992,9.742939,-23.093262,2.624512,-1.437012,109.846802,38.94043,-1.049019,3.147583,14.831543,9.091494,-91.060181,5.493164,-2.121987,0.76355,11.779785,-0.387993,3.12561,5.67627,-0.0479,-88.599243,1.647949,9.953701,76.799927,-8.361816,-0.03832,0.005493,34.729004,10.063872,-17.605591,5.493164,5.647456,79.090576,-109.130859,-0.967588,1.312866,34.057617,7.3575,-119.833374,-15.686035,-0.105381,-10.788574,-198.242188,-1.872905,-9.173584,-27.282715,7.151528,-102.513428,108.154297,11.299702,0,7944,38919,46083,30723,0,0,60164,24326,2817,14338,0,0,0,0,0,0,0,0,0,0,0,0,0,0,0,0,0,0,0,0,0,0,0,0,0,659,18533,independent_20260430_211301,trial_001,subject_001,1777554785.2942655,277576.9032466,2344109,1,0,0,1,8.055695755198805,621.7531195244713,854.7574493761002,96.21893961260652,621.3738016282153,862.1929630246167,27.70941918084109,397.291883783928,906.5242066398542,88.137497933985,395.24703445031736,899.9024312706971,-123.9497166203818,540.5710303754331,717.3885526653146,-109.71457893113744,524.0302145105712,416.5481048271286,-125.92262410767576,480.5821736216861,282.42562700326414,-73.48853429695654,452.4511985700789,70.66737626608793,-10.80611804037352,377.9602214531215,44.56448275907635,-27.106702232352628,651.1455259405072,58.43029188985653,236.3042696635059,580.2106467306514,734.2143959470059,221.84097558535032,675.3471011167476,443.869401069268,230.80101814041527,584.6102090067401,314.5219344235683,168.86577684079634,514.6813020887007,113.39315351699608,94.21237932844888,465.16077313870295,110.68539148276471,213.7893566545491,695.066924335788,55.67404853972937,60.81956691630504,39.18043308369497,69.79184735376795,30.20815264623205,81.07927871068017,49.71131159419377,47.63888241494327,51.78374077344428,99.42262318838756,99.42262318838756,0.6717595479698506,0.6717595479698506,24.71349571929501,1.4800328999990595,0
1777554785.299,12.963629629629636,3.770074074074074,18.809074,-10.85963,28.958925925925925,13.522704,-15.918222,89.165039,-1.586914,-0.943638,2.191772,11.901855,9.489067,-35.249634,8.666992,1.437012,105.281982,57.128906,-0.584385,1.329346,39.916992,9.742939,-23.093262,2.624512,-1.437012,109.846802,38.94043,-1.049019,3.147583,14.831543,9.091494,-91.060181,5.493164,-2.121987,0.76355,11.779785,-0.387993,3.12561,5.67627,-0.0479,-88.599243,1.647949,9.953701,76.799927,-8.361816,-0.03832,0.005493,34.729004,10.063872,-17.605591,5.493164,5.647456,79.090576,-109.130859,-0.967588,1.312866,34.057617,7.3575,-119.833374,-15.686035,-0.105381,-10.788574,-198.242188,-1.872905,-9.173584,-27.282715,7.151528,-102.513428,108.154297,11.299702,0,7944,38919,46083,30723,0,0,60164,24326,2817,14338,0,0,0,0,0,0,0,0,0,0,0,0,0,0,0,0,0,0,0,0,0,0,0,0,0,659,18533,independent_20260430_211301,trial_001,subject_001,1777554785.2942655,277576.9032466,2344109,1,0,0,1,8.055695755198805,621.7531195244713,854.7574493761002,96.21893961260652,621.3738016282153,862.1929630246167,27.70941918084109,397.291883783928,906.5242066398542,88.137497933985,395.24703445031736,899.9024312706971,-123.9497166203818,540.5710303754331,717.3885526653146,-109.71457893113744,524.0302145105712,416.5481048271286,-125.92262410767576,480.5821736216861,282.42562700326414,-73.48853429695654,452.4511985700789,70.66737626608793,-10.80611804037352,377.9602214531215,44.638373103096,-27.106702232352628,651.1455259405072,58.375175565192905,236.3042696635059,580.2106467306514,734.2143959470059,221.84097558535032,675.3471011167476,443.869401069268,230.80101814041527,584.6102090067401,314.5219344235683,168.86577684079634,514.6813020887007,113.39315351699608,94.21237932844888,465.16077313870295,98.08532614776216,213.7893566545491,695.066924335788,57.70102930939822,60.81956691630504,39.18043308369497,69.79184735376795,30.20815264623205,81.07927871068017,49.71131159419377,47.63888241494327,51.78374077344428,99.42262318838756,99.42262318838756,0.6717595479698506,0.6717595479698506,24.71349571929501,1.4800328999990595,0
1777554785.311,12.963629629629636,1.1440740740740694,19.671074,-10.85963,29.26092592592592,13.522704,-7.667222,89.165039,-1.586914,-0.943638,2.191772,11.901855,9.489067,-35.249634,8.666992,1.437012,107.907715,48.828125,-0.220342,0.76355,39.489746,9.000483,-21.181641,1.037598,-1.508862,110.709229,47.546387,-1.25978,2.91687,21.240234,9.096284,-90.796509,6.469727,-1.733994,0.76355,11.779785,-0.387993,3.12561,5.67627,-0.0479,-88.599243,1.647949,9.953701,76.497803,-21.606445,-0.593965,0.060425,32.592773,10.245894,-17.105713,4.760742,6.260581,79.090576,-109.130859,-0.967588,1.312866,34.057617,7.3575,-119.833374,-15.686035,-0.105381,-21.478271,-45.471191,-4.038003,-9.09668,-18.737793,8.804092,-98.162842,-19.836426,3.741021,0,7944,38919,46083,30723,0,0,60164,24326,2817,14338,0,0,0,0,0,0,0,0,0,0,0,0,0,0,0,0,0,0,0,0,0,0,0,0,0,659,18533,independent_20260430_211301,trial_001,subject_001,1777554785.3137808,277576.9233749,2344111,1,0,0,1,6.998932481646388,619.0426903171054,853.8661715116995,95.2020666438847,619.4707582263286,861.452102213233,28.793787562424587,395.12031587127495,906.3470656755106,90.44960029964466,393.8571104146799,899.5810752002557,-124.29755087493366,535.045839519059,716.777785851004,-110.69234652996882,513.3548659083366,416.1701979443628,-126.63626664180876,468.2634225520332,282.468120837596,-74.0409012497379,438.14826724978536,70.73976018168283,-11.546319603080075,363.5851433705083,44.71091834066574,-27.695735375333346,636.9720527804648,58.296438085417975,235.72506872050795,579.0306431409133,734.2305467379193,221.0886940004133,678.704991208751,445.44143208260175,232.0550765552576,602.4857578852867,307.4973774662259,172.47109047338793,554.4614867172315,98.9498869813972,97.8921348986386,506.7684639124117,86.81946683658376,218.25723995083408,739.6745959093417,61.12524152571271,60.81956691630504,39.18043308369497,69.79184735376795,30.20815264623205,81.07927871068017,49.71131159419377,47.63888241494327,51.78374077344428,99.42262318838756,99.42262318838756,0.6717595479698506,0.6717595479698506,24.71349571929501,1.4800328999990595,0
1777554785.318,12.963629629629636,1.1440740740740694,19.671074,-10.85963,29.26092592592592,13.522704,-7.667222,89.165039,-1.586914,-0.943638,2.191772,11.901855,9.489067,-35.249634,8.666992,1.437012,107.907715,48.828125,-0.220342,0.76355,39.489746,9.000483,-21.181641,1.037598,-1.508862,110.709229,47.546387,-1.25978,2.91687,21.240234,9.096284,-90.796509,6.469727,-1.733994,0.76355,11.779785,-0.387993,3.12561,5.67627,-0.0479,-88.599243,1.647949,9.953701,76.497803,-21.606445,-0.593965,0.060425,32.592773,10.245894,-17.105713,4.760742,6.260581,79.090576,-109.130859,-0.967588,1.312866,34.057617,7.3575,-119.833374,-15.686035,-0.105381,-21.478271,-45.471191,-4.038003,-9.09668,-18.737793,8.804092,-98.162842,-19.836426,3.741021,0,7944,38919,46083,30723,0,0,60164,24326,2817,14338,0,0,0,0,0,0,0,0,0,0,0,0,0,0,0,0,0,0,0,0,0,0,0,0,0,659,18533,independent_20260430_211301,trial_001,subject_001,1777554785.3137808,277576.9233749,2344111,1,0,0,1,6.998932481646388,619.0426903171054,853.8661715116995,95.2020666438847,619.4707582263286,861.452102213233,28.793787562424587,395.12031587127495,906.3470656755106,90.44960029964466,393.8571104146799,899.5810752002557,-124.29755087493366,535.045839519059,716.777785851004,-110.69234652996882,513.3548659083366,416.1701979443628,-126.63626664180876,468.2634225520332,282.468120837596,-74.0409012497379,438.14826724978536,70.73976018168283,-11.546319603080075,363.5851433705083,44.81679539180641,-27.695735375333346,636.9720527804648,58.20114153260346,235.72506872050795,579.0306431409133,734.2305467379193,221.0886940004133,678.704991208751,445.44143208260175,232.0550765552576,602.4857578852867,307.4973774662259,172.47109047338793,554.4614867172315,98.9498869813972,97.8921348986386,506.7684639124117,76.6751616414174,218.25723995083408,739.6745959093417,65.97663866212501,60.81956691630504,39.18043308369497,69.79184735376795,30.20815264623205,81.07927871068017,49.71131159419377,47.63888241494327,51.78374077344428,99.42262318838756,99.42262318838756,0.6717595479698506,0.6717595479698506,24.71349571929501,1.4800328999990595,0
1777554785.332,12.474629629629632,1.1440740740740694,18.847074,-14.26063,30.23892592592593,11.291704,-7.667222,88.676147,-3.356934,-0.819097,0.302124,21.66748,9.287886,-32.744751,13.73291,1.786685,107.907715,48.828125,-0.220342,0.76355,39.489746,9.000483,-21.181641,1.037598,-1.508862,112.510986,52.55127,-1.154399,2.373047,17.333984,9.081914,-90.340576,11.779785,-2.375859,1.642456,18.920898,-0.493374,3.356323,4.943848,0.186812,-88.544312,1.89209,10.106982,75.52002,-28.259277,-1.408271,0.109863,16.845703,9.115444,-16.243286,7.93457,5.661826,76.975708,6.835938,0.225132,1.241455,-12.817383,6.332432,-119.415894,10.437012,0.464634,-21.478271,-45.471191,-4.038003,-9.09668,-18.737793,8.804092,-98.162842,-19.836426,3.741021,0,7944,38919,46083,30723,0,0,60164,24326,2817,14338,0,0,0,0,0,0,0,0,0,0,0,0,0,0,0,0,0,0,0,0,0,0,0,0,0,659,18534,independent_20260430_211301,trial_001,subject_001,1777554785.3337884,277576.9432241,2344113,1,0,0,1,5.880038184835578,616.085038814133,852.8782144481579,94.24165458832196,618.0134553295642,860.2492205370164,29.686677334554187,393.2390765043006,905.6902499649148,91.50039144778296,392.4350701489104,898.9230203952412,-124.54632937653082,530.0913645018516,715.9773960046638,-111.60779187917024,503.1158027783036,415.5387405493422,-127.54500243690003,456.6975314540576,282.4241954123723,-74.77210910974676,423.90636330082026,70.7258523628379,-12.207026719022789,349.18801864853293,44.960168837348405,-28.53258491439567,622.5142069125835,58.08101435461859,235.9803150072322,577.9854384870754,732.7991459345471,220.0649115348844,681.4279216809849,445.6356602915445,233.7864633302508,620.6989577678668,301.4117620567778,176.96527790622596,594.5280885802894,88.00824976435518,103.56691807065556,547.3072665785882,66.8432237075536,219.1714740166527,783.8053959526171,72.29956867799564,60.81956691630504,39.18043308369497,69.79184735376795,30.20815264623205,81.07927871068017,49.71131159419377,47.63888241494327,51.78374077344428,99.42262318838756,99.42262318838756,0.6717595479698506,0.6717595479698506,24.71349571929501,1.4800328999990595,0
1777554785.338,12.474629629629632,1.1440740740740694,18.847074,-14.26063,30.23892592592593,11.291704,-7.667222,88.676147,-3.356934,-0.819097,0.302124,21.66748,9.287886,-32.744751,13.73291,1.786685,107.907715,48.828125,-0.220342,0.76355,39.489746,9.000483,-21.181641,1.037598,-1.508862,112.510986,52.55127,-1.154399,2.373047,17.333984,9.081914,-90.340576,11.779785,-2.375859,1.642456,18.920898,-0.493374,3.356323,4.943848,0.186812,-88.544312,1.89209,10.106982,75.52002,-28.259277,-1.408271,0.109863,16.845703,9.115444,-16.243286,7.93457,5.661826,76.975708,6.835938,0.225132,1.241455,-12.817383,6.332432,-119.415894,10.437012,0.464634,-21.478271,-45.471191,-4.038003,-9.09668,-18.737793,8.804092,-98.162842,-19.836426,3.741021,0,7944,38919,46083,30723,0,0,60164,24326,2817,14338,0,0,0,0,0,0,0,0,0,0,0,0,0,0,0,0,0,0,0,0,0,0,0,0,0,659,18535,independent_20260430_211301,trial_001,subject_001,1777554785.3337884,277576.9432241,2344113,1,0,0,1,5.880038184835578,616.085038814133,852.8782144481579,94.24165458832196,618.0134553295642,860.2492205370164,29.686677334554187,393.2390765043006,905.6902499649148,91.50039144778296,392.4350701489104,898.9230203952412,-124.54632937653082,530.0913645018516,715.9773960046638,-111.60779187917024,503.1158027783036,415.5387405493422,-127.54500243690003,456.6975314540576,282.4241954123723,-74.77210910974676,423.90636330082026,70.7258523628379,-12.207026719022789,349.18801864853293,45.086152555187546,-28.53258491439567,622.5142069125835,57.96407872827272,235.9803150072322,577.9854384870754,732.7991459345471,220.0649115348844,681.4279216809849,445.6356602915445,233.7864633302508,620.6989577678668,301.4117620567778,176.96527790622596,594.5280885802894,88.00824976435518,103.56691807065556,547.3072665785882,59.098357801968966,219.1714740166527,783.8053959526171,79.68223958968788,60.81956691630504,39.18043308369497,69.79184735376795,30.20815264623205,81.07927871068017,49.71131159419377,47.63888241494327,51.78374077344428,99.42262318838756,99.42262318838756,0.6717595479698506,0.6717595479698506,24.71349571929501,1.4800328999990595,0
1777554785.357,12.474629629629632,1.1440740740740694,18.847074,-14.26063,30.23892592592593,11.291704,-7.667222,88.676147,-3.356934,-0.819097,0.302124,21.66748,9.287886,-32.744751,13.73291,1.786685,107.907715,48.828125,-0.220342,0.76355,39.489746,9.000483,-21.181641,1.037598,-1.508862,112.510986,52.55127,-1.154399,2.373047,17.333984,9.081914,-90.340576,11.779785,-2.375859,1.642456,18.920898,-0.493374,3.356323,4.943848,0.186812,-88.544312,1.89209,10.106982,75.52002,-28.259277,-1.408271,0.109863,16.845703,9.115444,-16.243286,7.93457,5.661826,76.975708,6.835938,0.225132,1.241455,-12.817383,6.332432,-119.415894,10.437012,0.464634,-21.478271,-45.471191,-4.038003,-9.09668,-18.737793,8.804092,-98.162842,-19.836426,3.741021,0,7944,38919,46083,30723,0,0,60164,24326,2817,14338,0,0,0,0,0,0,0,0,0,0,0,0,0,0,0,0,0,0,0,0,0,0,0,0,0,659,18536,independent_20260430_211301,trial_001,subject_001,1777554785.3538048,277576.9633273,2344115,1,0,0,1,5.167424738833264,614.8001515830471,851.0555150196361,93.40460998184528,617.096023433549,858.6513925827111,30.78764840352751,391.8339029451848,904.6599873559788,92.3573192876618,391.4996092925969,897.6396908958183,-124.8650034326146,525.7486428694842,715.1317316568624,-112.37000191088688,493.19705606162745,415.01463643946073,-128.3533907249934,445.09586867267313,282.2480457996925,-75.35103691987257,409.7662535680423,70.87337498789175,-12.902293718812276,334.9414766659657,45.221529151834304,-29.20475149783323,608.491999271727,57.82468043263664,235.7735322130776,575.91889210015,730.588693458199,219.10553684741163,683.7514410880226,445.5849106367955,236.1814871650168,638.8170293427123,296.84120218805856,181.7591204747076,633.6730702902731,80.86426434153984,110.62451820127572,585.9259831476696,52.841999993566255,216.2441114929208,825.7054821672905,88.11553477014294,60.81956691630504,39.18043308369497,69.79184735376795,30.20815264623205,81.07927871068017,49.71131159419377,47.63888241494327,51.78374077344428,99.42262318838756,99.42262318838756,0.6717595479698506,0.6717595479698506,24.71349571929501,1.4800328999990595,0
1777554785.378,12.474629629629632,1.1440740740740694,18.847074,-14.26063,30.23892592592593,11.291704,-7.667222,88.676147,-3.356934,-0.819097,0.302124,21.66748,9.287886,-32.744751,13.73291,1.786685,107.907715,48.828125,-0.220342,0.76355,39.489746,9.000483,-21.181641,1.037598,-1.508862,112.510986,52.55127,-1.154399,2.373047,17.333984,9.081914,-90.340576,11.779785,-2.375859,1.642456,18.920898,-0.493374,3.356323,4.943848,0.186812,-88.544312,1.89209,10.106982,75.52002,-28.259277,-1.408271,0.109863,16.845703,9.115444,-16.243286,7.93457,5.661826,76.975708,6.835938,0.225132,1.241455,-12.817383,6.332432,-119.415894,10.437012,0.464634,-21.478271,-45.471191,-4.038003,-9.09668,-18.737793,8.804092,-98.162842,-19.836426,3.741021,0,7944,38919,46083,30723,0,0,60164,24326,2817,14338,0,0,0,0,0,0,0,0,0,0,0,0,0,0,0,0,0,0,0,0,0,0,0,0,0,659,18536,independent_20260430_211301,trial_001,subject_001,1777554785.3738856,277576.9831987,2344117,1,0,0,1,4.212609680022404,612.8481006913769,849.3198705930641,92.85189976144648,616.695222012867,856.8883500615505,31.816325291646425,391.0910783756176,902.936413001452,93.04974832958624,391.0729405251373,895.6455393946871,-125.06596808746356,521.8175452189099,714.152832895639,-113.35038382279228,482.952294852918,414.5252555813043,-129.25525708058584,433.5091951360608,282.2989495827537,-75.83513834749925,395.5957458771711,71.07875467794675,-13.505976381478316,320.64922282083654,45.33714703175898,-29.996365423776776,594.1868272024985,57.699232880461466,235.77889461588083,574.1186635206693,727.8699834832614,217.8770009695346,685.4791519086965,445.1713387010654,237.8676919827521,656.4305265804483,293.0454420782624,186.07356695344856,670.6883552858943,76.8092948840842,117.85503470469874,622.7666233600821,47.0682261142706,210.81231670779448,863.2994646715005,97.52886326995105,60.81956691630504,39.18043308369497,69.79184735376795,30.20815264623205,81.07927871068017,49.71131159419377,47.63888241494327,51.78374077344428,99.42262318838756,99.42262318838756,0.6717595479698506,0.6717595479698506,24.71349571929501,1.4800328999990595,0
1777554785.388,12.359629629629636,-0.431925925925924,18.847074,-15.51263,30.23892592592593,14.016704,-5.536222,88.560791,-6.04248,-0.114961,-0.087891,27.46582,9.211245,-31.975708,14.953613,2.203418,109.484253,41.809082,-0.450264,0.142822,52.368164,9.057964,-19.627075,3.051758,-1.959126,112.510986,52.55127,-1.154399,2.373047,17.333984,9.081914,-90.340576,11.779785,-2.375859,2.191772,18.920898,-0.531694,3.460693,3.662109,0.253872,-88.511353,2.13623,10.193203,75.52002,-28.259277,-1.408271,0.109863,16.845703,9.115444,-16.243286,7.93457,5.661826,78.722534,72.509766,1.456172,0.966797,6.04248,6.638994,-119.525757,5.92041,-0.459844,-21.461792,17.822266,0.613125,-9.376831,19.836426,7.38145,-98.789062,-18.005371,4.033213,0,7944,38919,46083,30723,0,0,60164,24326,2817,14338,0,0,0,0,0,0,0,0,0,0,0,0,0,0,0,0,0,0,0,0,0,0,0,0,0,659,18537,independent_20260430_211301,trial_001,subject_001,1777554785.383886,277576.9931793,2344118,1,0,0,1,4.666945425458664,614.212861047691,848.6650089976812,92.6562570015678,616.8086848752064,855.9804958420325,32.13427504142534,390.90577808969664,901.8765497305252,93.5745464819578,391.0481207885204,894.4622085593188,-125.2532519540358,520.0110394349309,713.6538054579811,-113.89580437277878,477.6524508554506,414.3933261778036,-129.66772354647432,427.4885058694047,282.3694123473998,-76.09130100469683,388.4691359624577,71.09592439511746,-13.960172700242476,313.5023389054772,45.58166445179407,-30.36763959328641,587.1590789541688,57.548651962683984,235.90723962905247,573.684786811741,726.6075755734299,217.295504586798,686.6221879252204,444.81374494649,239.1543291803426,664.5887367610189,292.3728982584876,188.04243601104355,688.1837723243029,76.11409648461171,121.17612370335178,640.3130098903599,42.33664846669453,207.6095065124325,880.0887415680066,107.26865635807984,60.81956691630504,39.18043308369497,69.79184735376795,30.20815264623205,81.07927871068017,49.71131159419377,47.63888241494327,51.78374077344428,99.42262318838756,99.42262318838756,0.6717595479698506,0.6717595479698506,24.71349571929501,1.4800328999990595,0
1777554785.402,12.359629629629636,-1.7949259259259236,18.996074,-16.60663,31.22792592592592,14.016704,-4.064222,88.560791,-6.04248,-0.114961,-0.087891,27.46582,9.211245,-31.975708,14.953613,2.203418,110.846558,36.865234,-0.670605,-0.543823,47.668457,9.139395,-18.001099,3.417969,-1.633403,114.23584,60.119629,-1.015488,1.785278,21.728516,8.808882,-89.961548,14.648438,-2.313589,2.823486,19.775391,-0.598755,3.532104,1.953125,0.129331,-88.4729,2.563477,9.968071,74.53125,-24.475098,-0.684976,-0.324097,13.061523,8.119116,-15.743408,22.033691,4.152964,78.722534,72.509766,1.456172,0.966797,6.04248,6.638994,-119.525757,5.92041,-0.459844,-18.242798,149.414062,0.641865,-6.679688,140.197754,7.568262,-100.288696,-15.014648,1.906436,0,7944,38919,46083,30723,0,0,60164,24326,2817,14338,0,0,0,0,0,0,0,0,0,0,0,0,0,0,0,0,0,0,0,0,0,0,0,0,0,659,18537,independent_20260430_211301,trial_001,subject_001,1777554785.4038904,277577.0133708,2344120,1,0,0,1,4.032105154727393,613.0695052412311,847.2738019339422,92.48498915666929,617.4403663846342,854.2527176216373,33.14437285176198,391.1271493022979,899.5208742864834,94.3358073196554,391.5481129026469,891.784448886043,-125.43516434235065,516.8559183065672,712.5536831031271,-115.07110788543837,467.32803021924354,414.2463075475285,-130.71971609909585,415.5269895392581,282.7093135327458,-77.00657081317554,374.29449855499104,71.3696789697744,-14.60463449183106,299.2432225035865,45.817900334419576,-31.10955234627751,572.9593287598509,57.38288336934865,236.35376498042544,574.1937224734003,724.4600533245871,215.2636414698144,688.3070888581952,443.8795717317044,240.1092204538097,679.3651585339181,291.02280131112724,191.01173051761447,719.7922427617211,76.38894119023122,127.07299529593752,672.391159313175,38.66324402954305,201.10206286021352,908.9969405782786,116.8424239610024,60.81956691630504,39.18043308369497,69.79184735376795,30.20815264623205,81.07927871068017,49.71131159419377,47.63888241494327,51.78374077344428,99.42262318838756,99.42262318838756,0.6717595479698506,0.6717595479698506,24.71349571929501,1.4800328999990595,0
1777554785.411,12.359629629629636,-1.7949259259259236,18.996074,-16.60663,31.22792592592592,14.016704,-4.064222,88.560791,-6.04248,-0.114961,-0.087891,27.46582,9.211245,-31.975708,14.953613,2.203418,110.846558,36.865234,-0.670605,-0.543823,47.668457,9.139395,-18.001099,3.417969,-1.633403,114.23584,60.119629,-1.015488,1.785278,21.728516,8.808882,-89.961548,14.648438,-2.313589,2.823486,19.775391,-0.598755,3.532104,1.953125,0.129331,-88.4729,2.563477,9.968071,74.53125,-24.475098,-0.684976,-0.324097,13.061523,8.119116,-15.743408,22.033691,4.152964,78.722534,72.509766,1.456172,0.966797,6.04248,6.638994,-119.525757,5.92041,-0.459844,-18.242798,149.414062,0.641865,-6.679688,140.197754,7.568262,-100.288696,-15.014648,1.906436,0,7944,38919,46083,30723,0,0,60164,24326,2817,14338,0,0,0,0,0,0,0,0,0,0,0,0,0,0,0,0,0,0,0,0,0,0,0,0,0,659,18537,independent_20260430_211301,trial_001,subject_001,1777554785.414394,277577.0233937,2344121,1,0,0,1,4.01613210570086,613.454144220408,846.4809568890103,92.46911951426893,618.0793010557568,853.4676263367046,33.77878847166833,391.48676222994703,898.0606497458501,94.99462356124953,391.97578610564574,890.271047146524,-125.47152147417756,515.5816149696099,711.937929931606,-115.62808377615464,462.10190475313885,414.18322720518165,-131.15862279617954,409.5163085846796,282.94161596956303,-77.22986904069741,367.2801874729344,71.54590358089456,-14.962547994086984,292.1393480970061,46.12315771258001,-31.521693813099127,565.8397534890933,57.17743267310664,236.52460728276736,575.1953524834186,723.4777081447481,214.30076691299,689.0740849414016,443.3780336921882,240.39573705346228,685.5732337822568,290.64560655483444,192.0071294625852,733.5345662476675,77.2648981045663,129.3306885040555,686.7560842329982,34.95216515071604,198.12600823916927,921.0138255754748,125.29504909746268,60.81956691630504,39.18043308369497,69.79184735376795,30.20815264623205,81.07927871068017,49.71131159419377,47.63888241494327,51.78374077344428,99.42262318838756,99.42262318838756,0.6717595479698506,0.6717595479698506,24.71349571929501,1.4800328999990595,0
1777554785.421,12.359629629629636,-1.7949259259259236,18.996074,-16.60663,31.22792592592592,14.016704,-4.064222,88.560791,-6.04248,-0.114961,-0.087891,27.46582,9.211245,-31.975708,14.953613,2.203418,110.846558,36.865234,-0.670605,-0.543823,47.668457,9.139395,-18.001099,3.417969,-1.633403,114.23584,60.119629,-1.015488,1.785278,21.728516,8.808882,-89.961548,14.648438,-2.313589,2.823486,19.775391,-0.598755,3.532104,1.953125,0.129331,-88.4729,2.563477,9.968071,74.53125,-24.475098,-0.684976,-0.324097,13.061523,8.119116,-15.743408,22.033691,4.152964,78.722534,72.509766,1.456172,0.966797,6.04248,6.638994,-119.525757,5.92041,-0.459844,-18.242798,149.414062,0.641865,-6.679688,140.197754,7.568262,-100.288696,-15.014648,1.906436,0,7944,38919,46083,30723,0,0,60164,24326,2817,14338,0,0,0,0,0,0,0,0,0,0,0,0,0,0,0,0,0,0,0,0,0,0,0,0,0,659,18538,independent_20260430_211301,trial_001,subject_001,1777554785.4244,277577.0333276,2344122,1,0,0,1,4.060901448518028,613.9417019985241,845.6574468803126,92.50968311534687,618.856478416078,852.5903273977841,34.45282772332807,392.0332630948826,896.624216749313,95.47524758822377,392.5762101336141,888.5154265559848,-125.53750137697187,514.384312137789,711.2970122922342,-116.0865717773,456.99030766772586,414.1590561762595,-131.44571777102328,403.56846311605926,283.11439068545184,-77.46610097113415,360.28349620816687,71.6373317737097,-15.19678651104956,284.95972207181705,46.44028557660357,-31.843909457343067,558.7321255257928,56.95322281572552,236.7642923015498,576.6354992592353,722.5244948869724,213.6031112371541,689.9177937006189,442.763249464565,240.5888277499466,691.1456211005615,290.4519615570805,192.5181207253015,745.6360898587789,78.24338892396732,131.02702381527183,699.6536910572278,31.811694387569645,195.1990795360235,931.358400013424,132.9330107652372,60.81956691630504,39.18043308369497,69.79184735376795,30.20815264623205,81.07927871068017,49.71131159419377,47.63888241494327,51.78374077344428,99.42262318838756,99.42262318838756,0.6717595479698506,0.6717595479698506,24.71349571929501,1.4800328999990595,0
1777554785.431,12.216629629629637,-1.7949259259259236,19.891074,-16.60663,31.60692592592592,17.998704,-1.124222,88.417969,-0.366211,-0.373623,-0.615234,31.188965,9.139395,-30.915527,16.296387,2.610571,110.846558,36.865234,-0.670605,-0.543823,47.668457,9.139395,-18.001099,3.417969,-1.633403,116.49353,66.772461,-1.19751,0.900879,21.484375,9.522598,-89.538574,20.263672,-3.353027,2.823486,19.775391,-0.598755,3.532104,1.953125,0.129331,-88.4729,2.563477,9.968071,74.152222,2.01416,0.804727,-1.038208,27.46582,7.994575,-14.765625,29.11377,2.390229,81.716309,116.210938,1.460962,0.911865,41.809082,6.974297,-118.613892,8.117676,-1.475332,-12.310181,184.265137,3.161426,-2.949829,103.515625,-1.944756,-101.738892,3.051758,10.030342,0,7944,38919,46083,30723,0,0,60164,24326,2817,14338,0,0,0,0,0,0,0,0,0,0,0,0,0,0,0,0,0,0,0,0,0,0,0,0,0,659,18538,independent_20260430_211301,trial_001,subject_001,1777554785.4334006,277577.0431238,2344123,1,0,0,1,4.091278755678767,614.5183902464398,844.7855394543857,92.5943152889674,619.7013226669104,851.6935421976607,35.22736677036909,392.6203412755893,895.0355887714709,96.26090716986154,393.3135813283566,886.9125486068499,-125.4988575940253,513.1280948387721,710.5379802636244,-116.4155700920713,452.2301693688533,414.1910805186573,-131.92738325490032,397.78768342193575,283.4900894768983,-77.61462211388003,353.0605820298752,71.80872195116389,-15.610138256274988,277.89310820056085,46.767445099173486,-32.34564006038849,551.69703617481,56.73012794806399,236.93887077201668,578.4170632833601,721.4489630211738,213.16560135528127,690.8485829687074,441.94873813599065,240.66863579496945,695.9222627061757,290.0362797316249,192.3488249851761,755.8033902512642,79.07934792670964,131.80117042604934,710.830829899897,30.0967414514461,193.0005920399444,940.084137523786,139.26046911393678,60.81956691630504,39.18043308369497,69.79184735376795,30.20815264623205,81.07927871068017,49.71131159419377,47.63888241494327,51.78374077344428,99.42262318838756,99.42262318838756,0.6717595479698506,0.6717595479698506,24.71349571929501,1.4800328999990595,0
1777554785.442,12.216629629629637,-3.661925925925928,19.891074,-17.77663,31.39792592592592,17.998704,1.984778,88.417969,-0.366211,-0.373623,-0.615234,31.188965,9.139395,-30.915527,16.296387,2.610571,112.714233,37.902832,-1.427432,-1.741333,45.837402,10.394385,-15.864258,8.361816,-2.577041,116.49353,66.772461,-1.19751,0.900879,21.484375,9.522598,-89.538574,20.263672,-3.353027,3.911133,25.024414,-0.392783,3.532104,0.183105,0.05748,-88.434448,1.831055,10.380015,74.360962,18.981934,0.244292,-1.252441,31.799316,9.627979,-14.210815,23.193359,1.853745,81.716309,116.210938,1.460962,0.911865,41.809082,6.974297,-118.613892,8.117676,-1.475332,-9.20105,213.317871,1.422642,-1.598511,68.054199,-3.420088,-101.705933,22.644043,14.044395,0,7944,38919,46083,30723,0,0,60164,24326,2817,14338,0,0,0,0,0,0,0,0,0,0,0,0,0,0,0,0,0,0,0,0,0,0,0,0,0,659,18538,independent_20260430_211301,trial_001,subject_001,1777554785.4434035,277577.0529984,2344124,1,0,0,1,4.11165449189844,615.0765446462883,843.7797475851382,92.70232461090691,620.7560626202322,850.6853030216341,35.92699635783472,393.3595390651084,893.4876590028874,97.04013940140516,394.1947284293656,885.1821839832342,-125.3486492871552,512.177685741474,709.7299542489443,-116.65506535784785,447.7781573625078,414.0634066681607,-132.10786359713626,392.2617854962185,283.7473363573671,-77.96837405649374,346.1179622932408,72.09693134303556,-15.937982515386484,270.6842055160671,47.10740688606122,-32.70212596380258,544.5513186098959,56.49157427978804,237.13206566621523,580.3832375888891,720.2463442542207,212.98382667020107,692.3609389862744,441.0258079048456,240.51900747703303,699.9872088979658,289.39192962112975,191.9462663280858,763.9176416907173,79.6547731446881,131.74519098987173,720.0672571088841,28.26708916465187,191.3767729213016,947.1759121164685,144.10108582811253,60.81956691630504,39.18043308369497,69.79184735376795,30.20815264623205,81.07927871068017,49.71131159419377,47.63888241494327,51.78374077344428,99.42262318838756,99.42262318838756,0.6717595479698506,0.6717595479698506,24.71349571929501,1.4800328999990595,0
1777554785.448,12.216629629629637,-3.661925925925928,19.891074,-17.77663,31.39792592592592,17.998704,1.984778,88.417969,-0.366211,-0.373623,-0.615234,31.188965,9.139395,-30.915527,16.296387,2.610571,112.714233,37.902832,-1.427432,-1.741333,45.837402,10.394385,-15.864258,8.361816,-2.577041,116.49353,66.772461,-1.19751,0.900879,21.484375,9.522598,-89.538574,20.263672,-3.353027,3.911133,25.024414,-0.392783,3.532104,0.183105,0.05748,-88.434448,1.831055,10.380015,74.360962,18.981934,0.244292,-1.252441,31.799316,9.627979,-14.210815,23.193359,1.853745,81.716309,116.210938,1.460962,0.911865,41.809082,6.974297,-118.613892,8.117676,-1.475332,-9.20105,213.317871,1.422642,-1.598511,68.054199,-3.420088,-101.705933,22.644043,14.044395,0,7944,38919,46083,30723,0,0,60164,24326,2817,14338,0,0,0,0,0,0,0,0,0,0,0,0,0,0,0,0,0,0,0,0,0,0,0,0,0,659,18538,independent_20260430_211301,trial_001,subject_001,1777554785.4434035,277577.0529984,2344124,1,0,0,1,4.11165449189844,615.0765446462883,843.7797475851382,92.70232461090691,620.7560626202322,850.6853030216341,35.92699635783472,393.3595390651084,893.4876590028874,97.04013940140516,394.1947284293656,885.1821839832342,-125.3486492871552,512.177685741474,709.7299542489443,-116.65506535784785,447.7781573625078,414.0634066681607,-132.10786359713626,392.2617854962185,283.7473363573671,-77.96837405649374,346.1179622932408,72.09693134303556,-15.937982515386484,270.6842055160671,47.33360040449338,-32.70212596380258,544.5513186098959,56.27026217636941,237.13206566621523,580.3832375888891,720.2463442542207,212.98382667020107,692.3609389862744,441.0258079048456,240.51900747703303,699.9872088979658,289.39192962112975,191.9462663280858,763.9176416907173,79.6547731446881,131.74519098987173,720.0672571088841,27.53686622077245,191.3767729213016,947.1759121164685,147.22266309565606,60.81956691630504,39.18043308369497,69.79184735376795,30.20815264623205,81.07927871068017,49.71131159419377,47.63888241494327,51.78374077344428,99.42262318838756,99.42262318838756,0.6717595479698506,0.6717595479698506,24.71349571929501,1.4800328999990595,0
1777554785.46,12.216629629629637,-3.661925925925928,19.891074,-17.77663,31.39792592592592,17.998704,1.984778,88.417969,-0.366211,-0.373623,-0.615234,31.188965,9.139395,-30.915527,16.296387,2.610571,112.714233,37.902832,-1.427432,-1.741333,45.837402,10.394385,-15.864258,8.361816,-2.577041,116.49353,66.772461,-1.19751,0.900879,21.484375,9.522598,-89.538574,20.263672,-3.353027,3.911133,25.024414,-0.392783,3.532104,0.183105,0.05748,-88.434448,1.831055,10.380015,74.360962,18.981934,0.244292,-1.252441,31.799316,9.627979,-14.210815,23.193359,1.853745,81.716309,116.210938,1.460962,0.911865,41.809082,6.974297,-118.613892,8.117676,-1.475332,-9.20105,213.317871,1.422642,-1.598511,68.054199,-3.420088,-101.705933,22.644043,14.044395,0,7944,38919,46083,30723,0,0,60164,24326,2817,14338,0,0,0,0,0,0,0,0,0,0,0,0,0,0,0,0,0,0,0,0,0,0,0,0,0,659,18538,independent_20260430_211301,trial_001,subject_001,1777554785.4644282,277577.073283,2344126,1,0,0,1,4.437813465303256,616.8074784083159,841.3504908751758,93.03665992415692,623.1092953676781,848.3742802064598,38.01733647537932,395.26303307571976,890.5614208836982,98.92651817291424,396.43484280948906,881.9872008673589,-124.83177766797232,510.26619348619687,707.7742901318295,-116.59188210657796,440.0191473755556,413.4017894843101,-132.3884494636873,382.2893011078767,284.2123389036305,-78.65600761506616,332.413337048557,72.71212902611799,-16.603343193426856,256.46939925103874,47.70771373694575,-33.50196585285452,530.4042763247847,55.99987315991949,237.69881938311323,584.5777290436973,717.61291408908,212.87328184513285,696.8605181470789,438.9390683655031,239.7014670121281,706.1129205417608,287.24952705601584,189.64478256975568,773.8357875706879,78.81976987947024,129.0308910284752,732.8582234004714,26.84422786683817,190.4666114720264,956.8436390924132,147.94642225381966,60.81956691630504,39.18043308369497,73.52758394247815,26.472416057521848,81.07927871068017,49.71131159419377,47.63888241494327,51.78374077344428,99.42262318838756,99.42262318838756,0.6717595479698506,0.6717595479698506,24.71349571929501,1.4800328999990595,0
1777554785.478,12.216629629629637,-3.661925925925928,19.891074,-17.77663,31.39792592592592,17.998704,1.984778,88.417969,-0.366211,-0.373623,-0.615234,31.188965,9.139395,-30.915527,16.296387,2.610571,112.714233,37.902832,-1.427432,-1.741333,45.837402,10.394385,-15.864258,8.361816,-2.577041,116.49353,66.772461,-1.19751,0.900879,21.484375,9.522598,-89.538574,20.263672,-3.353027,3.911133,25.024414,-0.392783,3.532104,0.183105,0.05748,-88.434448,1.831055,10.380015,74.360962,18.981934,0.244292,-1.252441,31.799316,9.627979,-14.210815,23.193359,1.853745,81.716309,116.210938,1.460962,0.911865,41.809082,6.974297,-118.613892,8.117676,-1.475332,-9.20105,213.317871,1.422642,-1.598511,68.054199,-3.420088,-101.705933,22.644043,14.044395,0,7944,38919,46083,30723,0,0,60164,24326,2817,14338,0,0,0,0,0,0,0,0,0,0,0,0,0,0,0,0,0,0,0,0,0,0,0,0,0,659,18538,independent_20260430_211301,trial_001,subject_001,1777554785.474429,277577.0833131,2344127,1,0,0,1,4.610912639898551,617.6357544945002,839.9210070519938,93.26001163900584,624.4476466983052,846.9809254808691,39.20800816661692,396.35993111599936,889.2489714536024,100.0849250079822,397.81896862373134,880.5308461408445,-124.35061568313466,509.5886491579813,706.6834684875347,-116.3163080097353,436.6774272522696,412.9883516500853,-132.32974140148153,377.6686673448119,284.3950128763343,-78.69180904583905,325.6143975971796,72.97660539633455,-16.954714473806916,249.37881685964592,47.90533914617782,-33.90905505583658,523.4121723871725,55.74573925446675,238.05134999059968,586.7426997993508,716.2487533551232,212.64830213165,699.4288652809868,437.6899194900456,238.7852911575709,708.3265609734192,285.8230694257841,188.200767493756,775.7339663908834,77.5337578283038,126.92233132385196,736.347816022794,27.05037394770456,190.8937183795832,959.7160549851156,146.53597020432682,60.81956691630504,39.18043308369497,73.52758394247815,26.472416057521848,81.07927871068017,49.71131159419377,47.63888241494327,51.78374077344428,99.42262318838756,99.42262318838756,0.6717595479698506,0.6717595479698506,24.71349571929501,1.4800328999990595,0
