timestamp,torso_angle,left_hip_angle,left_knee_angle,left_ankle_angle,right_hip_angle,right_knee_angle,right_ankle_angle,imu1ang_x,imu1vel_x,imu1acc_x,imu1ang_y,imu1vel_y,imu1acc_y,imu1ang_z,imu1vel_z,imu1acc_z,imu2ang_x,imu2vel_x,imu2acc_x,imu2ang_y,imu2vel_y,imu2acc_y,imu2ang_z,imu2vel_z,imu2acc_z,imu3ang_x,imu3vel_x,imu3acc_x,imu3ang_y,imu3vel_y,imu3acc_y,imu3ang_z,imu3vel_z,imu3acc_z,imu4ang_x,imu4vel_x,imu4acc_x,imu4ang_y,imu4vel_y,imu4acc_y,imu4ang_z,imu4vel_z,imu4acc_z,imu5ang_x,imu5vel_x,imu5acc_x,imu5ang_y,imu5vel_y,imu5acc_y,imu5ang_z,imu5vel_z,imu5acc_z,imu6ang_x,imu6vel_x,imu6acc_x,imu6ang_y,imu6vel_y,imu6acc_y,imu6ang_z,imu6vel_z,imu6acc_z,imu7ang_x,imu7vel_x,imu7acc_x,imu7ang_y,imu7vel_y,imu7acc_y,imu7ang_z,imu7vel_z,imu7acc_z,L_1,L_2,L_3,L_4,L_5,L_6,L_7,L_8,L_9,L_10,L_11,L_12,L_13,L_14,L_15,L_16,L_17,L_18,R_1,R_2,R_3,R_4,R_5,R_6,R_7,R_8,R_9,R_10,R_11,R_12,R_13,R_14,R_15,R_16,R_17,R_18,frame_id_left,frame_id_right,vicon_Session_ID,vicon_Trial_ID,vicon_Subject_ID,vicon_Vicon_Recv_Timestamp,vicon_Vicon_Recv_Timestamp_Mono,vicon_Vicon_Frame_Num,vicon_Vicon_Subject_Name,vicon_Vicon_Gap_Flag,vicon_Vicon_Gap_Size,vicon_Vicon_Original_Valid_Flag,vicon_Vicon_LASI_X,vicon_Vicon_LASI_Y,vicon_Vicon_LASI_Z,vicon_Vicon_RASI_X,vicon_Vicon_RASI_Y,vicon_Vicon_RASI_Z,vicon_Vicon_LPSI_X,vicon_Vicon_LPSI_Y,vicon_Vicon_LPSI_Z,vicon_Vicon_RPSI_X,vicon_Vicon_RPSI_Y,vicon_Vicon_RPSI_Z,vicon_Vicon_LTHI_X,vicon_Vicon_LTHI_Y,vicon_Vicon_LTHI_Z,vicon_Vicon_LKNE_X,vicon_Vicon_LKNE_Y,vicon_Vicon_LKNE_Z,vicon_Vicon_LTIB_X,vicon_Vicon_LTIB_Y,vicon_Vicon_LTIB_Z,vicon_Vicon_LANK_X,vicon_Vicon_LANK_Y,vicon_Vicon_LANK_Z,vicon_Vicon_LHEE_X,vicon_Vicon_LHEE_Y,vicon_Vicon_LHEE_Z,vicon_Vicon_LTOE_X,vicon_Vicon_LTOE_Y,vicon_Vicon_LTOE_Z,vicon_Vicon_RTHI_X,vicon_Vicon_RTHI_Y,vicon_Vicon_RTHI_Z,vicon_Vicon_RKNE_X,vicon_Vicon_RKNE_Y,vicon_Vicon_RKNE_Z,vicon_Vicon_RTIB_X,vicon_Vicon_RTIB_Y,vicon_Vicon_RTIB_Z,vicon_Vicon_RANK_X,vicon_Vicon_RANK_Y,vicon_Vicon_RANK_Z,vicon_Vicon_RHEE_X,vicon_Vicon_RHEE_Y,vicon_Vicon_RHEE_Z,vicon_Vicon_RTOE_X,vicon_Vicon_RTOE_Y,vicon_Vicon_RTOE_Z,left_pct_stance,left_pct_swing,right_pct_stance,right_pct_swing,step_frequency,step_length,left_step_length,right_step_length,left_stride_length,right_stride_length,left_step_speed,right_step_speed,step_width,cycle_time,phase_label
1777554987,15.336629629629629,28.890074074074064,27.686074,5.74037,-6.576074074,31.352704,-19.911222,91.538086,-24.719238,0.814307,-1.801758,-34.667969,10.020762,-43.456421,1.89209,-2.39502,80.161743,79.650879,-2.189048,2.834473,59.387207,8.478369,-31.574707,-39.611816,-4.598438,90.823975,87.341309,-2.677632,6.16333,-89.96582,9.594448,-95.701904,7.202148,-6.734795,1.757812,5.737305,-1.599873,2.268677,9.277344,0.493374,-87.84668,3.295898,10.471025,112.335205,-70.007324,1.120869,0.335083,6.652832,13.349839,-34.887085,12.695312,1.642983,132.874146,158.14209,-1.20709,-1.812744,-77.331543,13.119917,-116.817627,5.065918,-1.657354,15.391846,101.867676,1.336421,-2.25769,12.634277,-0.593965,-99.360352,-13.122559,10.849438,0,7944,38919,46083,30723,0,0,60164,24326,2817,14338,0,0,0,0,0,0,0,27915,63746,46854,0,0,0,28936,64772,11785,0,0,0,64267,10754,0,56577,17677,0,659,22419,independent_20260430_211623,trial_001,subject_001,1777554987.297439,277778.9067,2364309,1,0,0,1,50.27041514353965,831.431536205566,834.2939516122133,138.2383671747923,827.325683447081,828.7467453607086,60.1443874320494,608.0370127613563,878.6648958994484,120.60706175312862,604.7672142480319,874.6196839653812,-95.00897961,795.8830804986268,707.4604373399702,-73.2683244,889.1242653511855,423.6012348267324,-89.53679098,897.8989838877485,282.5368423435887,-40.66788047,963.8080837717636,72.31574135619938,17.64114223045528,901.5125975327657,33.171676898474615,16.79377770831025,1159.6392233428064,121.17263218780444,253.2220896679597,712.4892251237203,682.0793892140478,200.24168561233964,639.0854212594476,388.4044206613639,210.37260692786955,545.6598911776038,261.2569555679192,137.34693301030254,452.218087448538,76.28702686096777,78.03641379391037,384.4081822337868,52.705859265158495,133.31230618579136,643.0963565530484,49.210788960528944,64.06770799128681,35.9322920087132,61.74753372588935,38.25246627411066,78.4262466488702,51.241415764891634,50.77238999988538,51.71044152989789,102.48283152978328,102.48283152978328,0.6697786519024495,0.6697786519024495,22.11970792901338,1.5301000000326894,2
1777554987,15.336629629629629,28.890074074074064,27.686074,5.74037,-6.576074074,31.352704,-19.911222,91.538086,-24.719238,0.814307,-1.801758,-34.667969,10.020762,-43.456421,1.89209,-2.39502,80.161743,79.650879,-2.189048,2.834473,59.387207,8.478369,-31.574707,-39.611816,-4.598438,90.823975,87.341309,-2.677632,6.16333,-89.96582,9.594448,-95.701904,7.202148,-6.734795,1.757812,5.737305,-1.599873,2.268677,9.277344,0.493374,-87.84668,3.295898,10.471025,112.335205,-70.007324,1.120869,0.335083,6.652832,13.349839,-34.887085,12.695312,1.642983,132.874146,158.14209,-1.20709,-1.812744,-77.331543,13.119917,-116.817627,5.065918,-1.657354,15.391846,101.867676,1.336421,-2.25769,12.634277,-0.593965,-99.360352,-13.122559,10.849438,0,7944,38919,46083,30723,0,0,60164,24326,2817,14338,0,0,0,0,0,0,0,27915,63746,46854,0,0,0,28936,64772,11785,0,0,0,64267,10754,0,56577,17677,0,659,22419,independent_20260430_211623,trial_001,subject_001,1777554987.3070517,277778.9166,2364310,1,0,0,1,49.896989080055306,834.2606300676055,832.4132264172555,137.84968894465436,829.5419065260754,826.9255828713385,58.08024025014224,611.0428733080787,877.6771383416722,118.625394943716,607.2439616424058,873.9589121908614,-95.0401938,799.3947359962522,705.7114996738406,-72.28335661,890.8284452797492,421.1949743705188,-88.77747941,896.3218831818989,280.14904608111533,-40.40916464,957.4729764477486,69.84767296213192,17.69560859361395,895.9856278349536,33.228238872479565,17.42533573891989,1157.0684212178733,113.9714969248222,252.1369407739274,712.8451780856758,680.8973543349784,199.5883656584863,637.210692658829,387.8028245813006,209.9789583585424,541.8098795431455,262.15520150091976,137.70554774857527,446.2758335073232,77.5643905348361,78.2323179360983,377.6000880350584,54.03033163441376,133.2010753673099,636.137802754848,48.957523580400334,64.06770799128681,35.9322920087132,61.74753372588935,38.25246627411066,78.4262466488702,51.241415764891634,50.77238999988538,51.71044152989789,102.48283152978328,102.48283152978328,0.6697786519024495,0.6697786519024495,22.11970792901338,1.5301000000326894,2
1777554987,15.336629629629629,26.14407407407407,27.142074,3.48737,-2.687074074,31.352704,-16.780222,91.538086,-24.719238,0.814307,-1.801758,-34.667969,10.020762,-43.456421,1.89209,-2.39502,82.908325,74.21875,-1.973496,3.762817,24.047852,10.897339,-30.602417,-9.887695,-1.326841,93.059692,52.307129,1.398691,6.16333,-4.760742,9.249565,-96.828003,10.375977,-4.200864,1.741333,0.793457,-0.02395,2.268677,2.319336,0.062271,-87.74231,3.417969,10.365645,108.446045,-129.516602,-4.411626,0.274658,-35.766602,12.439731,-35.370483,5.92041,0.565225,132.874146,158.14209,-1.20709,-1.812744,-77.331543,13.119917,-116.817627,5.065918,-1.657354,23.192139,295.776367,0.493374,-1.417236,21.057129,-1.125659,-100.17334,-40.95459,12.751084,0,7944,38919,46083,30723,0,0,60164,24326,2817,14338,0,0,0,0,0,0,0,27915,63746,46854,0,0,0,28936,64772,11785,0,0,0,64267,10754,0,56577,17677,0,659,22419,independent_20260430_211623,trial_001,subject_001,1777554987.3170953,277778.9265,2364311,1,0,0,1,49.345842961000514,836.9990833305192,830.547533388917,137.34432072358297,831.8657492917048,825.1583943139344,55.96256669294539,614.0951157580997,877.0933149798243,116.4402128605168,610.0377314651889,873.3074187216314,-94.91763847,802.7798878367265,704.3992342412148,-71.86541172,892.0961369898911,419.0765479224005,-87.90768766,895.360282669406,278.29470511173395,-40.38141082,953.742428483346,69.21693980185267,17.64841980431515,890.7539206329778,33.559622356305766,18.23189435190135,1154.5026432902,106.25316921757845,250.960621035456,713.5437712077844,679.770525260227,198.83293239129927,635.600537351151,387.3231131250085,209.7156577248429,538.2331682272617,263.2436241499118,137.6027918575612,439.80611613105617,79.41055750780991,78.34827564875066,371.0063505477426,55.73389324090944,133.06246925706068,629.2722770815601,48.68379706586313,64.06770799128681,35.9322920087132,61.74753372588935,38.25246627411066,78.4262466488702,51.241415764891634,50.77238999988538,51.71044152989789,102.48283152978328,102.48283152978328,0.6697786519024495,0.6697786519024495,22.11970792901338,1.5301000000326894,2
1777554987,15.336629629629629,26.14407407407407,27.142074,3.48737,-2.687074074,31.352704,-16.780222,91.538086,-24.719238,0.814307,-1.801758,-34.667969,10.020762,-43.456421,1.89209,-2.39502,82.908325,74.21875,-1.973496,3.762817,24.047852,10.897339,-30.602417,-9.887695,-1.326841,93.059692,52.307129,1.398691,6.16333,-4.760742,9.249565,-96.828003,10.375977,-4.200864,1.741333,0.793457,-0.02395,2.268677,2.319336,0.062271,-87.74231,3.417969,10.365645,108.446045,-129.516602,-4.411626,0.274658,-35.766602,12.439731,-35.370483,5.92041,0.565225,132.874146,158.14209,-1.20709,-1.812744,-77.331543,13.119917,-116.817627,5.065918,-1.657354,23.192139,295.776367,0.493374,-1.417236,21.057129,-1.125659,-100.17334,-40.95459,12.751084,0,7944,38919,46083,30723,0,0,60164,24326,2817,14338,0,0,0,0,0,0,0,27915,63746,46854,0,0,0,28936,64772,11785,0,0,0,64267,10754,0,56577,17677,0,659,22419,independent_20260430_211623,trial_001,subject_001,1777554987.3170953,277778.9265,2364311,1,0,0,1,49.345842961000514,836.9990833305192,830.547533388917,137.34432072358297,831.8657492917048,825.1583943139344,55.96256669294539,614.0951157580997,877.0933149798243,116.4402128605168,610.0377314651889,873.3074187216314,-94.91763847,802.7798878367265,704.3992342412148,-71.86541172,892.0961369898911,419.0765479224005,-87.90768766,895.360282669406,278.29470511173395,-40.38141082,953.742428483346,69.21693980185267,17.64841980431515,890.7539206329778,34.12710411756828,18.23189435190135,1154.5026432902,98.42277980047906,250.960621035456,713.5437712077844,679.770525260227,198.83293239129927,635.600537351151,387.3231131250085,209.7156577248429,538.2331682272617,263.2436241499118,137.6027918575612,439.80611613105617,79.41055750780991,78.34827564875066,371.0063505477426,57.91188290783729,133.06246925706068,629.2722770815601,48.41116908424196,64.06770799128681,35.9322920087132,61.74753372588935,38.25246627411066,78.4262466488702,51.241415764891634,50.77238999988538,51.71044152989789,102.48283152978328,102.48283152978328,0.6697786519024495,0.6697786519024495,22.11970792901338,1.5301000000326894,2
1777554987,15.276629629629625,26.14407407407407,26.560074,3.48737,2.1359259259259176,40.976704,-7.332222,91.477661,8.300781,0.929268,-1.51062,-14.465332,7.31918,-44.263916,-10.375977,-1.724414,82.908325,74.21875,-1.973496,3.762817,24.047852,10.897339,-30.602417,-9.887695,-1.326841,95.223999,56.091309,3.156636,6.503906,163.574219,10.600356,-93.191528,-19.042969,-1.547183,1.741333,0.793457,-0.02395,2.268677,2.319336,0.062271,-87.74231,3.417969,10.365645,103.623047,-135.070801,-1.120869,0.428467,-87.646484,11.08894,-38.133545,27.22168,-2.979404,138.609009,163.391113,1.872905,-0.714111,-32.470703,11.184741,-118.317261,8.178711,-4.8571,38.375244,500.366211,0.627495,0.131836,20.080566,0.320933,-101.491699,-59.387207,10.427915,0,7944,38919,46083,30723,0,0,60164,24326,2817,14338,0,0,0,0,0,0,0,27915,63746,46854,0,0,0,28936,64772,11785,0,0,0,64267,10754,0,56577,17677,0,659,22419,independent_20260430_211623,trial_001,subject_001,1777554987.327544,277778.9368,2364312,1,0,0,1,48.74103112556259,840.0940036407006,828.941397989854,136.7127560154947,834.3527605098806,823.624351111552,54.07149009854073,617.0626817504053,876.664284636704,114.67799981847934,612.6660441552018,872.7905122168274,-94.8313689,805.9266459940271,703.7623664526816,-72.26746745,892.455501730936,417.6883602660856,-87.0048501,895.2888613100329,277.20563515041994,-40.79484447,951.3228937673164,68.57196299289001,17.523827052436467,885.4925151981448,34.91048185543677,18.94925932243196,1151.4441801515136,90.8253967921163,249.68388159591285,714.5375290123397,678.7456518538094,198.0086434879433,634.2397040480898,386.860358079033,209.3680151505087,534.9089719644018,264.4451408816953,137.87396217237605,433.8169613781723,81.98400116322773,78.40372760757008,364.5152166794371,60.57504003073038,133.01213608747705,622.3750632834833,48.15024730866362,64.06770799128681,35.9322920087132,61.74753372588935,38.25246627411066,78.4262466488702,51.241415764891634,50.77238999988538,51.71044152989789,102.48283152978328,102.48283152978328,0.6697786519024495,0.6697786519024495,22.11970792901338,1.5301000000326894,2
1777554987,15.276629629629625,26.14407407407407,26.560074,3.48737,2.1359259259259176,40.976704,-7.332222,91.477661,8.300781,0.929268,-1.51062,-14.465332,7.31918,-44.263916,-10.375977,-1.724414,82.908325,74.21875,-1.973496,3.762817,24.047852,10.897339,-30.602417,-9.887695,-1.326841,95.223999,56.091309,3.156636,6.503906,163.574219,10.600356,-93.191528,-19.042969,-1.547183,1.741333,0.793457,-0.02395,2.268677,2.319336,0.062271,-87.74231,3.417969,10.365645,103.623047,-135.070801,-1.120869,0.428467,-87.646484,11.08894,-38.133545,27.22168,-2.979404,138.609009,163.391113,1.872905,-0.714111,-32.470703,11.184741,-118.317261,8.178711,-4.8571,38.375244,500.366211,0.627495,0.131836,20.080566,0.320933,-101.491699,-59.387207,10.427915,0,7944,38919,46083,30723,0,0,60164,24326,2817,14338,0,0,0,0,0,0,0,27915,63746,46854,0,0,0,28936,64772,11785,0,0,0,64267,10754,0,56577,17677,0,659,22419,independent_20260430_211623,trial_001,subject_001,1777554987.3367658,277778.9464,2364313,1,0,0,1,48.02752398319143,843.1720226862578,827.7902101587341,135.97234346434138,836.9048850628645,822.3724867445916,52.09892122344103,620.2118326808225,876.5436309580729,112.77216406731324,615.5484743926012,872.4004552581034,-95.16984289,808.9023142376014,703.5312101224249,-73.2340144,893.3585876073249,417.3176235370718,-86.73616508,895.9028220071069,276.5402191833081,-42.75009272,948.7067118019849,68.25584077844822,17.176365082354707,880.061121850153,35.99853431528044,18.79095438665672,1147.8250945387576,83.42553901766607,248.43601520155715,715.9016222822931,677.8786690839776,197.1256253088392,633.3346765645648,386.770733984583,209.11947866003365,532.0095276572561,265.94813706148665,138.4410853348105,428.2658447197416,84.53977318642671,78.30746964804678,358.2525152637293,63.02889466845966,132.9263082789333,615.7080752097132,47.95690598102736,64.06770799128681,35.9322920087132,61.74753372588935,38.25246627411066,78.4262466488702,51.241415764891634,50.77238999988538,51.71044152989789,102.48283152978328,102.48283152978328,0.6697786519024495,0.6697786519024495,22.11970792901338,1.5301000000326894,2
1777554987,15.276629629629625,23.188074074074063,26.560074,1.50537,2.1359259259259176,40.976704,0.369778,91.477661,8.300781,0.929268,-1.51062,-14.465332,7.31918,-44.263916,-10.375977,-1.724414,85.863647,44.799805,-1.384321,3.718872,-16.906738,9.599238,-30.706787,6.835938,-0.929268,95.223999,56.091309,3.156636,6.503906,163.574219,10.600356,-93.191528,-19.042969,-1.547183,1.922607,7.8125,-0.282612,2.614746,8.544922,0.148491,-87.714844,0.061035,9.78126,103.623047,-135.070801,-1.120869,0.428467,-87.646484,11.08894,-38.133545,27.22168,-2.979404,138.609009,163.391113,1.872905,-0.714111,-32.470703,11.184741,-118.317261,8.178711,-4.8571,46.07666,519.287109,-0.431104,0.856934,1.098633,1.154399,-102.178345,-67.626953,7.012617,0,7944,38919,46083,30723,0,0,60164,24326,2817,14338,0,0,0,0,0,0,0,27915,63746,46854,0,0,0,28936,64772,11785,0,0,0,64267,10754,0,56577,17677,0,659,22419,independent_20260430_211623,trial_001,subject_001,1777554987.3537707,277778.9636,2364314,1,0,0,1,47.176336893092646,846.2104604776956,827.2833913648751,135.10338683188442,839.6255278511514,821.5295998559985,50.8370917754366,623.1820179579549,876.8056709537271,111.30396284282952,618.445857820695,872.2459107097532,-95.8546243,811.7507320196131,703.4629270346194,-74.4471144,895.2719213885946,417.2100822332101,-87.74356554,896.9337268631353,276.26391116922406,-43.28492115,944.8810924286058,67.40778209742888,16.616785158243317,874.1935462156716,37.22147549558393,18.168322486709656,1143.7638231663202,76.86481669651498,247.1209988609301,717.6364572809589,677.2470740832802,196.2420234677476,633.0023044232122,386.8041154297278,208.8081485002176,529.6531203806647,267.7105922475828,138.78911469762446,422.6206429948341,87.67397190642158,78.37751982572865,352.0370580691634,67.35468846168855,132.80540179658925,609.0376577060651,47.69402833576002,64.06770799128681,35.9322920087132,61.74753372588935,38.25246627411066,78.4262466488702,51.241415764891634,50.77238999988538,51.71044152989789,102.48283152978328,102.48283152978328,0.6697786519024495,0.6697786519024495,22.11970792901338,1.5301000000326894,2
1777554987,15.276629629629625,23.188074074074063,26.560074,1.50537,2.1359259259259176,40.976704,0.369778,91.477661,8.300781,0.929268,-1.51062,-14.465332,7.31918,-44.263916,-10.375977,-1.724414,85.863647,44.799805,-1.384321,3.718872,-16.906738,9.599238,-30.706787,6.835938,-0.929268,95.223999,56.091309,3.156636,6.503906,163.574219,10.600356,-93.191528,-19.042969,-1.547183,1.922607,7.8125,-0.282612,2.614746,8.544922,0.148491,-87.714844,0.061035,9.78126,103.623047,-135.070801,-1.120869,0.428467,-87.646484,11.08894,-38.133545,27.22168,-2.979404,138.609009,163.391113,1.872905,-0.714111,-32.470703,11.184741,-118.317261,8.178711,-4.8571,46.07666,519.287109,-0.431104,0.856934,1.098633,1.154399,-102.178345,-67.626953,7.012617,0,7944,38919,46083,30723,0,0,60164,24326,2817,14338,0,0,0,0,0,0,0,27915,63746,46854,0,0,0,28936,64772,11785,0,0,0,64267,10754,0,56577,17677,0,659,22419,independent_20260430_211623,trial_001,subject_001,1777554987.3537707,277778.9636,2364314,1,0,0,1,47.176336893092646,846.2104604776956,827.2833913648751,135.10338683188442,839.6255278511514,821.5295998559985,50.8370917754366,623.1820179579549,876.8056709537271,111.30396284282952,618.445857820695,872.2459107097532,-95.8546243,811.7507320196131,703.4629270346194,-74.4471144,895.2719213885946,417.2100822332101,-87.74356554,896.9337268631353,276.26391116922406,-43.28492115,944.8810924286058,67.40778209742888,16.616785158243317,874.1935462156716,38.33727084183341,18.168322486709656,1143.7638231663202,71.5627322188528,247.1209988609301,717.6364572809589,677.2470740832802,196.2420234677476,633.0023044232122,386.8041154297278,208.8081485002176,529.6531203806647,267.7105922475828,138.78911469762446,422.6206429948341,87.67397190642158,78.37751982572865,352.0370580691634,72.4225782707596,132.80540179658925,609.0376577060651,47.397867649068274,64.06770799128681,35.9322920087132,61.74753372588935,38.25246627411066,78.4262466488702,51.241415764891634,50.77238999988538,51.71044152989789,102.48283152978328,102.48283152978328,0.6697786519024495,0.6697786519024495,22.11970792901338,1.5301000000326894,2
1777554987,15.589629629629629,23.188074074074063,25.944074,1.50537,8.93092592592592,52.693704,5.060778,91.790771,0.244141,-0.110171,-0.928345,-0.488281,9.77168,-44.555054,-11.413574,-1.374741,85.863647,44.799805,-1.384321,3.718872,-16.906738,9.599238,-30.706787,6.835938,-0.929268,97.564087,77.331543,-4.392466,6.80603,-84.960938,8.966953,-94.119873,6.408691,-1.839375,1.922607,7.8125,-0.282612,2.614746,8.544922,0.148491,-87.714844,0.061035,9.78126,96.828003,-130.432129,0.095801,-0.856934,4.699707,10.859019,-40.067139,30.578613,-4.306245,145.50293,99.365234,-1.135239,-0.148315,-42.602539,8.976533,-119.6521,18.249512,-7.012617,57.661743,55.480957,1.16877,2.988281,-70.983887,10.576406,-106.353149,-154.11377,44.298281,0,7944,38919,46083,30723,0,0,60164,24326,2817,14338,0,0,0,0,0,0,0,27915,63746,46854,0,0,0,28936,64772,11785,0,0,0,64267,10754,0,56577,17677,0,659,22419,independent_20260430_211623,trial_001,subject_001,1777554987.364296,277778.9737,2364315,1,0,0,1,46.16482986952284,849.1669748112834,827.3405813565901,133.9860122551435,842.4661275602059,821.0721385510515,49.81256961806615,625.9924986145638,877.3794398769417,110.1996788108072,621.2781244653958,872.3659894060897,-96.55732892,814.448190936369,703.7041613279831,-75.56293619,897.9643791364267,417.5436124742184,-89.9712724,898.5318239786905,276.33794160315773,-44.58166633,939.905913435166,66.86995635695419,15.863958600182292,868.3216113039442,39.32889674320997,16.83543466278038,1139.1979692302896,67.54863359811732,245.76836994991405,719.7325381016349,676.8286115854742,195.50370649032504,633.4176569362064,386.9100992573343,208.65290901004832,527.8795525204646,269.6849631539068,139.4079560255832,417.5919326181335,91.18145985288383,78.54538135371386,345.91732816626984,78.30932780113926,132.6165602161495,602.4590913528183,47.08338446092819,64.06770799128681,35.9322920087132,61.74753372588935,38.25246627411066,78.4262466488702,51.241415764891634,50.77238999988538,51.71044152989789,102.48283152978328,102.48283152978328,0.6697786519024495,0.6697786519024495,22.11970792901338,1.5301000000326894,2
1777554987,15.589629629629629,23.188074074074063,25.944074,1.50537,8.93092592592592,52.693704,5.060778,91.790771,0.244141,-0.110171,-0.928345,-0.488281,9.77168,-44.555054,-11.413574,-1.374741,85.863647,44.799805,-1.384321,3.718872,-16.906738,9.599238,-30.706787,6.835938,-0.929268,97.564087,77.331543,-4.392466,6.80603,-84.960938,8.966953,-94.119873,6.408691,-1.839375,1.922607,7.8125,-0.282612,2.614746,8.544922,0.148491,-87.714844,0.061035,9.78126,96.828003,-130.432129,0.095801,-0.856934,4.699707,10.859019,-40.067139,30.578613,-4.306245,145.50293,99.365234,-1.135239,-0.148315,-42.602539,8.976533,-119.6521,18.249512,-7.012617,57.661743,55.480957,1.16877,2.988281,-70.983887,10.576406,-106.353149,-154.11377,44.298281,0,7944,38919,46083,30723,0,0,60164,24326,2817,14338,0,0,0,0,0,0,0,27915,63746,46854,0,0,0,28936,64772,11785,0,0,0,64267,10754,0,56577,17677,0,659,22419,independent_20260430_211623,trial_001,subject_001,1777554987.3844297,277778.9937,2364317,1,0,0,1,43.34141310995372,854.6858707116053,828.433167063627,131.20603486946385,848.0220398184624,821.4708453512496,47.90746668390689,631.3778405052974,879.0043797511516,108.53380692473618,626.6464126953539,873.4638774750586,-98.63690107,819.914892918695,705.5666716178578,-76.66826954,903.4333218434352,418.2913976591064,-93.49377411,899.8098264305239,276.68547576993416,-46.08298238,927.91200812129,66.58003529259874,14.479368988624453,855.5720129051924,40.08180779644547,15.102633772703989,1128.0572136467408,64.90710035123357,242.8772365495436,724.743034800261,676.6624431985418,194.05917961894312,637.0744269388827,387.0218907828513,208.48297532743416,526.4736275594507,274.45506634176456,140.71769077854594,409.1318606553915,98.76592397625264,78.9220308340702,334.5826455851279,84.31953260168389,132.19449122469467,589.8883704147429,46.83208552107582,64.06770799128681,35.9322920087132,61.74753372588935,38.25246627411066,78.4262466488702,51.241415764891634,50.77238999988538,51.71044152989789,102.48283152978328,102.48283152978328,0.6697786519024495,0.6697786519024495,22.11970792901338,1.5301000000326894,2
1777554987,15.589629629629629,23.188074074074063,25.944074,1.50537,8.93092592592592,52.693704,5.060778,91.790771,0.244141,-0.110171,-0.928345,-0.488281,9.77168,-44.555054,-11.413574,-1.374741,85.863647,44.799805,-1.384321,3.718872,-16.906738,9.599238,-30.706787,6.835938,-0.929268,97.564087,77.331543,-4.392466,6.80603,-84.960938,8.966953,-94.119873,6.408691,-1.839375,1.922607,7.8125,-0.282612,2.614746,8.544922,0.148491,-87.714844,0.061035,9.78126,96.828003,-130.432129,0.095801,-0.856934,4.699707,10.859019,-40.067139,30.578613,-4.306245,145.50293,99.365234,-1.135239,-0.148315,-42.602539,8.976533,-119.6521,18.249512,-7.012617,57.661743,55.480957,1.16877,2.988281,-70.983887,10.576406,-106.353149,-154.11377,44.298281,0,7944,38919,46083,30723,0,0,60164,24326,2817,14338,0,0,0,0,0,0,0,27915,63746,46854,0,0,0,28936,64772,11785,0,0,0,64267,10754,0,56577,17677,0,659,22419,independent_20260430_211623,trial_001,subject_001,1777554987.3974383,277779.0066,2364319,1,0,0,1,40.231970973898136,859.4613653083768,830.7891607110637,128.09844972115337,852.9929291359368,823.3876733344413,45.91659087313104,636.1455246072177,881.1517500769689,106.55803496147732,631.5639221452616,875.3997957765608,-100.108019,825.71105423214,708.4155769462227,-77.30242822,906.5543208861072,418.9774663849713,-95.64207846,897.9803066121243,277.9810260745053,-47.32300375,915.4876844973696,66.7570212421835,13.384572183193471,842.1952707466914,40.66847001993982,14.450380360932336,1115.021898205311,62.90466578265357,239.87181516727136,730.5665039224197,677.4674547347298,193.1473164083573,644.5648577620099,386.81606480824655,208.6413637491747,528.1108431939043,279.98815961934406,142.3649883879414,402.6813442376355,108.3196296778245,80.13534247265515,326.59126613265227,91.3294917419743,132.14214856617582,578.5505421654995,46.007509056941,64.06770799128681,35.9322920087132,61.74753372588935,38.25246627411066,78.4262466488702,51.241415764891634,50.77238999988538,51.71044152989789,102.48283152978328,102.48283152978328,0.6697786519024495,0.6697786519024495,22.11970792901338,1.5301000000326894,2
1777554987,15.589629629629629,23.188074074074063,25.944074,1.50537,8.93092592592592,52.693704,5.060778,91.790771,0.244141,-0.110171,-0.928345,-0.488281,9.77168,-44.555054,-11.413574,-1.374741,85.863647,44.799805,-1.384321,3.718872,-16.906738,9.599238,-30.706787,6.835938,-0.929268,97.564087,77.331543,-4.392466,6.80603,-84.960938,8.966953,-94.119873,6.408691,-1.839375,1.922607,7.8125,-0.282612,2.614746,8.544922,0.148491,-87.714844,0.061035,9.78126,96.828003,-130.432129,0.095801,-0.856934,4.699707,10.859019,-40.067139,30.578613,-4.306245,145.50293,99.365234,-1.135239,-0.148315,-42.602539,8.976533,-119.6521,18.249512,-7.012617,57.661743,55.480957,1.16877,2.988281,-70.983887,10.576406,-106.353149,-154.11377,44.298281,0,7944,38919,46083,30723,0,0,60164,24326,2817,14338,0,0,0,0,0,0,0,27915,63746,46854,0,0,0,28936,64772,11785,0,0,0,64267,10754,0,56577,17677,0,659,22419,independent_20260430_211623,trial_001,subject_001,1777554987.4069457,277779.0166,2364320,1,0,0,1,38.77361343515789,861.6945428463066,832.2773159178603,126.60496991557716,855.2048577439425,824.8914066687856,44.65161401508775,638.2854103231882,882.3612002403165,105.2637814337541,633.6657097591112,876.4936610204062,-100.7965408,828.2059233379572,709.807163012518,-77.70867153,906.285020342476,419.1929408814713,-96.53337702,896.2141839604957,278.1213069492406,-47.79757285,909.0724454,66.91963873981645,12.890952921815067,835.517112128433,41.16044991004669,13.9138637944748,1108.332649610345,60.92314986427,238.31955742692367,733.7886399419863,678.1507028469935,193.2504261813387,649.6207507701043,386.66882148693327,208.80478618057035,530.0557866202365,283.13641615635765,143.11800808899332,400.6508024184747,113.96276730550125,81.03994666279256,323.2781478757376,101.0436668829148,132.03590928106289,573.271581410499,45.2824575195328,64.06770799128681,35.9322920087132,61.74753372588935,38.25246627411066,78.4262466488702,51.241415764891634,50.77238999988538,51.71044152989789,102.48283152978328,102.48283152978328,0.6697786519024495,0.6697786519024495,22.11970792901338,1.5301000000326894,2
1777554987,15.589629629629629,23.188074074074063,25.944074,1.50537,8.93092592592592,52.693704,5.060778,91.790771,0.244141,-0.110171,-0.928345,-0.488281,9.77168,-44.555054,-11.413574,-1.374741,85.863647,44.799805,-1.384321,3.718872,-16.906738,9.599238,-30.706787,6.835938,-0.929268,97.564087,77.331543,-4.392466,6.80603,-84.960938,8.966953,-94.119873,6.408691,-1.839375,1.922607,7.8125,-0.282612,2.614746,8.544922,0.148491,-87.714844,0.061035,9.78126,96.828003,-130.432129,0.095801,-0.856934,4.699707,10.859019,-40.067139,30.578613,-4.306245,145.50293,99.365234,-1.135239,-0.148315,-42.602539,8.976533,-119.6521,18.249512,-7.012617,57.661743,55.480957,1.16877,2.988281,-70.983887,10.576406,-106.353149,-154.11377,44.298281,0,7944,38919,46083,30723,0,0,60164,24326,2817,14338,0,0,0,0,0,0,0,27915,63746,46854,0,0,0,28936,64772,11785,0,0,0,64267,10754,0,56577,17677,0,659,22419,independent_20260430_211623,trial_001,subject_001,1777554987.4174662,277779.0267,2364321,1,0,0,1,37.48507251855656,863.8383824842631,833.9779526062272,125.31919870676056,857.0875268631123,826.7164499969962,43.27346601809239,640.261771183136,883.8437015412471,103.98847787711377,635.4484587965866,877.8276894052066,-101.7527234,830.1028059225667,710.8185052293161,-78.25923068,904.923170663252,419.3194763095146,-97.22959397,893.8997905490415,278.2937389424273,-48.17107189,902.6787571322204,67.12476276885316,12.393984086038143,828.7543360816359,41.55251072477262,13.475786094721988,1101.5780321497837,59.26047852294234,237.01236763436745,737.1954294594818,679.0942470753831,193.78396446103207,655.6223836059831,386.6300435207604,209.2309454919101,532.8431390355745,286.6568919441353,143.88014084171996,399.3096388933074,120.30620571941728,81.9891075456753,321.3566473930362,112.66903041957352,132.09647142133122,568.3662174273951,44.2801633465325,64.06770799128681,35.9322920087132,61.74753372588935,38.25246627411066,78.4262466488702,51.241415764891634,50.77238999988538,51.71044152989789,102.48283152978328,102.48283152978328,0.6697786519024495,0.6697786519024495,22.11970792901338,1.5301000000326894,2
1777554987,15.594629629629637,21.51307407407407,25.049074,1.50537,12.907925925925923,52.693704,5.060778,91.796265,-1.159668,0.450264,-0.439453,7.751465,9.685459,-44.335327,-15.869141,-1.21667,87.539062,52.368164,0.119751,3.581543,1.708984,9.163345,-31.047363,0.976562,-0.268242,98.344116,24.353027,3.846401,6.789551,-41.748047,10.327324,-96.174316,8.239746,-2.687212,1.922607,7.8125,-0.282612,2.614746,8.544922,0.148491,-87.714844,0.061035,9.78126,92.850952,-130.554199,1.484912,-1.724854,48.76709,11.299702,-39.111328,25.268555,-2.313589,145.50293,99.365234,-1.135239,-0.148315,-42.602539,8.976533,-119.6521,18.249512,-7.012617,57.661743,55.480957,1.16877,2.988281,-70.983887,10.576406,-106.353149,-154.11377,44.298281,0,7944,38919,46083,30723,0,0,60164,24326,2817,14338,0,0,0,0,0,0,0,27915,63746,46854,0,0,0,28936,64772,11785,0,0,0,64267,10754,0,56577,17677,0,659,22419,independent_20260430_211623,trial_001,subject_001,1777554987.427638,277779.0367,2364322,1,0,0,1,36.43882462242593,865.9060338029348,835.8409611481053,124.20296549387966,858.6981616105355,828.7622274892168,41.43298578939405,642.018621089749,885.2204306062551,102.2149388454018,637.0321111146937,879.0611076891754,-102.7963304,831.2089513793564,711.5196214808566,-78.93324723,903.2884741557536,419.2821567739528,-97.61958935,890.720278022474,278.29046185582155,-48.21544056,896.2142204632689,66.75329946860583,11.897475528621822,821.9206057539863,41.87151108552413,13.23401614299578,1094.7880670455197,57.80140618414661,235.78110304417007,740.6897708451305,680.317053968215,194.68696885078725,662.4317466955173,386.6770115751627,209.75461141783725,536.2988318479296,290.3590696674606,144.46826790883037,398.9285027910408,127.26262973041057,82.60389020805076,320.63449107607624,125.84792603707628,132.169240040047,564.1124617849948,43.240146459481615,64.06770799128681,35.9322920087132,61.74753372588935,38.25246627411066,78.4262466488702,51.241415764891634,50.77238999988538,51.71044152989789,102.48283152978328,102.48283152978328,0.6697786519024495,0.6697786519024495,22.11970792901338,1.5301000000326894,2
1777554987,15.572629629629631,19.794074074074075,25.049074,-1.26363,12.907925925925923,64.855704,-0.877222,91.774292,-2.01416,0.273032,0.098877,9.277344,10.341694,-44.055176,-18.005371,-0.843047,89.258423,56.82373,0.799937,3.707886,50.537109,10.370435,-30.113525,-6.958008,-0.119751,98.344116,24.353027,3.846401,6.789551,-41.748047,10.327324,-96.174316,8.239746,-2.687212,2.27417,6.04248,-0.311353,3.02124,5.615234,0.277822,-87.637939,2.868652,10.221943,92.850952,-130.554199,1.484912,-1.724854,48.76709,11.299702,-39.111328,25.268555,-2.313589,146.8927,-49.072266,1.604663,2.087402,-26.245117,5.800737,-123.52478,31.25,-3.343447,51.723633,-154.23584,8.890313,6.234741,45.227051,-6.198311,-109.550171,-99.609375,3.942202,0,7944,38919,46083,30723,0,0,60164,24326,2817,14338,0,0,0,0,0,0,0,25866,25861,38149,0,0,0,6919,48134,21767,0,0,0,3593,29186,0,0,1546,0,659,22420,independent_20260430_211623,trial_001,subject_001,1777554987.4376442,277779.0468,2364323,1,0,0,1,35.44072247571839,866.7217734187284,837.8951606160699,123.27292437843128,859.9249070835733,830.9787107292275,39.72854162827157,643.5824896850079,886.5579735136256,100.2871788633679,638.4367690378544,880.2972893200125,-104.0684746,831.6108098319248,711.942093647479,-79.51297997,901.0126157994796,419.1120398304416,-97.9451996,886.6441730567605,278.22085368156405,-47.92597377,889.4041179882546,66.53015469891777,11.594646737260362,815.2280690415354,42.01971149523912,12.818461759440565,1088.0674237909618,57.16779297774112,234.8360889171038,744.0963510994013,681.7120474722791,195.88720026869493,669.7493040137064,386.763511558904,210.39205414397543,540.6422388197817,294.1154283743234,144.99868046093786,399.4891294283089,134.65995101443656,83.43338116017993,321.53455121525514,139.9657398919331,132.47231148547675,560.1614428741127,42.41590795199713,64.06770799128681,35.9322920087132,61.74753372588935,38.25246627411066,78.4262466488702,51.241415764891634,50.77238999988538,51.71044152989789,102.48283152978328,102.48283152978328,0.6697786519024495,0.6697786519024495,22.11970792901338,1.5301000000326894,2
1777554987,15.468629629629632,19.794074074074075,25.533074,-1.19163,19.878925925925927,63.734704,-0.877222,91.669922,-7.873535,-0.02874,0.450439,11.352539,9.85311,-43.829956,-17.456055,-0.866997,89.258423,56.82373,0.799937,3.707886,50.537109,10.370435,-30.113525,-6.958008,-0.119751,100.546875,28.869629,-5.163662,7.201538,-0.793457,9.599238,-91.829224,-0.549316,-1.944756,2.345581,5.92041,-0.340093,3.081665,5.79834,0.287402,-87.615967,1.89209,10.150093,85.880127,-111.26709,0.651445,-2.598267,99.060059,9.263936,-34.530029,14.160156,-2.48124,145.772095,-79.345703,1.072969,1.889648,2.075195,4.88105,-123.931274,28.930664,-4.129014,51.723633,-154.23584,8.890313,6.234741,45.227051,-6.198311,-109.550171,-99.609375,3.942202,0,7944,38919,46083,30723,0,0,60164,24326,2817,14338,0,0,0,0,0,0,0,27141,35588,37382,0,0,0,63744,41731,58886,0,0,0,18177,0,0,0,49154,0,659,22421,independent_20260430_211623,trial_001,subject_001,1777554987.4571576,277779.0667,2364325,1,0,0,1,33.98999712759467,869.9304444137076,841.6792254740442,121.56675698270332,861.644399615881,835.541394117851,36.009034306492715,645.9504630345899,889.415365698656,96.72808338232922,640.0312704865443,883.1852815354929,-106.579773,830.6393951374383,712.279966714146,-80.85019307,893.7559600322692,418.33742767371695,-97.97528753,875.1906458161723,278.10683899196187,-48.72550858,875.5937957758536,67.03195771892713,11.13089988516784,801.5394947496259,42.11612429275244,12.317391641057975,1074.231521997297,56.84479441961466,233.6657995321572,750.4756883166879,685.0725932110804,199.10127514721376,685.7097040766644,387.6456654077136,211.664615993752,551.8490914372737,301.6485067783965,145.8164422981321,403.2750060748133,150.4859080088773,84.46040310894813,327.44219892093264,154.7420472153954,133.65110991857804,553.6467045033264,41.958780895698034,64.06770799128681,35.9322920087132,61.74753372588935,38.25246627411066,78.4262466488702,51.241415764891634,50.77238999988538,51.71044152989789,102.48283152978328,102.48283152978328,0.6697786519024495,0.6697786519024495,22.11970792901338,1.5301000000326894,2
1777554987,15.468629629629632,19.794074074074075,25.533074,-1.19163,19.878925925925927,63.734704,-0.877222,91.669922,-7.873535,-0.02874,0.450439,11.352539,9.85311,-43.829956,-17.456055,-0.866997,89.258423,56.82373,0.799937,3.707886,50.537109,10.370435,-30.113525,-6.958008,-0.119751,100.546875,28.869629,-5.163662,7.201538,-0.793457,9.599238,-91.829224,-0.549316,-1.944756,2.345581,5.92041,-0.340093,3.081665,5.79834,0.287402,-87.615967,1.89209,10.150093,85.880127,-111.26709,0.651445,-2.598267,99.060059,9.263936,-34.530029,14.160156,-2.48124,145.772095,-79.345703,1.072969,1.889648,2.075195,4.88105,-123.931274,28.930664,-4.129014,51.723633,-154.23584,8.890313,6.234741,45.227051,-6.198311,-109.550171,-99.609375,3.942202,0,7944,38919,46083,30723,0,0,60164,24326,2817,14338,0,0,0,0,0,0,0,27141,35588,37382,0,0,0,63744,41731,58886,0,0,0,18177,0,0,0,49154,0,659,22421,independent_20260430_211623,trial_001,subject_001,1777554987.4571576,277779.0667,2364325,1,0,0,1,33.98999712759467,869.9304444137076,841.6792254740442,121.56675698270332,861.644399615881,835.541394117851,36.009034306492715,645.9504630345899,889.415365698656,96.72808338232922,640.0312704865443,883.1852815354929,-106.579773,830.6393951374383,712.279966714146,-80.85019307,893.7559600322692,418.33742767371695,-97.97528753,875.1906458161723,278.10683899196187,-48.72550858,875.5937957758536,67.03195771892713,11.13089988516784,801.5394947496259,42.19177622127757,12.317391641057975,1074.231521997297,56.72837249640579,233.6657995321572,750.4756883166879,685.0725932110804,199.10127514721376,685.7097040766644,387.6456654077136,211.664615993752,551.8490914372737,301.6485067783965,145.8164422981321,403.2750060748133,150.4859080088773,84.46040310894813,327.44219892093264,169.7480455794979,133.65110991857804,553.6467045033264,42.01967469003467,64.06770799128681,35.9322920087132,61.74753372588935,38.25246627411066,78.4262466488702,51.241415764891634,50.77238999988538,51.71044152989789,102.48283152978328,102.48283152978328,0.6697786519024495,0.6697786519024495,22.11970792901338,1.5301000000326894,2
1777554987,15.468629629629632,19.794074074074075,25.533074,-1.19163,19.878925925925927,63.734704,-0.877222,91.669922,-7.873535,-0.02874,0.450439,11.352539,9.85311,-43.829956,-17.456055,-0.866997,89.258423,56.82373,0.799937,3.707886,50.537109,10.370435,-30.113525,-6.958008,-0.119751,100.546875,28.869629,-5.163662,7.201538,-0.793457,9.599238,-91.829224,-0.549316,-1.944756,2.345581,5.92041,-0.340093,3.081665,5.79834,0.287402,-87.615967,1.89209,10.150093,85.880127,-111.26709,0.651445,-2.598267,99.060059,9.263936,-34.530029,14.160156,-2.48124,145.772095,-79.345703,1.072969,1.889648,2.075195,4.88105,-123.931274,28.930664,-4.129014,51.723633,-154.23584,8.890313,6.234741,45.227051,-6.198311,-109.550171,-99.609375,3.942202,0,7944,38919,46083,30723,0,0,60164,24326,2817,14338,0,0,0,0,0,0,0,42242,0,15619,0,0,0,0,0,7685,0,0,0,0,0,0,0,2816,0,659,22422,independent_20260430_211623,trial_001,subject_001,1777554987.4671576,277779.0767,2364326,1,0,0,1,33.11062671380476,870.6723118438601,843.200460392233,120.79817062105256,861.563965008874,837.7041808168805,34.23419950070565,646.6893978599136,890.807942991244,94.85407861807737,640.6694684985254,884.5092966225319,-107.7117542,829.6490260286507,712.5211453493879,-81.67371298,889.0370186283361,417.74170760076777,-97.94153383,868.2896353302543,278.0745428972919,-49.1279203,868.957686082594,67.0596973893213,10.706279975033093,794.7175345087238,42.257096619063496,12.13068122891047,1067.3461375353863,56.6607362528386,233.2357973079497,753.4010794439206,686.8442616635941,200.87049214199035,694.2293150254739,388.2163416503666,212.26872715181807,558.4081052204691,305.3211591426564,145.9670403264727,405.47750945802,158.58844915405746,84.68188649480068,332.7242157038263,184.5239649676824,134.27669104822974,550.904908567901,42.6702844084158,64.06770799128681,35.9322920087132,61.74753372588935,38.25246627411066,78.4262466488702,51.241415764891634,50.77238999988538,51.71044152989789,102.48283152978328,102.48283152978328,0.6697786519024495,0.6697786519024495,22.11970792901338,1.5301000000326894,2
1777554987,15.177629629629635,16.487074074074073,25.533074,-3.21363,19.878925925925927,66.514704,-7.705222,91.378784,-8.666992,-0.239502,1.043701,21.484375,8.880732,-43.181763,-17.578125,-0.153281,92.565308,59.143066,-0.550854,4.174805,81.970215,9.699829,-26.141968,-6.835938,-0.914897,100.546875,28.869629,-5.163662,7.201538,-0.793457,9.599238,-91.829224,-0.549316,-1.944756,2.526855,4.943848,-0.531694,3.24646,4.638672,0.306563,-87.599487,0.976562,10.207573,85.880127,-111.26709,0.651445,-2.598267,99.060059,9.263936,-34.530029,14.160156,-2.48124,141.580811,-141.174316,-0.095801,0.494385,48.950195,4.449946,-123.903809,20.263672,-7.280859,45.164795,-138.85498,3.72665,8.904419,31.311035,-1.288521,-109.37439,-9.643555,7.769443,0,7944,38919,46083,30723,0,0,60164,24326,2817,14338,0,0,0,0,0,0,0,0,0,0,0,0,0,0,0,56833,0,0,0,0,0,0,0,0,0,659,22423,independent_20260430_211623,trial_001,subject_001,1777554987.4771566,277779.0867,2364327,1,0,0,1,32.12623265379224,871.0501644742881,844.5181488573758,119.96057017167614,861.4905094266663,839.9940182367727,32.83568887015348,647.0932448410753,892.1916688237974,93.44033097310628,640.8548019787667,885.7371485393929,-108.8173734,828.6148575498913,713.0274698746847,-82.74117888,883.7478686546742,417.406915004543,-98.19975445,861.2064027570632,278.234089266019,-49.44498182,861.9937610982981,67.0348914880135,10.297061513511144,787.8314013284988,42.22676914115956,11.867552551131409,1060.428387700528,57.08084655225481,232.92980549848923,756.1343641151316,688.49992750113,202.61627435759667,703.047778224414,388.6522070211653,212.93475236112585,565.2905614180609,309.0770933666383,145.98287691132182,408.6834079729599,167.46821806670513,85.1159354701304,339.66884456001725,198.4895174405937,135.35521643122263,548.3889252431782,43.93679315636077,64.06770799128681,35.9322920087132,61.74753372588935,38.25246627411066,78.4262466488702,51.241415764891634,50.77238999988538,51.71044152989789,102.48283152978328,102.48283152978328,0.6697786519024495,0.6697786519024495,22.11970792901338,1.5301000000326894,2
1777554988,15.177629629629635,16.487074074074073,25.533074,-3.21363,19.878925925925927,66.514704,-7.705222,91.378784,-8.666992,-0.239502,1.043701,21.484375,8.880732,-43.181763,-17.578125,-0.153281,92.565308,59.143066,-0.550854,4.174805,81.970215,9.699829,-26.141968,-6.835938,-0.914897,100.546875,28.869629,-5.163662,7.201538,-0.793457,9.599238,-91.829224,-0.549316,-1.944756,2.526855,4.943848,-0.531694,3.24646,4.638672,0.306563,-87.599487,0.976562,10.207573,85.880127,-111.26709,0.651445,-2.598267,99.060059,9.263936,-34.530029,14.160156,-2.48124,141.580811,-141.174316,-0.095801,0.494385,48.950195,4.449946,-123.903809,20.263672,-7.280859,45.164795,-138.85498,3.72665,8.904419,31.311035,-1.288521,-109.37439,-9.643555,7.769443,0,7944,38919,46083,30723,0,0,60164,24326,2817,14338,0,0,0,0,0,0,0,0,0,0,0,0,0,0,0,56833,0,0,0,0,0,0,0,0,0,659,22423,independent_20260430_211623,trial_001,subject_001,1777554987.497157,277779.1069,2364329,1,0,0,1,30.164203914316243,871.2349734498207,846.9491327627446,117.95915412188413,861.3543102429877,843.3845886977134,30.83697797570549,647.0908240831018,894.9458213159153,91.3333484228105,640.6722729589083,888.1509357186419,-110.1847748,826.2182847902171,714.3813051761518,-85.60505155,873.4976372582851,417.43165347334207,-100.2398443,848.0614749219276,278.7128598867319,-50.30580201,848.2406322934551,66.84079955047919,9.851366705567496,774.0533741848109,42.19676641574446,10.992231863476196,1046.6896244176407,57.50175920857709,232.82910824736945,760.9369047244189,691.6651669490545,206.1500001097515,721.230367274972,390.33535421135286,214.43501400944544,580.2817278839714,316.89430374499926,145.49820657393286,417.2257037955515,184.6864856430612,86.03844595284593,359.9566955229779,211.7955679724332,138.1546206245177,543.4902063040516,45.8772204983383,64.06770799128681,35.9322920087132,61.74753372588935,38.25246627411066,78.4262466488702,51.241415764891634,50.77238999988538,51.71044152989789,102.48283152978328,102.48283152978328,0.6697786519024495,0.6697786519024495,22.11970792901338,1.5301000000326894,1
1777554988,15.177629629629635,16.487074074074073,25.533074,-3.21363,19.878925925925927,66.514704,-7.705222,91.378784,-8.666992,-0.239502,1.043701,21.484375,8.880732,-43.181763,-17.578125,-0.153281,92.565308,59.143066,-0.550854,4.174805,81.970215,9.699829,-26.141968,-6.835938,-0.914897,100.546875,28.869629,-5.163662,7.201538,-0.793457,9.599238,-91.829224,-0.549316,-1.944756,2.526855,4.943848,-0.531694,3.24646,4.638672,0.306563,-87.599487,0.976562,10.207573,85.880127,-111.26709,0.651445,-2.598267,99.060059,9.263936,-34.530029,14.160156,-2.48124,141.580811,-141.174316,-0.095801,0.494385,48.950195,4.449946,-123.903809,20.263672,-7.280859,45.164795,-138.85498,3.72665,8.904419,31.311035,-1.288521,-109.37439,-9.643555,7.769443,0,7944,38919,46083,30723,0,0,60164,24326,2817,14338,0,0,0,0,0,0,0,0,0,0,0,0,0,0,0,56833,0,0,0,0,0,0,0,0,0,659,22423,independent_20260430_211623,trial_001,subject_001,1777554987.527187,277779.1368,2364332,1,0,0,1,27.28277948959701,869.2257825984108,849.6505611745805,115.07135921211793,859.9222470851802,847.5512561485338,28.444988051033647,645.4297986025593,898.2157307010035,89.05981775807462,638.9759849000915,891.2388933827646,-112.6705581,820.4755376949236,715.4773162112136,-88.89179183,860.2791807866577,416.8435729879303,-103.9507687,833.0235604259483,278.1310981655088,-51.93000867,827.7741082300985,66.61295123864863,8.123568409978263,753.2722626519605,42.22005703840006,9.795777762063535,1025.7173748052296,57.62773975256354,233.68698586595133,766.8193958955085,697.0845355859665,212.7338952266961,748.3147647999363,395.4423377850405,217.93727338946047,603.8967869465295,329.48663448687074,144.24584564724768,435.8971877322197,204.8068461852912,80.0398267308143,388.1625807615713,223.383582205638,147.38327179325836,548.6996943373324,48.3584981761254,64.06770799128681,35.9322920087132,61.74753372588935,38.25246627411066,78.4262466488702,51.241415764891634,50.77238999988538,51.71044152989789,102.48283152978328,102.48283152978328,0.6697786519024495,0.6697786519024495,22.11970792901338,1.5301000000326894,1
1777554988,15.177629629629635,16.487074074074073,25.533074,-3.21363,19.878925925925927,66.514704,-7.705222,91.378784,-8.666992,-0.239502,1.043701,21.484375,8.880732,-43.181763,-17.578125,-0.153281,92.565308,59.143066,-0.550854,4.174805,81.970215,9.699829,-26.141968,-6.835938,-0.914897,100.546875,28.869629,-5.163662,7.201538,-0.793457,9.599238,-91.829224,-0.549316,-1.944756,2.526855,4.943848,-0.531694,3.24646,4.638672,0.306563,-87.599487,0.976562,10.207573,85.880127,-111.26709,0.651445,-2.598267,99.060059,9.263936,-34.530029,14.160156,-2.48124,141.580811,-141.174316,-0.095801,0.494385,48.950195,4.449946,-123.903809,20.263672,-7.280859,45.164795,-138.85498,3.72665,8.904419,31.311035,-1.288521,-109.37439,-9.643555,7.769443,0,7944,38919,46083,30723,0,0,60164,24326,2817,14338,0,0,0,0,0,0,0,0,0,0,0,0,0,0,0,0,0,0,0,0,0,0,0,0,0,659,22424,independent_20260430_211623,trial_001,subject_001,1777554987.527187,277779.1368,2364332,1,0,0,1,27.28277948959701,869.2257825984108,849.6505611745805,115.07135921211793,859.9222470851802,847.5512561485338,28.444988051033647,645.4297986025593,898.2157307010035,89.05981775807462,638.9759849000915,891.2388933827646,-112.6705581,820.4755376949236,715.4773162112136,-88.89179183,860.2791807866577,416.8435729879303,-103.9507687,833.0235604259483,278.1310981655088,-51.93000867,827.7741082300985,66.61295123864863,8.123568409978263,753.2722626519605,42.29032789307129,9.795777762063535,1025.7173748052296,57.606480733621126,233.68698586595133,766.8193958955085,697.0845355859665,212.7338952266961,748.3147647999363,395.4423377850405,217.93727338946047,603.8967869465295,329.48663448687074,144.24584564724768,435.8971877322197,204.8068461852912,80.0398267308143,388.1625807615713,232.8368582086542,147.38327179325836,548.6996943373324,51.19585952223779,64.06770799128681,35.9322920087132,61.74753372588935,38.25246627411066,78.4262466488702,51.241415764891634,50.77238999988538,51.71044152989789,102.48283152978328,102.48283152978328,0.6697786519024495,0.6697786519024495,22.11970792901338,1.5301000000326894,1
1777554988,15.177629629629635,14.256074074074064,22.995074,-3.87863,23.086925925925925,66.514704,-10.254222,91.378784,-8.666992,-0.239502,1.043701,21.484375,8.880732,-43.181763,-17.578125,-0.153281,94.795532,56.335449,-0.958008,4.015503,72.570801,9.263936,-23.494263,2.807617,-1.111289,101.315918,27.709961,0.244292,7.196045,-15.563965,9.412427,-92.488403,7.141113,-2.39502,2.631226,3.234863,-0.431104,3.416748,5.004883,0.296982,-87.599487,1.220703,10.274634,82.672119,-94.787598,-0.799937,-2.510376,107.177734,8.459209,-31.311035,5.859375,-2.43813,141.580811,-141.174316,-0.095801,0.494385,48.950195,4.449946,-123.903809,20.263672,-7.280859,38.424683,-223.266602,1.853745,7.811279,-45.410156,1.580713,-109.407349,37.841797,11.08894,0,7944,38919,46083,30723,0,0,60164,24326,2817,14338,0,0,0,0,0,0,0,0,0,0,0,0,0,0,0,0,0,0,0,0,0,0,0,0,0,659,22424,independent_20260430_211623,trial_001,subject_001,1777554987.5371852,277779.1469,2364333,1,0,0,1,26.2235648559406,868.1325768493722,850.3174243201508,114.03659663837624,859.0976339946345,848.8572103220317,27.590133871723765,644.6485895468372,898.9072699305119,88.36990662611055,638.1395318027284,892.086279709602,-113.3482555,818.1646093328362,715.7513702898333,-89.5431724,856.1285259953038,416.58802580014185,-104.827446,828.5557058611444,277.9463493958606,-52.15575421,820.824390790701,66.56816028193498,7.727663343359565,746.287428799392,42.37430289601808,9.445135563,1018.6579717389455,57.57189501973959,233.75698587099387,769.3774578015275,698.386292573977,215.12978384575948,756.9433679356661,397.5634799686721,218.77820785866297,611.569467946301,333.5675411584624,143.75628042804104,443.4310259961355,209.7888681724628,76.65261830979823,395.71198919889946,240.2404953956321,151.5146578467859,556.9981810456181,54.359192618413054,64.06770799128681,35.9322920087132,61.74753372588935,38.25246627411066,78.4262466488702,51.241415764891634,50.77238999988538,51.71044152989789,102.48283152978328,102.48283152978328,0.6697786519024495,0.6697786519024495,22.11970792901338,1.5301000000326894,1
1777554988,15.04562962962963,14.256074074074064,21.703074,-3.87863,25.898925925925923,63.504704,-10.892222,91.246948,-3.417969,-0.670605,1.538086,23.55957,8.847202,-42.451172,-16.052246,0.268242,94.795532,56.335449,-0.958008,4.015503,72.570801,9.263936,-23.494263,2.807617,-1.111289,102.255249,17.578125,-0.416733,7.036743,47.058105,9.441167,-91.19751,-6.04248,-2.016606,2.631226,3.234863,-0.431104,3.416748,5.004883,0.296982,-87.599487,1.220703,10.274634,79.859619,-65.368652,-2.035767,-2.362061,45.288086,7.999365,-28.723755,11.108398,-1.705254,135.362549,-199.157715,-0.02395,-1.636963,81.970215,4.737349,-122.612915,6.530762,-7.026987,31.569214,-224.060059,-2.653682,5.795288,-54.931641,1.892065,-109.077759,46.081543,6.370752,0,7944,38919,46083,30723,0,0,60164,24326,2817,14338,0,0,0,0,0,0,0,0,0,0,0,0,0,0,0,0,0,0,0,0,0,0,0,0,0,659,22425,independent_20260430_211623,trial_001,subject_001,1777554987.547187,277779.1569,2364334,1,0,0,1,25.119564988509577,866.9651747107443,850.6882262953525,112.98974376111448,858.1944575194956,850.2087956503025,26.966026947199254,643.4921752562532,899.8543595473889,87.62053349738797,637.1285720530252,892.8657217896526,-113.9242438,815.8611902153712,716.0144999033772,-90.02564793,851.4763161457779,416.4233965101707,-105.4999734,823.6213113972171,277.8394198565289,-52.51182887,813.8250717199523,66.3484155065291,7.288063790837673,739.2311601752747,42.47225221430331,8.990812056503065,1011.3693718049034,57.5418933930266,234.32907531057225,771.2124581893571,700.4028806129288,217.5501802228304,765.3694641976809,399.8459552022752,218.70723127196,619.0519176719055,337.4874269855796,144.16471476803983,451.7792732329211,214.5953497788124,73.2867973094329,404.3118326907137,245.4000332708161,155.25845188853472,566.9279783897313,57.71248355698729,64.06770799128681,35.9322920087132,61.74753372588935,38.25246627411066,78.4262466488702,51.241415764891634,50.77238999988538,51.71044152989789,102.48283152978328,102.48283152978328,0.6697786519024495,0.6697786519024495,22.11970792901338,1.5301000000326894,1
1777554988,15.094629629629637,12.219074074074072,20.688074,-4.84463,25.898925925925923,59.625704,-10.892222,91.296387,0.915527,-0.684976,2.059937,21.728516,8.986113,-41.654663,-14.465332,0.354463,96.833496,49.438477,-1.858535,3.619995,46.447754,9.80042,-21.456299,6.591797,-1.2502,103.276978,27.648926,-2.615361,6.773071,7.69043,9.139395,-90.247192,4.943848,-1.484912,2.60376,-0.305176,-0.608335,3.515625,4.089355,0.435894,-87.599487,1.159668,10.020762,79.859619,-65.368652,-2.035767,-2.362061,45.288086,7.999365,-28.723755,11.108398,-1.705254,128.671875,-232.116699,-2.011816,-2.565308,22.399902,5.518125,-121.481323,-6.164551,-7.462881,31.569214,-224.060059,-2.653682,5.795288,-54.931641,1.892065,-109.077759,46.081543,6.370752,0,7944,38919,46083,30723,0,0,60164,24326,2817,14338,0,0,0,0,0,0,0,0,0,0,0,0,0,0,0,0,0,0,0,0,0,0,0,0,0,659,22425,independent_20260430_211623,trial_001,subject_001,1777554987.557191,277779.1666,2364335,1,0,0,1,24.061963370245707,865.6191027223063,851.3926967811259,111.9828491280414,857.2115281400437,851.5502258610634,26.196166693713263,642.3454886249448,900.4800293572074,87.04026373611066,636.0287532202435,893.6992473000275,-114.3984689,813.546768646425,716.2652091009575,-90.73055818,846.5461070904397,416.1768968821202,-105.9733124,817.5145433099744,277.651778084879,-52.72877439,806.979316761434,66.24132313965958,7.06987004533529,732.2934479134642,42.58101930232489,8.56960331281507,1004.4346046863628,57.511002192147785,235.3523638796204,772.1598133049273,703.4665449979104,219.82762102279457,773.6575122486453,402.3546777797963,219.042488822814,626.9394509506348,340.8423978953172,143.5390872007824,460.9825463960065,217.60429918309137,70.84799441131639,413.5552978326478,248.15997967086264,158.49815162757184,577.7506892935402,61.13619790122904,64.06770799128681,35.9322920087132,61.74753372588935,38.25246627411066,78.4262466488702,51.241415764891634,50.77238999988538,51.71044152989789,102.48283152978328,102.48283152978328,0.6697786519024495,0.6697786519024495,22.11970792901338,1.5301000000326894,1
1777554988,15.094629629629637,10.730074074074068,20.688074,-6.04863,27.645925925925923,52.511704,-11.919222,91.296387,0.915527,-0.684976,2.059937,21.728516,8.986113,-41.654663,-14.465332,0.354463,98.322144,39.123535,-1.523232,3.35083,10.253906,9.469907,-20.681763,4.699707,-0.723296,103.276978,27.648926,-2.615361,6.773071,7.69043,9.139395,-90.247192,4.943848,-1.484912,2.422485,-6.04248,-0.517324,3.619995,2.990723,0.531694,-87.577515,1.586914,10.178833,78.112793,-37.536621,-0.201182,-2.966309,-3.845215,7.141948,-28.256836,25.024414,-0.958008,119.811401,-266.357422,0.426313,-2.103882,-29.541016,7.180269,-121.959229,-2.624512,-8.210127,23.851318,-219.787598,-3.999683,3.581543,-52.612305,3.161426,-109.484253,2.197266,11.03625,0,7944,38919,46083,30723,0,0,60164,24326,2817,14338,0,0,0,0,0,0,0,0,0,0,0,0,0,0,0,0,0,0,0,0,0,0,0,0,0,659,22425,independent_20260430_211623,trial_001,subject_001,1777554987.567702,277779.177,2364336,1,0,0,1,23.0182820566015,864.2077653023828,852.1549744373345,110.97591499610304,856.1828831826042,852.9579985271062,25.64223326511206,640.9728871466933,901.0711901661216,86.35033292287616,634.818831826282,894.3796798879822,-114.9565556,811.2422360771055,716.5044416887408,-91.23789866,840.7699998706661,416.0364553168954,-106.4981932,810.8347083838247,277.8357663935338,-53.22681195,800.0142864424818,66.24630507368377,6.780064867756675,725.2993168762584,42.70882385890844,8.358420527500433,997.2621354599314,57.47762327229588,235.97525097405503,773.72942637222,705.8274291019079,221.91503410651296,781.9503831282343,405.08112808861966,219.4952320277679,635.2251670360994,343.72255670602243,142.75259201131365,470.4889150069607,219.63329460139872,69.71092527380644,422.8196084311577,247.92640707262711,161.76970315249835,589.2426689592879,64.38740384708464,64.06770799128681,35.9322920087132,61.74753372588935,38.25246627411066,78.4262466488702,51.241415764891634,50.77238999988538,51.71044152989789,102.48283152978328,102.48283152978328,0.6697786519024495,0.6697786519024495,22.11970792901338,1.5301000000326894,1
1777554988,15.094629629629637,10.730074074074068,20.688074,-6.04863,27.645925925925923,52.511704,-11.919222,91.296387,0.915527,-0.684976,2.059937,21.728516,8.986113,-41.654663,-14.465332,0.354463,98.322144,39.123535,-1.523232,3.35083,10.253906,9.469907,-20.681763,4.699707,-0.723296,103.276978,27.648926,-2.615361,6.773071,7.69043,9.139395,-90.247192,4.943848,-1.484912,2.422485,-6.04248,-0.517324,3.619995,2.990723,0.531694,-87.577515,1.586914,10.178833,78.112793,-37.536621,-0.201182,-2.966309,-3.845215,7.141948,-28.256836,25.024414,-0.958008,119.811401,-266.357422,0.426313,-2.103882,-29.541016,7.180269,-121.959229,-2.624512,-8.210127,23.851318,-219.787598,-3.999683,3.581543,-52.612305,3.161426,-109.484253,2.197266,11.03625,0,7944,38919,46083,30723,0,0,60164,24326,2817,14338,0,0,0,0,0,0,0,0,0,0,0,0,0,0,0,0,0,0,0,0,0,0,0,0,0,659,22425,independent_20260430_211623,trial_001,subject_001,1777554987.5777075,277779.1868,2364337,1,0,0,1,22.02585847634757,862.9347438748053,852.982769951099,109.993179936089,854.814641394915,854.4596846306421,25.00441346126369,639.6349161237232,901.7969845916396,85.6265775144663,633.6071952376036,895.0492843179844,-115.3376451,808.651915035168,716.7224324103736,-92.19731723,834.8847795796839,416.0577372854038,-106.9490942,803.6684810308305,278.0293944164675,-53.48833348,793.0306580553993,66.29021132937984,6.441936304797526,718.1973217685808,42.82583799750776,8.054034456557648,990.15634555129,57.45356889538497,236.1949062665588,776.0254448332839,707.3966898371101,223.7021880175845,790.144749549649,407.9163844461886,220.1342994563679,643.7169707132563,345.8878094459988,142.22663666973614,480.4321820233018,220.5371456415903,68.72584604265398,432.6162256260537,247.45087346462725,164.712338170636,601.0820422706283,67.44579770985803,64.06770799128681,35.9322920087132,61.74753372588935,38.25246627411066,78.4262466488702,51.241415764891634,50.77238999988538,51.71044152989789,102.48283152978328,102.48283152978328,0.6697786519024495,0.6697786519024495,22.11970792901338,1.5301000000326894,1
1777554988,15.094629629629637,10.730074074074068,20.688074,-6.04863,27.645925925925923,52.511704,-11.919222,91.296387,0.915527,-0.684976,2.059937,21.728516,8.986113,-41.654663,-14.465332,0.354463,98.322144,39.123535,-1.523232,3.35083,10.253906,9.469907,-20.681763,4.699707,-0.723296,103.276978,27.648926,-2.615361,6.773071,7.69043,9.139395,-90.247192,4.943848,-1.484912,2.422485,-6.04248,-0.517324,3.619995,2.990723,0.531694,-87.577515,1.586914,10.178833,78.112793,-37.536621,-0.201182,-2.966309,-3.845215,7.141948,-28.256836,25.024414,-0.958008,119.811401,-266.357422,0.426313,-2.103882,-29.541016,7.180269,-121.959229,-2.624512,-8.210127,23.851318,-219.787598,-3.999683,3.581543,-52.612305,3.161426,-109.484253,2.197266,11.03625,0,7944,38919,46083,30723,0,0,60164,24326,2817,14338,0,0,0,0,0,0,0,0,0,0,0,0,0,0,0,0,0,0,0,0,0,0,0,0,0,659,22425,independent_20260430_211623,trial_001,subject_001,1777554987.5877063,277779.1969,2364338,1,0,0,1,21.031318469541045,861.2961356930359,853.9208784378056,108.998747915445,851.5312354025031,856.3621586421713,24.53701647322148,638.114868202294,902.4513605862196,85.39571770658964,632.0423936116719,895.8039441047421,-115.7173656,805.90065124475,716.912674962226,-92.79381575,828.4979791204178,416.0877501637358,-107.3161997,796.4949128949605,278.36212414978,-53.37522768,785.8942874188061,66.24481112663092,6.308442665003386,711.1057646993318,42.93534438913102,7.703128242951887,983.129968797328,57.43695470407029,237.20086915734555,776.9091918103937,710.8897123268573,225.3673839513781,798.1928418194445,410.732859396968,220.57931649898768,652.3211439243873,347.436252735473,141.84638651899655,491.048131508933,220.3657990968497,67.72662685594604,443.2643110591904,244.5780044311557,167.67036097903372,613.3034117420044,70.19136946791473,64.06770799128681,35.9322920087132,61.74753372588935,38.25246627411066,78.4262466488702,51.241415764891634,50.77238999988538,51.71044152989789,102.48283152978328,102.48283152978328,0.6697786519024495,0.6697786519024495,22.11970792901338,1.5301000000326894,1
1777554988,15.215629629629632,9.510074074074067,20.369074,-6.04863,28.392925925925923,52.511704,-10.726222,91.417236,1.281738,-0.929268,2.449951,14.953613,8.713081,-41.011963,-9.094238,0.416733,99.541626,39.306641,-0.387993,3.153076,7.141113,9.594448,-20.500488,6.530762,-0.263452,104.447021,35.705566,-0.364043,6.503906,11.230469,9.263936,-90.115356,7.080078,-1.839375,2.422485,-6.04248,-0.517324,3.619995,2.990723,0.531694,-87.577515,1.586914,10.178833,77.365723,-12.695312,0.651445,-3.823242,10.192871,7.084468,-28.042603,24.658203,-0.895737,119.811401,-266.357422,0.426313,-2.103882,-29.541016,7.180269,-121.959229,-2.624512,-8.210127,16.182861,-216.73584,-1.2023,1.834717,-77.331543,5.834268,-110.967407,-28.442383,14.633569,0,7944,38919,46083,30723,0,0,60164,24326,2817,14338,0,0,0,0,0,0,0,0,0,0,0,0,0,0,0,0,0,0,0,0,0,0,0,0,0,659,22425,independent_20260430_211623,trial_001,subject_001,1777554987.607314,277779.2169,2364340,1,0,0,1,19.22548226823173,858.0504275374445,855.9342300404415,0.0,0.0,0.0,23.81081533208757,634.7957164175822,903.6237167718864,84.5520287774054,629.1336368084575,897.263351775844,-116.4714385,799.3854716760212,717.3111169561674,-94.15837776,816.5219755849402,416.20692564533147,-108.3281896,782.9072904353595,278.7657475888335,-54.14916337,771.8661088701779,66.39726885590812,5.635105282234909,697.0471697795547,43.06561390794777,7.070786679086108,968.91360036195,57.4537982472001,238.27586366084603,780.0946733910264,715.9879284589615,228.00837374755545,813.8200987594299,416.4598944459612,222.1756865140313,669.7339883577092,348.93549859977577,142.03608561705286,513.0548996991802,217.2680884313704,66.56341437025056,465.751743036663,239.8880818310745,173.54449566009194,639.2597729995607,72.30224968671122,64.06770799128681,35.9322920087132,61.74753372588935,38.25246627411066,78.4262466488702,51.241415764891634,50.77238999988538,51.71044152989789,102.48283152978328,102.48283152978328,0.6697786519024495,0.6697786519024495,22.11970792901338,1.5301000000326894,1
1777554988,15.215629629629632,9.510074074074067,20.369074,-6.04863,28.392925925925923,52.511704,-10.726222,91.417236,1.281738,-0.929268,2.449951,14.953613,8.713081,-41.011963,-9.094238,0.416733,99.541626,39.306641,-0.387993,3.153076,7.141113,9.594448,-20.500488,6.530762,-0.263452,104.447021,35.705566,-0.364043,6.503906,11.230469,9.263936,-90.115356,7.080078,-1.839375,2.422485,-6.04248,-0.517324,3.619995,2.990723,0.531694,-87.577515,1.586914,10.178833,77.365723,-12.695312,0.651445,-3.823242,10.192871,7.084468,-28.042603,24.658203,-0.895737,119.811401,-266.357422,0.426313,-2.103882,-29.541016,7.180269,-121.959229,-2.624512,-8.210127,16.182861,-216.73584,-1.2023,1.834717,-77.331543,5.834268,-110.967407,-28.442383,14.633569,0,7944,38919,46083,30723,0,0,60164,24326,2817,14338,0,0,0,0,0,0,0,0,0,0,0,0,0,0,0,0,0,0,0,0,0,0,0,0,0,659,22426,independent_20260430_211623,trial_001,subject_001,1777554987.6370566,277779.2467,2364343,1,0,0,1,16.461308427020292,852.6339586614134,858.5343157333541,0.0,0.0,0.0,23.36347009839085,629.2758006908751,904.9636568742128,84.24489089674941,624.2037439559679,898.9559660928064,-117.3954919,790.3125155105517,717.5600256092695,-95.88815692,799.4480064427192,416.26620792324815,-110.1900611,764.7295149715545,278.9589698377911,-55.10888063,750.745208708847,66.54865146147242,5.143077521256737,676.3021832134373,43.1905194907932,5.83180383802984,947.841543628515,57.4634075947173,239.01111217986744,784.9110138868189,722.7824007120885,230.88280448319145,835.003434571152,425.1108857390463,225.08370948585764,695.6962706954289,347.15806144562043,144.51542578997618,548.8421446033452,205.17445240174783,68.15542689817246,500.3947360217866,232.02984624153368,180.64017933814569,685.6993166176873,73.58522513233973,64.06770799128681,35.9322920087132,61.74753372588935,38.25246627411066,78.4262466488702,51.241415764891634,50.77238999988538,51.71044152989789,102.48283152978328,102.48283152978328,0.6697786519024495,0.6697786519024495,22.11970792901338,1.5301000000326894,1
1777554988,15.375629629629628,9.510074074074067,20.347074,-7.33363,28.392925925925923,39.822704,-10.726222,91.576538,2.502441,-0.833467,2.642212,17.39502,9.115444,-40.45166,-3.601074,0.627495,99.541626,39.306641,-0.387993,3.153076,7.141113,9.594448,-20.500488,6.530762,-0.263452,105.644531,40.344238,-1.24062,6.218262,9.70459,9.273516,-89.824219,6.835938,-2.203418,2.307129,0.915527,-0.608335,3.685913,2.624512,0.081431,-87.577515,1.098633,9.901011,77.365723,-12.695312,0.651445,-3.823242,10.192871,7.084468,-28.042603,24.658203,-0.895737,106.375122,-263.977051,1.092129,-1.911621,8.483887,8.899893,-122.44812,4.455566,-6.998247,16.182861,-216.73584,-1.2023,1.834717,-77.331543,5.834268,-110.967407,-28.442383,14.633569,0,7944,38919,46083,30723,0,0,60164,24326,2817,14338,0,0,0,0,0,0,0,0,0,0,0,0,0,0,0,0,0,0,0,0,0,0,0,0,0,659,22426,independent_20260430_211623,trial_001,subject_001,1777554987.6480317,277779.2577,2364344,1,0,0,1,15.52535127124079,850.6025477738375,859.16468618427,0.0,0.0,0.0,23.30580380108576,627.413479544165,905.4437487688906,84.33484486360932,622.4496457814649,899.412366081838,-117.8236729,786.7042210742776,717.568740792089,-96.45684736,793.5870375008097,416.331437630564,-110.7337811,758.5545521475741,278.97599864825213,-55.5663509,743.8185724190323,66.54543713115628,4.728454580000098,669.1693248173783,43.327518323380886,5.492108730627003,940.8156722825684,57.49643057509762,239.18078612798504,786.0482186858086,725.1565080907616,231.5486876284387,841.3299697910654,427.9126295384091,226.30596952629853,704.2824070976544,345.76405137436217,146.1130629893722,561.6901666922228,199.4008892343356,70.35708252235293,512.1861203413754,223.580826330344,182.1209032714213,703.125616349729,73.79626194640248,64.06770799128681,35.9322920087132,61.74753372588935,38.25246627411066,78.4262466488702,51.241415764891634,50.77238999988538,51.71044152989789,102.48283152978328,102.48283152978328,0.6697786519024495,0.6697786519024495,22.11970792901338,1.5301000000326894,1
1777554988,15.375629629629628,9.510074074074067,20.347074,-7.33363,28.392925925925923,39.822704,-10.726222,91.576538,2.502441,-0.833467,2.642212,17.39502,9.115444,-40.45166,-3.601074,0.627495,99.541626,39.306641,-0.387993,3.153076,7.141113,9.594448,-20.500488,6.530762,-0.263452,105.644531,40.344238,-1.24062,6.218262,9.70459,9.273516,-89.824219,6.835938,-2.203418,2.307129,0.915527,-0.608335,3.685913,2.624512,0.081431,-87.577515,1.098633,9.901011,77.365723,-12.695312,0.651445,-3.823242,10.192871,7.084468,-28.042603,24.658203,-0.895737,106.375122,-263.977051,1.092129,-1.911621,8.483887,8.899893,-122.44812,4.455566,-6.998247,16.182861,-216.73584,-1.2023,1.834717,-77.331543,5.834268,-110.967407,-28.442383,14.633569,0,7944,38919,46083,30723,0,0,60164,24326,2817,14338,0,0,0,0,0,0,0,0,0,0,0,0,0,0,0,0,0,0,0,0,0,0,0,0,0,659,22427,independent_20260430_211623,trial_001,subject_001,1777554987.6480317,277779.2577,2364344,1,0,0,1,15.52535127124079,850.6025477738375,859.16468618427,0.0,0.0,0.0,23.30580380108576,627.413479544165,905.4437487688906,84.33484486360932,622.4496457814649,899.412366081838,-117.8236729,786.7042210742776,717.568740792089,-96.45684736,793.5870375008097,416.331437630564,-110.7337811,758.5545521475741,278.97599864825213,-55.5663509,743.8185724190323,66.54543713115628,4.728454580000098,669.1693248173783,43.471461047659695,5.492108730627003,940.8156722825684,57.50140647433441,239.18078612798504,786.0482186858086,725.1565080907616,231.5486876284387,841.3299697910654,427.9126295384091,226.30596952629853,704.2824070976544,345.76405137436217,146.1130629893722,561.6901666922228,199.4008892343356,70.35708252235293,512.1861203413754,215.09597526069555,182.1209032714213,703.125616349729,73.63257420678954,64.06770799128681,35.9322920087132,61.74753372588935,38.25246627411066,78.4262466488702,51.241415764891634,50.77238999988538,51.71044152989789,102.48283152978328,102.48283152978328,0.6697786519024495,0.6697786519024495,22.11970792901338,1.5301000000326894,1
1777554988,15.391629629629634,7.005074074074074,21.220074,-7.33363,28.83792592592592,39.822704,-8.908222,91.593018,-1.403809,-0.981958,2.658691,15.563965,9.225615,-40.209961,-0.244141,0.670605,102.046509,57.861328,0.742456,2.69165,24.230957,9.110654,-19.692993,5.371094,-1.346001,106.517944,41.259766,-0.962798,6.080933,8.666992,9.359736,-89.714355,5.004883,-3.142266,2.307129,0.915527,-0.608335,3.685913,2.624512,0.081431,-87.577515,1.098633,9.901011,76.920776,-1.525879,-0.100591,-3.988037,37.597656,7.39582,-26.350708,-0.793457,0.421523,106.375122,-263.977051,1.092129,-1.911621,8.483887,8.899893,-122.44812,4.455566,-6.998247,4.564819,-223.754883,3.779341,-1.532593,-71.533203,6.500083,-111.373901,37.597656,13.589341,0,7944,38919,46083,30723,0,0,60164,24326,2817,14338,0,0,0,0,0,0,0,0,0,0,0,0,0,0,0,0,0,0,0,0,0,0,0,0,0,659,22427,independent_20260430_211623,trial_001,subject_001,1777554987.6570385,277779.2666,2364345,1,0,0,1,0.0,0.0,0.0,0.0,0.0,0.0,23.2966540807598,625.4564211073842,905.6925534393768,84.38153351381804,620.6694669037909,899.8534171785083,-118.2411294,783.2173278969569,717.6576138527514,-97.07308295,787.9543868602364,416.410357845792,-111.1635061,752.2330817067204,279.16058611750685,-55.52983173,736.6466921145824,66.561772532915,4.526776576280844,662.0899999052353,43.60096200123661,5.390639259738715,933.7760835294768,57.49528791314004,239.3661730450811,787.1615003878323,727.4827123779156,232.03413545863373,847.2629459423925,430.57653368683793,227.8483385622143,712.9160822792081,343.8699714189487,148.05613074234532,574.8677629176474,192.8952120732065,72.73650584584882,524.1160784141188,205.28905871950147,183.2900958748788,721.3736256036017,72.59310475284764,64.06770799128681,35.9322920087132,61.74753372588935,38.25246627411066,78.4262466488702,51.241415764891634,50.77238999988538,51.71044152989789,102.48283152978328,102.48283152978328,0.6697786519024495,0.6697786519024495,22.11970792901338,1.5301000000326894,1
1777554988,15.303629629629626,7.005074074074074,21.220074,-9.05263,28.83792592592592,27.309704,-8.908222,91.505127,-4.638672,-1.16877,2.515869,10.253906,9.302256,-39.797974,6.286621,0.833467,102.046509,57.861328,0.742456,2.69165,24.230957,9.110654,-19.692993,5.371094,-1.346001,106.517944,41.259766,-0.962798,6.080933,8.666992,9.359736,-89.714355,5.004883,-3.142266,2.658691,8.972168,-0.502954,3.795776,2.563477,0.325723,-87.583008,0.366211,10.135723,76.920776,-1.525879,-0.100591,-3.988037,37.597656,7.39582,-26.350708,-0.793457,0.421523,93.416748,-251.953125,0.843047,-2.290649,53.894043,9.551338,-120.541992,-2.685547,-5.791157,4.564819,-223.754883,3.779341,-1.532593,-71.533203,6.500083,-111.373901,37.597656,13.589341,0,7944,38919,46083,30723,0,0,60164,24326,2817,14338,0,0,0,0,0,0,0,0,0,0,0,0,0,0,0,0,0,0,0,0,0,0,0,0,0,659,22427,independent_20260430_211623,trial_001,subject_001,1777554987.6675496,277779.2766,2364346,1,0,0,1,0.0,0.0,0.0,0.0,0.0,0.0,23.35140911874453,623.4919567853688,905.970573875645,84.57973100437646,618.8159386331116,900.2574484625666,-118.7406723,779.5205500073032,717.6246627627595,-97.60940819,781.9998072547119,416.4248998410133,-111.6195075,745.7100413552338,279.33763834587427,-55.94008385,729.6302953046064,66.70641494749462,4.043965426819545,655.0904197827354,43.71692499804067,4.921630452480556,926.6961235352018,57.46581914960299,239.482400127159,788.0373774643507,729.586945642497,232.3793695455409,852.7984806287682,433.04693708123017,228.6779414785027,721.4946174813919,341.601294723071,150.40953690568995,588.6033059168552,185.8454501849617,75.28647657372345,536.1483257102021,194.5595258127072,184.4894306028616,740.0129124369082,71.23054765148858,64.06770799128681,35.9322920087132,61.74753372588935,38.25246627411066,78.4262466488702,51.241415764891634,50.77238999988538,51.71044152989789,102.48283152978328,102.48283152978328,0.6697786519024495,0.6697786519024495,22.11970792901338,1.5301000000326894,1
1777554988,15.303629629629626,7.005074074074074,21.220074,-9.05263,28.83792592592592,27.309704,-8.908222,91.505127,-4.638672,-1.16877,2.515869,10.253906,9.302256,-39.797974,6.286621,0.833467,102.046509,57.861328,0.742456,2.69165,24.230957,9.110654,-19.692993,5.371094,-1.346001,106.517944,41.259766,-0.962798,6.080933,8.666992,9.359736,-89.714355,5.004883,-3.142266,2.658691,8.972168,-0.502954,3.795776,2.563477,0.325723,-87.583008,0.366211,10.135723,76.920776,-1.525879,-0.100591,-3.988037,37.597656,7.39582,-26.350708,-0.793457,0.421523,93.416748,-251.953125,0.843047,-2.290649,53.894043,9.551338,-120.541992,-2.685547,-5.791157,4.564819,-223.754883,3.779341,-1.532593,-71.533203,6.500083,-111.373901,37.597656,13.589341,0,7944,38919,46083,30723,0,0,60164,24326,2817,14338,0,0,0,0,0,0,0,0,0,0,0,0,0,0,0,0,0,0,0,0,0,0,0,0,0,659,22427,independent_20260430_211623,trial_001,subject_001,1777554987.6845517,277779.2939,2364347,1,0,0,1,0.0,0.0,0.0,0.0,0.0,0.0,23.58150318534758,621.4892403129984,906.29724690645,84.83148433031418,617.0392262672009,900.5773912932528,-119.1144453,775.8821278734936,717.5207424664912,-98.15290374,775.9687701117913,416.432051767482,-111.975857,739.1097574047764,279.462848473162,-56.18261188,722.5795133003113,66.82646846173336,3.95526712188734,647.3888603743012,43.80913474229808,4.624009114182286,919.7193898242318,57.42408621902743,239.66488435986864,788.6463435653775,731.5105677534265,232.5303869086476,857.9534237945436,435.3215568472648,230.4987158791088,730.1067494223661,339.1547239894476,152.9219138700277,602.6241702974816,178.1098377639773,78.79674750514566,548.9860312009718,183.1647783162225,185.6286308277137,758.9635219999864,69.71632371354886,64.06770799128681,35.9322920087132,61.74753372588935,38.25246627411066,78.4262466488702,51.241415764891634,50.77238999988538,51.71044152989789,102.48283152978328,102.48283152978328,0.6697786519024495,0.6697786519024495,22.11970792901338,1.5301000000326894,1
1777554988,15.303629629629626,7.005074074074074,21.220074,-9.05263,28.83792592592592,27.309704,-8.908222,91.505127,-4.638672,-1.16877,2.515869,10.253906,9.302256,-39.797974,6.286621,0.833467,102.046509,57.861328,0.742456,2.69165,24.230957,9.110654,-19.692993,5.371094,-1.346001,106.517944,41.259766,-0.962798,6.080933,8.666992,9.359736,-89.714355,5.004883,-3.142266,2.658691,8.972168,-0.502954,3.795776,2.563477,0.325723,-87.583008,0.366211,10.135723,76.920776,-1.525879,-0.100591,-3.988037,37.597656,7.39582,-26.350708,-0.793457,0.421523,93.416748,-251.953125,0.843047,-2.290649,53.894043,9.551338,-120.541992,-2.685547,-5.791157,4.564819,-223.754883,3.779341,-1.532593,-71.533203,6.500083,-111.373901,37.597656,13.589341,0,7944,38919,46083,30723,0,0,60164,24326,2817,14338,0,0,0,0,0,0,0,0,0,0,0,0,0,0,0,0,0,0,0,0,0,0,0,0,0,659,22427,independent_20260430_211623,trial_001,subject_001,1777554987.6845517,277779.2939,2364347,1,0,0,1,0.0,0.0,0.0,0.0,0.0,0.0,23.58150318534758,621.4892403129984,906.29724690645,84.83148433031418,617.0392262672009,900.5773912932528,-119.1144453,775.8821278734936,717.5207424664912,-98.15290374,775.9687701117913,416.432051767482,-111.975857,739.1097574047764,279.462848473162,-56.18261188,722.5795133003113,66.82646846173336,3.95526712188734,647.3888603743012,43.88283629854621,4.624009114182286,919.7193898242318,57.35851947497584,239.66488435986864,788.6463435653775,731.5105677534265,232.5303869086476,857.9534237945436,435.3215568472648,230.4987158791088,730.1067494223661,339.1547239894476,152.9219138700277,602.6241702974816,178.1098377639773,78.79674750514566,548.9860312009718,171.63219450676985,185.6286308277137,758.9635219999864,67.95013541580522,64.06770799128681,35.9322920087132,61.74753372588935,38.25246627411066,78.4262466488702,51.241415764891634,50.77238999988538,51.71044152989789,102.48283152978328,102.48283152978328,0.6697786519024495,0.6697786519024495,22.11970792901338,1.5301000000326894,1
1777554988,15.232629629629628,3.6330740740740737,20.434074,-9.05263,29.128925925925927,27.309704,-7.156222,91.433716,-6.225586,-1.120869,2.400513,10.009766,9.436377,-39.649658,8.117676,1.029858,105.419312,68.481445,0.464634,1.928101,40.222168,9.345366,-18.121948,10.375977,-1.839375,108.237305,32.836914,0.143701,5.943604,0.915527,9.460327,-90.016479,2.563477,-3.554209,2.658691,8.972168,-0.502954,3.795776,2.563477,0.325723,-87.583008,0.366211,10.135723,76.629639,0.915527,0.579595,-2.905884,44.921875,8.037686,-24.521484,-13.48877,2.874023,93.416748,-251.953125,0.843047,-2.290649,53.894043,9.551338,-120.541992,-2.685547,-5.791157,-6.641235,-218.505859,0.871787,-5.712891,-78.735352,6.749165,-107.539673,97.595215,15.677798,0,7944,38919,46083,30723,0,0,60164,24326,2817,14338,0,0,0,0,0,0,0,0,0,0,0,0,0,0,0,0,0,0,0,0,0,0,0,0,0,659,22427,independent_20260430_211623,trial_001,subject_001,1777554987.70356,277779.3138,2364349,1,0,0,1,0.0,0.0,0.0,0.0,0.0,0.0,23.94247594155121,617.4985676384499,906.6762558852304,85.21429564346832,613.6984468002679,901.063789780078,-120.4058538,767.8958739084671,717.2988336070488,-99.18501315,763.9409565264077,416.2441498326041,-112.7152421,725.996134469992,279.54446588967755,-56.6253437,708.2114129515431,67.0261543980499,3.3097639582763656,632.8946255725798,43.94294961207903,3.9833927980571415,905.5391193339052,57.26893497786572,239.05253948016164,791.7801279546258,734.1096019297623,232.12757731225767,866.9050951822803,439.4237513824706,233.03015602440243,746.9758399121919,333.62304913671363,158.70637014965212,631.8660760180743,161.81522274559254,86.01105425940601,576.3486869402761,159.3771480495562,189.14845655523104,797.1556987429353,66.65257214594476,64.06770799128681,35.9322920087132,61.74753372588935,38.25246627411066,78.4262466488702,51.241415764891634,50.77238999988538,51.71044152989789,102.48283152978328,102.48283152978328,0.6697786519024495,0.6697786519024495,22.11970792901338,1.5301000000326894,1
1777554988,15.232629629629628,3.6330740740740737,20.434074,-9.05263,29.128925925925927,27.309704,-7.156222,91.433716,-6.225586,-1.120869,2.400513,10.009766,9.436377,-39.649658,8.117676,1.029858,105.419312,68.481445,0.464634,1.928101,40.222168,9.345366,-18.121948,10.375977,-1.839375,108.237305,32.836914,0.143701,5.943604,0.915527,9.460327,-90.016479,2.563477,-3.554209,2.658691,8.972168,-0.502954,3.795776,2.563477,0.325723,-87.583008,0.366211,10.135723,76.629639,0.915527,0.579595,-2.905884,44.921875,8.037686,-24.521484,-13.48877,2.874023,93.416748,-251.953125,0.843047,-2.290649,53.894043,9.551338,-120.541992,-2.685547,-5.791157,-6.641235,-218.505859,0.871787,-5.712891,-78.735352,6.749165,-107.539673,97.595215,15.677798,0,7944,38919,46083,30723,0,0,60164,24326,2817,14338,0,0,0,0,0,0,0,0,0,0,0,0,0,0,0,0,0,0,0,0,0,0,0,0,0,659,22428,independent_20260430_211623,trial_001,subject_001,1777554987.7178173,277779.3269,2364351,1,0,0,1,9.661583816620515,835.7230020306516,860.504440984991,0.0,0.0,0.0,24.455914015612304,613.6202386926541,906.7899028235648,85.71212526710804,610.3136716454919,901.2793051031628,-120.6552944,761.5078150697252,716.7987367588742,-100.014185,752.6713589198299,415.8052719927618,-113.395497,713.6192580313528,279.3702895104382,-56.52501399,693.7084321970652,67.14514454105306,2.462571867795374,618.1282087539395,43.97805512376605,2.9676060123828023,891.2308882839922,57.17766984165668,239.21735901398853,790.0877747000798,735.8348482586619,231.10599700810187,873.8349501387451,442.9293706111976,235.12091750607,763.0849195391654,327.70944939331906,164.8974037954627,662.4707021647688,145.0172718140815,92.75106649326707,606.4135860009262,147.48358106672455,194.45054085372828,835.628751464001,65.26622177812702,64.06770799128681,35.9322920087132,61.74753372588935,38.25246627411066,78.4262466488702,51.241415764891634,50.77238999988538,51.71044152989789,102.48283152978328,102.48283152978328,0.6697786519024495,0.6697786519024495,22.11970792901338,1.5301000000326894,1
1777554988,15.232629629629628,3.6330740740740737,20.434074,-9.05263,29.128925925925927,27.309704,-7.156222,91.433716,-6.225586,-1.120869,2.400513,10.009766,9.436377,-39.649658,8.117676,1.029858,105.419312,68.481445,0.464634,1.928101,40.222168,9.345366,-18.121948,10.375977,-1.839375,108.237305,32.836914,0.143701,5.943604,0.915527,9.460327,-90.016479,2.563477,-3.554209,2.658691,8.972168,-0.502954,3.795776,2.563477,0.325723,-87.583008,0.366211,10.135723,76.629639,0.915527,0.579595,-2.905884,44.921875,8.037686,-24.521484,-13.48877,2.874023,93.416748,-251.953125,0.843047,-2.290649,53.894043,9.551338,-120.541992,-2.685547,-5.791157,-6.641235,-218.505859,0.871787,-5.712891,-78.735352,6.749165,-107.539673,97.595215,15.677798,0,7944,38919,46083,30723,0,0,60164,24326,2817,14338,0,0,0,0,0,0,0,0,0,0,0,0,0,0,0,0,0,0,0,0,0,0,0,0,0,659,22428,independent_20260430_211623,trial_001,subject_001,1777554987.7376988,277779.3468,2364353,1,0,0,1,8.37685926053737,832.2373686797896,860.4164385240333,0.0,0.0,0.0,25.04786490155337,609.7784819020359,906.3906372103733,86.22055877926276,607.064228203279,901.1738755521912,-121.1489847,754.9090723390248,716.0082510567589,-100.6934955,742.0007448059138,415.1659935073988,-114.1239796,702.4023044572001,278.8079765495667,-56.62210355,679.3007600728063,67.3105476093279,2.1909912368299453,604.0588860519467,43.98944457858579,2.4006913694052066,877.1901192033847,57.07756329046508,239.7284991927794,786.6303789249441,737.7017646994943,229.7131529821288,878.6879764835586,445.6630074876454,236.639695897794,778.595366379002,321.52051162219715,170.99851110294023,694.4710226581543,128.49542050116378,99.26531206307315,638.9333712863745,135.96244531469867,201.38579464025537,874.1881057342872,63.983427240377,64.06770799128681,35.9322920087132,61.74753372588935,38.25246627411066,78.4262466488702,51.241415764891634,50.77238999988538,51.71044152989789,102.48283152978328,102.48283152978328,0.6697786519024495,0.6697786519024495,22.11970792901338,1.5301000000326894,1
1777554988,15.232629629629628,3.6330740740740737,20.434074,-9.05263,29.128925925925927,27.309704,-7.156222,91.433716,-6.225586,-1.120869,2.400513,10.009766,9.436377,-39.649658,8.117676,1.029858,105.419312,68.481445,0.464634,1.928101,40.222168,9.345366,-18.121948,10.375977,-1.839375,108.237305,32.836914,0.143701,5.943604,0.915527,9.460327,-90.016479,2.563477,-3.554209,2.658691,8.972168,-0.502954,3.795776,2.563477,0.325723,-87.583008,0.366211,10.135723,76.629639,0.915527,0.579595,-2.905884,44.921875,8.037686,-24.521484,-13.48877,2.874023,93.416748,-251.953125,0.843047,-2.290649,53.894043,9.551338,-120.541992,-2.685547,-5.791157,-6.641235,-218.505859,0.871787,-5.712891,-78.735352,6.749165,-107.539673,97.595215,15.677798,0,7944,38919,46083,30723,0,0,60164,24326,2817,14338,0,0,0,0,0,0,0,0,0,0,0,0,0,0,0,0,0,0,0,0,0,0,0,0,0,659,22429,independent_20260430_211623,trial_001,subject_001,1777554987.7376988,277779.3468,2364353,1,0,0,1,8.37685926053737,832.2373686797896,860.4164385240333,0.0,0.0,0.0,25.04786490155337,609.7784819020359,906.3906372103733,86.22055877926276,607.064228203279,901.1738755521912,-121.1489847,754.9090723390248,716.0082510567589,-100.6934955,742.0007448059138,415.1659935073988,-114.1239796,702.4023044572001,278.8079765495667,-56.62210355,679.3007600728063,67.3105476093279,2.1909912368299453,604.0588860519467,44.00699703406604,2.4006913694052066,877.1901192033847,56.96503343817732,239.7284991927794,786.6303789249441,737.7017646994943,229.7131529821288,878.6879764835586,445.6630074876454,236.639695897794,778.595366379002,321.52051162219715,170.99851110294023,694.4710226581543,128.49542050116378,99.26531206307315,638.9333712863745,124.54458949477448,201.38579464025537,874.1881057342872,63.45991753543266,64.06770799128681,35.9322920087132,61.74753372588935,38.25246627411066,78.4262466488702,51.241415764891634,50.77238999988538,51.71044152989789,102.48283152978328,102.48283152978328,0.6697786519024495,0.6697786519024495,22.11970792901338,1.5301000000326894,1
1777554988,15.232629629629628,2.5890740740740767,20.434074,-10.37663,29.128925925925927,15.257704,-7.156222,91.433716,-6.225586,-1.120869,2.400513,10.009766,9.436377,-39.649658,8.117676,1.029858,106.463013,68.054199,-0.172441,1.61499,42.053223,9.354946,-17.556152,10.009766,-1.978286,108.237305,32.836914,0.143701,5.943604,0.915527,9.460327,-90.016479,2.563477,-3.554209,3.054199,9.94873,-0.637075,3.938599,2.685547,0.177231,-87.648926,-0.305176,10.035132,76.629639,0.915527,0.579595,-2.905884,44.921875,8.037686,-24.521484,-13.48877,2.874023,81.073608,-192.321777,0.05269,-1.065674,74.707031,8.737031,-116.729736,-25.45166,-2.529141,-6.641235,-218.505859,0.871787,-5.712891,-78.735352,6.749165,-107.539673,97.595215,15.677798,0,7944,38919,46083,30723,0,0,60164,24326,2817,14338,0,0,0,0,0,0,0,0,0,0,0,0,0,0,0,0,0,0,0,0,0,0,0,0,0,659,22429,independent_20260430_211623,trial_001,subject_001,1777554987.7472117,277779.3568,2364354,1,0,0,1,7.73882154474826,830.3982349490245,859.8713425055855,0.0,0.0,0.0,25.33806909748637,607.8774628932238,906.324526979736,86.61541446097677,605.452732313674,900.8323193804991,-121.4054174,751.6896722348539,715.5864049073333,-100.9669893,736.8130408304528,414.8212072507944,-114.4828016,696.7567686398489,278.474770685416,-57.02470688,672.5440481216123,67.37605997788272,1.8149199812650847,597.2841096022327,44.03092494561323,2.18989362028395,870.274635589261,56.84443101075256,239.5320241426996,785.8627516713419,737.8649045126006,228.86905192136447,880.4103782199167,446.7524677644985,237.2759660142016,786.0462275637236,318.2235541904043,174.53997704186867,711.0194441875109,120.87988082392243,102.27834760868105,655.8692637472043,112.53024226865418,204.8705074568657,893.292954637511,63.67636418966213,64.06770799128681,35.9322920087132,61.74753372588935,38.25246627411066,78.4262466488702,51.241415764891634,50.77238999988538,51.71044152989789,102.48283152978328,102.48283152978328,0.6697786519024495,0.6697786519024495,22.11970792901338,1.5301000000326894,1
1777554988,14.814629629629636,0.1940740740740665,17.683074,-10.37663,28.61292592592592,15.257704,-5.245222,91.016235,-8.117676,-0.330513,1.812744,10.986328,9.196875,-39.138794,13.793945,1.087339,108.858032,66.101074,-0.780776,0.97229,33.447266,8.880732,-16.347656,6.164551,-2.375859,109.901733,33.752441,-1.015488,5.72937,4.699707,9.335786,-89.681396,2.929688,-2.735112,3.054199,9.94873,-0.637075,3.938599,2.685547,0.177231,-87.648926,-0.305176,10.035132,77.145996,17.578125,0.593965,-2.081909,45.043945,8.646021,-22.307739,1.647949,4.258345,81.073608,-192.321777,0.05269,-1.065674,74.707031,8.737031,-116.729736,-25.45166,-2.529141,-17.072754,-163.635254,-1.652563,-7.415771,-40.466309,9.153765,-101.618042,104.614258,7.644902,0,7944,38919,46083,30723,0,0,60164,24326,2817,14338,0,0,0,0,0,0,0,0,0,0,0,0,0,0,0,0,0,0,0,0,0,0,0,0,0,659,22429,independent_20260430_211623,trial_001,subject_001,1777554987.7647226,277779.3738,2364355,1,0,0,1,7.09595745692489,828.360434856446,859.6552834270434,0.0,0.0,0.0,25.5802042113764,606.2665114131595,905.9458049023914,86.69528287913369,603.9165210421306,900.5804796671997,-121.6339814,748.7248572349692,715.1406950083693,-101.3597833,731.642526469754,414.4703996964617,-114.7048039,691.0618098416973,278.25616715222924,-57.22830524,665.2490339736864,67.69700873370606,1.48651011489151,590.1079285224375,44.070174223273526,1.874438791665424,863.2060185866729,56.69583927616638,239.3408113823749,785.1830651863828,737.9323109730361,228.004273657478,881.7497088475294,447.5646432246844,237.9597299810113,793.3966686451347,315.10759544028,176.82523972910914,727.5879938111613,113.50974578325368,105.07131550371092,673.6216819865741,100.6898745795162,208.5254946621244,912.2449468616654,64.6982707298457,64.06770799128681,35.9322920087132,61.74753372588935,38.25246627411066,78.4262466488702,51.241415764891634,50.77238999988538,51.71044152989789,102.48283152978328,102.48283152978328,0.6697786519024495,0.6697786519024495,22.11970792901338,1.5301000000326894,1
1777554988,14.627629629629624,0.1940740740740665,16.535074,-11.72863,28.414925925925928,10.077704,-5.245222,90.829468,-7.263184,0.249082,1.30188,22.705078,9.081914,-38.496094,14.953613,0.838257,108.858032,66.101074,-0.780776,0.97229,33.447266,8.880732,-16.347656,6.164551,-2.375859,111.148682,36.254883,-1.441802,5.542603,-3.112793,8.760981,-89.796753,8.422852,-1.662144,3.36731,11.657715,-0.584385,4.031982,4.455566,0.407153,-87.709351,-1.403809,10.030342,77.34375,-2.258301,-0.555645,-1.994019,19.165039,10.638677,-21.286011,7.385254,6.619834,76.409912,-130.981445,-0.440684,-0.082397,64.39209,7.501201,-114.829102,-14.343262,-1.077759,-17.072754,-163.635254,-1.652563,-7.415771,-40.466309,9.153765,-101.618042,104.614258,7.644902,0,7944,38919,46083,30723,0,0,60164,24326,2817,14338,0,0,0,0,0,0,0,0,0,0,0,0,0,0,0,0,0,0,0,0,0,0,0,0,0,659,22429,independent_20260430_211623,trial_001,subject_001,1777554987.7747264,277779.3837,2364356,1,0,0,1,6.392474882195724,825.8519283041902,858.9748831334924,0.0,0.0,0.0,25.68697578218284,604.5444738623887,905.6020495936818,87.1028580784717,602.3813451067464,900.170079395931,-121.8565277,745.6507148070843,714.7629384325732,-101.747899,726.6136470953165,414.17449532950303,-115.0652084,685.5878098648915,278.11235185686445,-57.35245789,658.2614806937648,67.86216982657169,1.2253412954834169,583.0055047280064,44.117379356445696,1.5805346461737433,856.11999475433,56.531202693719024,238.7747428449171,784.2712436108529,737.9492955029235,227.16809811701825,882.780291347174,448.14473593701103,238.6747110202448,800.6600907995188,312.07594989906625,180.1485743009125,744.294881989772,107.11653352206652,107.82781599030268,691.0029250332003,89.96481738717118,211.6867773767248,930.9134990758212,66.66547182581452,64.06770799128681,35.9322920087132,61.74753372588935,38.25246627411066,78.4262466488702,51.241415764891634,50.77238999988538,51.71044152989789,102.48283152978328,102.48283152978328,0.6697786519024495,0.6697786519024495,22.11970792901338,1.5301000000326894,1
1777554988,14.627629629629624,0.1940740740740665,16.535074,-11.72863,28.414925925925928,10.077704,-5.245222,90.829468,-7.263184,0.249082,1.30188,22.705078,9.081914,-38.496094,14.953613,0.838257,108.858032,66.101074,-0.780776,0.97229,33.447266,8.880732,-16.347656,6.164551,-2.375859,111.148682,36.254883,-1.441802,5.542603,-3.112793,8.760981,-89.796753,8.422852,-1.662144,3.36731,11.657715,-0.584385,4.031982,4.455566,0.407153,-87.709351,-1.403809,10.030342,77.34375,-2.258301,-0.555645,-1.994019,19.165039,10.638677,-21.286011,7.385254,6.619834,76.409912,-130.981445,-0.440684,-0.082397,64.39209,7.501201,-114.829102,-14.343262,-1.077759,-17.072754,-163.635254,-1.652563,-7.415771,-40.466309,9.153765,-101.618042,104.614258,7.644902,0,7944,38919,46083,30723,0,0,60164,24326,2817,14338,0,0,0,0,0,0,0,0,0,0,0,0,0,0,0,0,0,0,0,0,0,0,0,0,0,659,22429,independent_20260430_211623,trial_001,subject_001,1777554987.776728,277779.3866,2364357,1,0,0,1,5.836952768012506,824.4412048137184,858.7122628178237,0.0,0.0,0.0,25.91328557132308,602.719314521904,905.105060109823,87.5404511195607,600.707171052343,899.8386535966442,-122.1480252,742.8998030343457,714.3510369188656,-102.0148935,721.5588470283723,413.82930692100905,-115.4304696,679.8253907551643,277.9810496208331,-57.32457378,650.9395007020327,67.6936443869087,0.7341984925963911,575.8313736875482,44.18701138272026,1.3712442327175596,849.0049803082053,56.35639672219513,238.06976328714103,783.1156942923443,737.840603021424,226.37496357931505,883.5284295787715,448.4538743423281,239.3321821782609,807.7949787726571,309.0678162827557,182.7124803103983,760.8600651187662,101.34086141426766,110.85217330739812,707.7138799888198,80.10354041944657,214.28793710520875,949.2118826352754,69.56528108008087,64.06770799128681,35.9322920087132,61.74753372588935,38.25246627411066,78.4262466488702,51.241415764891634,50.77238999988538,51.71044152989789,102.48283152978328,102.48283152978328,0.6697786519024495,0.6697786519024495,22.11970792901338,1.5301000000326894,1
1777554988,14.627629629629624,0.1940740740740665,16.535074,-11.72863,28.414925925925928,10.077704,-5.245222,90.829468,-7.263184,0.249082,1.30188,22.705078,9.081914,-38.496094,14.953613,0.838257,108.858032,66.101074,-0.780776,0.97229,33.447266,8.880732,-16.347656,6.164551,-2.375859,111.148682,36.254883,-1.441802,5.542603,-3.112793,8.760981,-89.796753,8.422852,-1.662144,3.36731,11.657715,-0.584385,4.031982,4.455566,0.407153,-87.709351,-1.403809,10.030342,77.34375,-2.258301,-0.555645,-1.994019,19.165039,10.638677,-21.286011,7.385254,6.619834,76.409912,-130.981445,-0.440684,-0.082397,64.39209,7.501201,-114.829102,-14.343262,-1.077759,-17.072754,-163.635254,-1.652563,-7.415771,-40.466309,9.153765,-101.618042,104.614258,7.644902,0,7944,38919,46083,30723,0,0,60164,24326,2817,14338,0,0,0,0,0,0,0,0,0,0,0,0,0,0,0,0,0,0,0,0,0,0,0,0,0,659,22429,independent_20260430_211623,trial_001,subject_001,1777554987.7877204,277779.3967,2364358,1,0,0,1,5.187791630436217,822.354127374703,858.025256714906,0.0,0.0,0.0,26.304224603239582,601.2407247266754,904.7111129200036,87.75543307444903,599.4597165264892,899.190228260103,-122.3583689,739.8925145788068,713.9991929038258,-102.4795502,716.5984288877174,413.6038339634519,-115.8166603,674.0556474403403,277.85378179098257,-57.3645922,643.7142494715739,67.70243153073837,0.5033840913595841,568.6760824309628,44.25370434665607,1.0497564216609363,841.9202198173527,56.17575696058463,238.03703120565527,782.506788556254,737.5525773238816,225.66681857680385,884.1281737242366,448.6083150986428,239.93871221979447,814.8221647330951,306.3536404589685,184.67344406940808,777.3718557,96.032862593884,112.95074263461149,725.8428696107626,71.2888110548273,216.37958616874707,967.0613235222846,73.14419814687771,64.06770799128681,35.9322920087132,61.74753372588935,38.25246627411066,78.4262466488702,51.241415764891634,50.77238999988538,51.71044152989789,102.48283152978328,102.48283152978328,0.6697786519024495,0.6697786519024495,22.11970792901338,1.5301000000326894,1
1777554988,14.627629629629624,-2.310925926,17.232074,-11.72863,28.66792592592593,10.077704,-5.695222,90.829468,-7.263184,0.249082,1.30188,22.705078,9.081914,-38.496094,14.953613,0.838257,111.362915,35.400391,-0.086221,0.197754,33.935547,9.747729,-15.15564,5.493164,-1.805845,111.846313,49.255371,-1.508862,5.377808,11.169434,8.928633,-89.736328,9.033203,-1.556763,3.36731,11.657715,-0.584385,4.031982,4.455566,0.407153,-87.709351,-1.403809,10.030342,77.091064,-18.859863,-0.680186,-2.076416,14.953613,11.290122,-21.022339,10.742188,6.969507,76.409912,-130.981445,-0.440684,-0.082397,64.39209,7.501201,-114.829102,-14.343262,-1.077759,-22.18689,-45.593262,-6.327642,-7.959595,-35.03418,11.615845,-98.849487,-2.01416,3.199746,0,7944,38919,46083,30723,0,0,60164,24326,2817,14338,0,0,0,0,0,0,0,0,0,0,0,0,0,0,0,0,0,0,0,0,0,0,0,0,0,659,22429,independent_20260430_211623,trial_001,subject_001,1777554987.8067286,277779.4166,2364360,1,0,0,1,4.071001129579511,819.7488610554184,856.983196614543,92.90613388770718,822.028411144306,866.2186548712913,26.92995351423816,598.2102298808713,903.7157093249688,88.08061529644657,597.0279257671893,898.1042132974168,-122.9795895,734.4804076277247,713.1532953707967,-103.407021,706.9203663492079,413.0652845564014,-116.6767524,662.8130045844986,277.74507000807944,-57.99240559,629.8385402479513,68.19034783140225,-0.104288893,554.2877303522938,44.38372899388703,0.2149967247326198,828.0049799477097,55.97608150108042,237.87279346145445,780.7513797298898,735.8829158815362,224.34914183358867,884.6363690352174,448.4615224191615,241.2256742100908,828.4183419852634,301.35347976312784,187.784104966708,810.0003197516429,87.33237247391097,117.25647577489782,759.802362814917,63.60023865366981,218.44873241188628,1001.3929899113808,78.04605351496656,64.06770799128681,35.9322920087132,61.74753372588935,38.25246627411066,78.4262466488702,51.241415764891634,50.77238999988538,51.71044152989789,102.48283152978328,102.48283152978328,0.6697786519024495,0.6697786519024495,22.11970792901338,1.5301000000326894,1
1777554988,14.627629629629624,-2.310925926,17.232074,-11.72863,28.66792592592593,10.077704,-5.695222,90.829468,-7.263184,0.249082,1.30188,22.705078,9.081914,-38.496094,14.953613,0.838257,111.362915,35.400391,-0.086221,0.197754,33.935547,9.747729,-15.15564,5.493164,-1.805845,111.846313,49.255371,-1.508862,5.377808,11.169434,8.928633,-89.736328,9.033203,-1.556763,3.36731,11.657715,-0.584385,4.031982,4.455566,0.407153,-87.709351,-1.403809,10.030342,77.091064,-18.859863,-0.680186,-2.076416,14.953613,11.290122,-21.022339,10.742188,6.969507,76.409912,-130.981445,-0.440684,-0.082397,64.39209,7.501201,-114.829102,-14.343262,-1.077759,-22.18689,-45.593262,-6.327642,-7.959595,-35.03418,11.615845,-98.849487,-2.01416,3.199746,0,7944,38919,46083,30723,0,0,60164,24326,2817,14338,0,0,0,0,0,0,0,0,0,0,0,0,0,0,0,0,0,0,0,0,0,0,0,0,0,659,22429,independent_20260430_211623,trial_001,subject_001,1777554987.8067286,277779.4166,2364360,1,0,0,1,4.071001129579511,819.7488610554184,856.983196614543,92.90613388770718,822.028411144306,866.2186548712913,26.92995351423816,598.2102298808713,903.7157093249688,88.08061529644657,597.0279257671893,898.1042132974168,-122.9795895,734.4804076277247,713.1532953707967,-103.407021,706.9203663492079,413.0652845564014,-116.6767524,662.8130045844986,277.74507000807944,-57.99240559,629.8385402479513,68.19034783140225,-0.104288893,554.2877303522938,44.4952526164405,0.2149967247326198,828.0049799477097,55.79905738339922,237.87279346145445,780.7513797298898,735.8829158815362,224.34914183358867,884.6363690352174,448.4615224191615,241.2256742100908,828.4183419852634,301.35347976312784,187.784104966708,810.0003197516429,87.33237247391097,117.25647577489782,759.802362814917,58.16113226256284,218.44873241188628,1001.3929899113808,83.60680601051864,64.06770799128681,35.9322920087132,61.74753372588935,38.25246627411066,78.4262466488702,51.241415764891634,50.77238999988538,51.71044152989789,102.48283152978328,102.48283152978328,0.6697786519024495,0.6697786519024495,22.11970792901338,1.5301000000326894,1
1777554988,14.627629629629624,-2.310925926,17.232074,-11.72863,28.66792592592593,10.077704,-5.695222,90.829468,-7.263184,0.249082,1.30188,22.705078,9.081914,-38.496094,14.953613,0.838257,111.362915,35.400391,-0.086221,0.197754,33.935547,9.747729,-15.15564,5.493164,-1.805845,111.846313,49.255371,-1.508862,5.377808,11.169434,8.928633,-89.736328,9.033203,-1.556763,3.36731,11.657715,-0.584385,4.031982,4.455566,0.407153,-87.709351,-1.403809,10.030342,77.091064,-18.859863,-0.680186,-2.076416,14.953613,11.290122,-21.022339,10.742188,6.969507,76.409912,-130.981445,-0.440684,-0.082397,64.39209,7.501201,-114.829102,-14.343262,-1.077759,-22.18689,-45.593262,-6.327642,-7.959595,-35.03418,11.615845,-98.849487,-2.01416,3.199746,0,7944,38919,46083,30723,0,0,60164,24326,2817,14338,0,0,0,0,0,0,0,0,0,0,0,0,0,0,0,0,0,0,0,0,0,0,0,0,0,659,22429,independent_20260430_211623,trial_001,subject_001,1777554987.8267531,277779.4365,2364362,1,0,0,1,2.820890192988537,816.1988930722531,855.7743474504914,91.19041405275274,818.945693430138,864.6910535515744,27.580776869851668,595.5554341243147,902.6711521826032,88.53107409423582,594.5951725334149,896.6992647888283,-123.7924384,729.4227843946774,712.1744921146027,-104.2212597,697.4561388094681,412.44311095314976,-117.5851414,651.7330958928366,277.54543457075914,-58.54875608,615.4880072188269,68.20987473570995,-0.909777842,540.0196011176142,44.67011557904771,-0.408777783,813.7530041872412,55.61951535744929,237.30437054585008,778.2208699280533,734.1945515810651,223.2511879617007,884.1235924921436,448.0979017456528,242.24731139060967,840.945141019674,297.5589480858057,190.4917663266344,841.1986975332082,81.98360132849623,121.33042999085735,791.9690618113933,53.45077152023423,217.6045425717595,1034.491675484021,90.0509102874963,64.06770799128681,35.9322920087132,61.74753372588935,38.25246627411066,78.4262466488702,51.241415764891634,50.77238999988538,51.71044152989789,102.48283152978328,102.48283152978328,0.6697786519024495,0.6697786519024495,22.11970792901338,1.5301000000326894,1
1777554988,14.633629629629624,-2.310925926,17.232074,-12.67263,28.66792592592593,8.709704,-5.695222,90.834961,3.601074,-0.411943,0.560303,29.602051,9.647139,-37.227173,14.587402,1.437012,111.362915,35.400391,-0.086221,0.197754,33.935547,9.747729,-15.15564,5.493164,-1.805845,111.846313,49.255371,-1.508862,5.377808,11.169434,8.928633,-89.736328,9.033203,-1.556763,4.367065,17.578125,-0.622705,4.180298,1.464844,0.550854,-87.824707,0.488281,10.011182,77.091064,-18.859863,-0.680186,-2.076416,14.953613,11.290122,-21.022339,10.742188,6.969507,74.987183,56.945801,2.026187,-0.494385,-1.464844,6.08814,-113.741455,16.601562,-0.790356,-22.18689,-45.593262,-6.327642,-7.959595,-35.03418,11.615845,-98.849487,-2.01416,3.199746,0,7944,38919,46083,30723,0,0,60164,24326,2817,14338,0,0,0,0,0,0,0,0,0,0,0,0,0,0,0,0,0,0,0,0,0,0,0,0,0,659,22429,independent_20260430_211623,trial_001,subject_001,1777554987.8477538,277779.4568,2364364,1,0,0,1,1.8933294345613323,813.8685821728637,854.3263867942405,90.2330149859307,816.8548874809783,863.01868623294,27.80368177828309,593.4217993380819,901.6193499663938,88.99195592347374,592.8113444822155,895.3706512354329,-124.3324547,724.5926838079906,711.1708043176627,-105.2309582,688.1751853525836,411.8553188528513,-118.5927873,640.8828635246989,277.4540823603282,-59.53747057,601.7578544869228,68.79032104006133,-1.672682463,525.7102678686692,44.93909865968626,-1.137720286,799.5777222286305,55.43380995345767,236.81750485975968,775.6086483202017,732.4189567443325,222.04800214796404,883.1918861515753,447.5165560278063,242.9147456427016,852.3091245211992,294.83206475900505,192.23085460265904,870.4910908680673,79.35890613907237,124.20940478386991,822.4220067557912,48.98687350510871,215.1580996638398,1063.3155222201333,97.09155813280822,64.06770799128681,35.9322920087132,61.74753372588935,38.25246627411066,78.4262466488702,51.241415764891634,50.77238999988538,51.71044152989789,102.48283152978328,102.48283152978328,0.6697786519024495,0.6697786519024495,22.11970792901338,1.5301000000326894,1
1777554988,14.633629629629624,-2.310925926,17.232074,-12.67263,28.66792592592593,8.709704,-5.695222,90.834961,3.601074,-0.411943,0.560303,29.602051,9.647139,-37.227173,14.587402,1.437012,111.362915,35.400391,-0.086221,0.197754,33.935547,9.747729,-15.15564,5.493164,-1.805845,111.846313,49.255371,-1.508862,5.377808,11.169434,8.928633,-89.736328,9.033203,-1.556763,4.367065,17.578125,-0.622705,4.180298,1.464844,0.550854,-87.824707,0.488281,10.011182,77.091064,-18.859863,-0.680186,-2.076416,14.953613,11.290122,-21.022339,10.742188,6.969507,74.987183,56.945801,2.026187,-0.494385,-1.464844,6.08814,-113.741455,16.601562,-0.790356,-22.18689,-45.593262,-6.327642,-7.959595,-35.03418,11.615845,-98.849487,-2.01416,3.199746,0,7944,38919,46083,30723,0,0,60164,24326,2817,14338,0,0,0,0,0,0,0,0,0,0,0,0,0,0,0,0,0,0,0,0,0,0,0,0,0,659,22429,independent_20260430_211623,trial_001,subject_001,1777554987.8577545,277779.4666,2364365,1,0,0,1,1.5384436492426603,812.7712107089656,853.5311381395641,89.92072960085882,816.0276749896609,862.1036257320976,28.21516037922443,592.3925701028451,900.9218283139328,88.90235971902891,591.9248051149876,894.7010333123754,-124.5673033,722.3485547892494,710.6278325937947,-105.5391033,683.4601892781012,411.64259511057577,-118.9761262,635.4186004135454,277.56155967716484,-59.53121298,594.6793939313785,68.91884213335952,-1.968523547,518.6182272650304,45.22915945573822,-1.344830563,792.4132182046906,55.23634205578548,236.52772210114327,774.3432497128657,731.419329267862,221.49726149509888,882.8567166619015,447.2826065295773,243.15802897674376,857.5957381931505,293.8704883848309,192.7618381864189,884.062055039769,78.70619362843735,125.35303477798138,836.6715629402777,44.395683738015165,213.5844757915264,1076.4706437291952,104.52568402517092,64.06770799128681,35.9322920087132,61.74753372588935,38.25246627411066,78.4262466488702,51.241415764891634,50.77238999988538,51.71044152989789,102.48283152978328,102.48283152978328,0.6697786519024495,0.6697786519024495,22.11970792901338,1.5301000000326894,1
1777554988,14.611629629629633,-4.309925926,17.611074,-12.67263,30.22792592592592,8.709704,-1.388222,90.812988,-5.493164,-0.531694,0.252686,31.921387,9.972861,-36.606445,15.686035,1.499282,113.362427,43.701172,0.02874,-0.780029,51.879883,9.268726,-13.018799,3.234863,-2.754272,114.730225,58.166504,-0.201182,4.465942,22.277832,9.378896,-89.165039,14.953613,-3.894302,4.367065,17.578125,-0.622705,4.180298,1.464844,0.550854,-87.824707,0.488281,10.011182,75.531006,-27.038574,0.325723,-2.757568,24.902344,8.425679,-19.80835,28.259277,4.196074,74.987183,56.945801,2.026187,-0.494385,-1.464844,6.08814,-113.741455,16.601562,-0.790356,-19.302979,118.041992,2.47166,-5.83374,141.723633,8.128696,-100.623779,-1.647949,3.592529,0,7944,38919,46083,30723,0,0,60164,24326,2817,14338,0,0,0,0,0,0,0,0,0,0,0,0,0,0,0,0,0,0,0,0,0,0,0,0,0,659,22430,independent_20260430_211623,trial_001,subject_001,1777554987.8672657,277779.4768,2364366,1,0,0,1,1.2644419364332,811.6723514126195,852.8026704329659,89.72639754635149,815.2716908959219,861.1933867585182,28.192689281172505,591.7239713866156,900.3213069365144,89.11959309649279,591.1593319612062,893.9121152775192,-124.7695735,720.1797681059979,710.1708581585937,-106.0824262,678.8475362739458,411.4542472581173,-119.3993938,629.8847692322339,277.6667967037513,-59.82602488,587.4615705022921,68.86152338465931,-2.284813929,511.4589248009028,45.557167495111926,-1.698707625,785.1967195005093,55.04546850889432,236.25586205764145,773.214558775544,730.3670709231009,220.4683922404629,882.2027122619002,446.781656827355,243.3406822425304,862.6962938936326,292.8685678064779,193.75515372978387,896.5863187406308,78.77205720850512,126.48654249719662,850.1336440683395,41.21668714051193,211.87477732893024,1088.395238075157,112.17084169373496,64.06770799128681,35.9322920087132,61.74753372588935,38.25246627411066,78.4262466488702,51.241415764891634,50.77238999988538,51.71044152989789,102.48283152978328,102.48283152978328,0.6697786519024495,0.6697786519024495,22.11970792901338,1.5301000000326894,1
1777554988,14.611629629629633,-4.963925926,17.611074,-14.69963,30.22792592592592,15.477704,-1.388222,90.812988,-5.493164,-0.531694,0.252686,31.921387,9.972861,-36.606445,15.686035,1.499282,114.016113,43.579102,0.076641,-1.170044,51.513672,9.489067,-12.34314,6.774902,-2.605781,114.730225,58.166504,-0.201182,4.465942,22.277832,9.378896,-89.165039,14.953613,-3.894302,5.223999,19.470215,-0.502954,4.251709,2.746582,0.627495,-87.84668,0.0,9.939331,75.531006,-27.038574,0.325723,-2.757568,24.902344,8.425679,-19.80835,28.259277,4.196074,80.194702,122.497559,1.614243,-0.845947,43.09082,9.144185,-112.461548,6.286621,-2.47166,-19.302979,118.041992,2.47166,-5.83374,141.723633,8.128696,-100.623779,-1.647949,3.592529,0,7944,38919,46083,30723,0,0,60164,24326,2817,14338,0,0,0,0,0,0,0,0,0,0,0,0,0,0,0,0,0,0,0,0,0,0,0,0,0,659,22431,independent_20260430_211623,trial_001,subject_001,1777554987.8772652,277779.4865,2364367,1,0,0,1,1.094536883269986,810.9111433734423,852.0658051042283,89.6049833683918,814.5923573402089,860.3320688619616,28.5123432231386,590.8255352984697,899.7280470003961,89.21324872314952,590.6018506972846,893.2612769105825,-124.8869453,718.0722721590962,709.6420998894706,-106.3796382,674.1838577538731,411.3557708754004,-119.7639823,624.2494153240228,277.8005275183349,-60.41859993,580.5456924461319,69.29880805286032,-2.634771843,504.2919459854424,45.906173953265295,-2.024110716,778.237651690959,54.844420157783794,236.05859515491272,772.2051691369129,729.3505604958348,219.4975390601436,881.6353977670414,446.3306808621393,242.1807823497857,867.5608099504459,291.451360678042,194.17434933982,908.470739038578,79.11070729100489,127.40419851211462,862.6726615751385,38.784396741743926,209.87032069127497,1099.2849815119123,119.74181648166213,64.06770799128681,35.9322920087132,61.74753372588935,38.25246627411066,78.4262466488702,51.241415764891634,50.77238999988538,51.71044152989789,102.48283152978328,102.48283152978328,0.6697786519024495,0.6697786519024495,22.11970792901338,1.5301000000326894,1
1777554988,14.611629629629633,-4.963925926,17.611074,-14.69963,30.22792592592592,15.477704,-1.388222,90.812988,-5.493164,-0.531694,0.252686,31.921387,9.972861,-36.606445,15.686035,1.499282,114.016113,43.579102,0.076641,-1.170044,51.513672,9.489067,-12.34314,6.774902,-2.605781,114.730225,58.166504,-0.201182,4.465942,22.277832,9.378896,-89.165039,14.953613,-3.894302,5.223999,19.470215,-0.502954,4.251709,2.746582,0.627495,-87.84668,0.0,9.939331,75.531006,-27.038574,0.325723,-2.757568,24.902344,8.425679,-19.80835,28.259277,4.196074,80.194702,122.497559,1.614243,-0.845947,43.09082,9.144185,-112.461548,6.286621,-2.47166,-19.302979,118.041992,2.47166,-5.83374,141.723633,8.128696,-100.623779,-1.647949,3.592529,0,7944,38919,46083,30723,0,0,60164,24326,2817,14338,0,0,0,0,0,0,0,0,0,0,0,0,0,0,0,0,0,0,0,0,0,0,0,0,0,659,22432,independent_20260430_211623,trial_001,subject_001,1777554987.8872647,277779.497,2364368,1,0,0,1,1.0375063610788513,810.3380382655952,851.37459516236,89.54316846864334,814.1214572284072,859.49102897635,28.51221264820688,590.3675021852022,898.9433185399099,89.49270365439565,589.9099978603371,892.3873547888356,-124.9946006,716.0710916431763,709.1420569631845,-106.8209249,669.5315081879089,411.2046729021458,-120.2038455,618.6756055279087,278.01331615758744,-60.48066616,573.4359440322398,69.33878067946745,-3.108766369,497.2173475119487,46.27815459704525,-2.368268217,771.1337645318123,54.64747548417941,235.90476671118893,771.4454496030733,728.3218102822915,218.5026544546704,881.224310641043,445.8913960621525,241.9143441137473,871.8778812264385,290.9841349081445,194.5506998205032,919.4257213187508,79.97196308188245,128.3344144602032,874.3305043359002,36.931886009491016,207.9198722771672,1109.1174671337335,126.95075621997822,64.06770799128681,35.9322920087132,61.74753372588935,38.25246627411066,78.4262466488702,51.241415764891634,50.77238999988538,51.71044152989789,102.48283152978328,102.48283152978328,0.6697786519024495,0.6697786519024495,22.11970792901338,1.5301000000326894,1
1777554988,14.611629629629633,-4.963925926,17.611074,-14.69963,30.22792592592592,15.477704,-1.388222,90.812988,-5.493164,-0.531694,0.252686,31.921387,9.972861,-36.606445,15.686035,1.499282,114.016113,43.579102,0.076641,-1.170044,51.513672,9.489067,-12.34314,6.774902,-2.605781,114.730225,58.166504,-0.201182,4.465942,22.277832,9.378896,-89.165039,14.953613,-3.894302,5.223999,19.470215,-0.502954,4.251709,2.746582,0.627495,-87.84668,0.0,9.939331,75.531006,-27.038574,0.325723,-2.757568,24.902344,8.425679,-19.80835,28.259277,4.196074,80.194702,122.497559,1.614243,-0.845947,43.09082,9.144185,-112.461548,6.286621,-2.47166,-19.302979,118.041992,2.47166,-5.83374,141.723633,8.128696,-100.623779,-1.647949,3.592529,0,7944,38919,46083,30723,0,0,60164,24326,2817,14338,0,0,0,0,0,0,0,0,0,0,0,0,0,0,0,0,0,0,0,0,0,0,0,0,0,659,22432,independent_20260430_211623,trial_001,subject_001,1777554987.8972728,277779.507,2364369,1,0,0,1,0.9509148629852224,809.5884921441755,850.612147102203,89.52252952118636,813.7233885000848,858.6433795297933,28.871892713321483,589.6999119851116,898.1982822926104,89.67672661184407,589.5281104050038,891.4428996697293,-125.0213361,714.2337137167492,708.5777962485464,-107.0447732,664.9570949064979,411.0283701174997,-120.5429089,613.2323236056881,278.24500044440697,-61.09512163,566.4825987878436,69.62946209706573,-3.435731127,490.15827345691855,46.665792913622006,-2.749181912,763.9274078236913,54.4455101589125,235.74725702026788,770.8353172745783,727.223147649367,217.34260030570687,880.9705896239068,445.4352764691844,242.22265091977164,875.7522042996268,291.08899796690594,194.5733149472449,929.308850599952,80.73430010767962,128.9157834456033,884.8696482378097,35.579852573230646,205.7245153416912,1117.828893522768,133.5660524829955,64.06770799128681,35.9322920087132,61.74753372588935,38.25246627411066,78.4262466488702,51.241415764891634,50.77238999988538,51.71044152989789,102.48283152978328,102.48283152978328,0.6697786519024495,0.6697786519024495,22.11970792901338,1.5301000000326894,1
1777554988,14.040629629629636,-6.402925926,18.194074,-14.69963,30.51392592592592,15.477704,2.741778,90.241699,-8.972168,-0.608335,-0.543823,41.564941,10.485396,-34.733276,14.831543,2.519561,115.455322,39.733887,-1.317261,-2.213745,47.424316,10.99314,-10.92041,11.413574,-1.27894,117.965698,66.833496,-1.053809,2.922363,31.738281,9.958491,-88.071899,23.925781,-3.300337,5.223999,19.470215,-0.502954,4.251709,2.746582,0.627495,-87.84668,0.0,9.939331,75.245361,21.54541,1.590293,-3.944092,33.935547,7.941885,-17.852783,31.616211,1.346001,80.194702,122.497559,1.614243,-0.845947,43.09082,9.144185,-112.461548,6.286621,-2.47166,-9.9646,228.271484,0.608335,-0.302124,89.477539,-3.218906,-100.673218,35.705566,12.21939,0,7944,38919,46083,30723,0,0,60164,24326,2817,14338,0,0,0,0,0,0,0,0,0,0,0,0,0,0,0,0,0,0,0,0,0,0,0,0,0,659,22432,independent_20260430_211623,trial_001,subject_001,1777554987.9170642,277779.5267,2364371,1,0,0,1,0.8945917033355499,808.7211001666129,849.0449297535902,89.48365320096416,813.284702382606,857.0352444669004,29.5799152884136,588.9839543036351,896.5443905445229,90.2805693105504,588.9287761212224,889.5758812109797,-124.9651298,710.7533867044448,707.3948176129172,-107.4915815,656.2093712212105,410.77895800688304,-121.061167,602.2551223099006,278.7862511061048,-61.69766312,552.9929240388967,70.25657551357045,-4.224853098,475.8695646356832,47.01535380790851,-3.550649468,749.922091406652,54.24173492373053,235.4788624827024,770.3588476041035,724.7291001511088,215.16407170736133,881.308391483443,444.2994871728206,240.9275103980455,882.6857243568336,290.3357625629186,194.0935728642741,945.6230781694684,82.60980778422098,129.3166906170665,902.5601710267364,34.670493689796096,201.7926114515744,1131.6687792518803,139.68973296369984,64.06770799128681,35.9322920087132,61.74753372588935,38.25246627411066,78.4262466488702,51.241415764891634,50.77238999988538,51.71044152989789,102.48283152978328,102.48283152978328,0.6697786519024495,0.6697786519024495,22.11970792901338,1.5301000000326894,1
1777554988,14.040629629629636,-6.402925926,18.194074,-14.69963,30.51392592592592,15.477704,2.741778,90.241699,-8.972168,-0.608335,-0.543823,41.564941,10.485396,-34.733276,14.831543,2.519561,115.455322,39.733887,-1.317261,-2.213745,47.424316,10.99314,-10.92041,11.413574,-1.27894,117.965698,66.833496,-1.053809,2.922363,31.738281,9.958491,-88.071899,23.925781,-3.300337,5.223999,19.470215,-0.502954,4.251709,2.746582,0.627495,-87.84668,0.0,9.939331,75.245361,21.54541,1.590293,-3.944092,33.935547,7.941885,-17.852783,31.616211,1.346001,80.194702,122.497559,1.614243,-0.845947,43.09082,9.144185,-112.461548,6.286621,-2.47166,-9.9646,228.271484,0.608335,-0.302124,89.477539,-3.218906,-100.673218,35.705566,12.21939,0,7944,38919,46083,30723,0,0,60164,24326,2817,14338,0,0,0,0,0,0,0,0,0,0,0,0,0,0,0,0,0,0,0,0,0,0,0,0,0,659,22432,independent_20260430_211623,trial_001,subject_001,1777554987.9170642,277779.5267,2364371,1,0,0,1,0.8945917033355499,808.7211001666129,849.0449297535902,89.48365320096416,813.284702382606,857.0352444669004,29.5799152884136,588.9839543036351,896.5443905445229,90.2805693105504,588.9287761212224,889.5758812109797,-124.9651298,710.7533867044448,707.3948176129172,-107.4915815,656.2093712212105,410.77895800688304,-121.061167,602.2551223099006,278.7862511061048,-61.69766312,552.9929240388967,70.25657551357045,-4.224853098,475.8695646356832,47.44684918291192,-3.550649468,749.922091406652,54.01822909329476,235.4788624827024,770.3588476041035,724.7291001511088,215.16407170736133,881.308391483443,444.2994871728206,240.9275103980455,882.6857243568336,290.3357625629186,194.0935728642741,945.6230781694684,82.60980778422098,129.3166906170665,902.5601710267364,34.06745973804185,201.7926114515744,1131.6687792518803,144.209637188887,64.06770799128681,35.9322920087132,61.74753372588935,38.25246627411066,78.4262466488702,51.241415764891634,50.77238999988538,51.71044152989789,102.48283152978328,102.48283152978328,0.6697786519024495,0.6697786519024495,22.11970792901338,1.5301000000326894,1
1777554988,14.040629629629636,-6.402925926,18.194074,-14.69963,30.51392592592592,15.477704,2.741778,90.241699,-8.972168,-0.608335,-0.543823,41.564941,10.485396,-34.733276,14.831543,2.519561,115.455322,39.733887,-1.317261,-2.213745,47.424316,10.99314,-10.92041,11.413574,-1.27894,117.965698,66.833496,-1.053809,2.922363,31.738281,9.958491,-88.071899,23.925781,-3.300337,5.223999,19.470215,-0.502954,4.251709,2.746582,0.627495,-87.84668,0.0,9.939331,75.245361,21.54541,1.590293,-3.944092,33.935547,7.941885,-17.852783,31.616211,1.346001,80.194702,122.497559,1.614243,-0.845947,43.09082,9.144185,-112.461548,6.286621,-2.47166,-9.9646,228.271484,0.608335,-0.302124,89.477539,-3.218906,-100.673218,35.705566,12.21939,0,7944,38919,46083,30723,0,0,60164,24326,2817,14338,0,0,0,0,0,0,0,0,0,0,0,0,0,0,0,0,0,0,0,0,0,0,0,0,0,659,22432,independent_20260430_211623,trial_001,subject_001,1777554987.9470642,277779.5568,2364374,1,0,0,1,0.8671876512735844,807.6319420622258,846.3266085263941,89.54775640543392,813.1812011315186,854.345235220298,31.509679358158618,588.2392435012439,894.1332320172037,92.4143235198949,588.7223792596453,886.6502736202895,-124.4062494,705.9956052571602,705.3377453864524,-107.5085606,644.1760491025962,410.1576351005745,-121.7228116,586.9206920286789,279.6726538939056,-62.77762469,532.5933549352511,71.16688596482743,-5.302709451,454.5590253672608,47.73076653296241,-4.588077418,728.6298523251314,53.84232301272624,235.55062149990025,771.3389519376459,721.4158046808022,212.55514139203152,883.1912121158673,442.2048650651207,238.2948370915913,890.459643599517,288.6277532151181,190.7223455730587,960.8870572805888,83.43376461055739,126.47578438411485,919.5235109164656,33.15904161668127,196.77291254060623,1144.0997846587811,148.63153266928867,64.06770799128681,35.9322920087132,61.74753372588935,38.25246627411066,78.4262466488702,51.241415764891634,50.77238999988538,51.71044152989789,102.48283152978328,102.48283152978328,0.6697786519024495,0.6697786519024495,22.11970792901338,1.5301000000326894,1
