timestamp,torso_angle,left_hip_angle,left_knee_angle,left_ankle_angle,right_hip_angle,right_knee_angle,right_ankle_angle,imu1ang_x,imu1vel_x,imu1acc_x,imu1ang_y,imu1vel_y,imu1acc_y,imu1ang_z,imu1vel_z,imu1acc_z,imu2ang_x,imu2vel_x,imu2acc_x,imu2ang_y,imu2vel_y,imu2acc_y,imu2ang_z,imu2vel_z,imu2acc_z,imu3ang_x,imu3vel_x,imu3acc_x,imu3ang_y,imu3vel_y,imu3acc_y,imu3ang_z,imu3vel_z,imu3acc_z,imu4ang_x,imu4vel_x,imu4acc_x,imu4ang_y,imu4vel_y,imu4acc_y,imu4ang_z,imu4vel_z,imu4acc_z,imu5ang_x,imu5vel_x,imu5acc_x,imu5ang_y,imu5vel_y,imu5acc_y,imu5ang_z,imu5vel_z,imu5acc_z,imu6ang_x,imu6vel_x,imu6acc_x,imu6ang_y,imu6vel_y,imu6acc_y,imu6ang_z,imu6vel_z,imu6acc_z,imu7ang_x,imu7vel_x,imu7acc_x,imu7ang_y,imu7vel_y,imu7acc_y,imu7ang_z,imu7vel_z,imu7acc_z,L_1,L_2,L_3,L_4,L_5,L_6,L_7,L_8,L_9,L_10,L_11,L_12,L_13,L_14,L_15,L_16,L_17,L_18,R_1,R_2,R_3,R_4,R_5,R_6,R_7,R_8,R_9,R_10,R_11,R_12,R_13,R_14,R_15,R_16,R_17,R_18,frame_id_left,frame_id_right,vicon_Session_ID,vicon_Trial_ID,vicon_Subject_ID,vicon_Vicon_Recv_Timestamp,vicon_Vicon_Recv_Timestamp_Mono,vicon_Vicon_Frame_Num,vicon_Vicon_Subject_Name,vicon_Vicon_Gap_Flag,vicon_Vicon_Gap_Size,vicon_Vicon_Original_Valid_Flag,vicon_Vicon_LASI_X,vicon_Vicon_LASI_Y,vicon_Vicon_LASI_Z,vicon_Vicon_RASI_X,vicon_Vicon_RASI_Y,vicon_Vicon_RASI_Z,vicon_Vicon_LPSI_X,vicon_Vicon_LPSI_Y,vicon_Vicon_LPSI_Z,vicon_Vicon_RPSI_X,vicon_Vicon_RPSI_Y,vicon_Vicon_RPSI_Z,vicon_Vicon_LTHI_X,vicon_Vicon_LTHI_Y,vicon_Vicon_LTHI_Z,vicon_Vicon_LKNE_X,vicon_Vicon_LKNE_Y,vicon_Vicon_LKNE_Z,vicon_Vicon_LTIB_X,vicon_Vicon_LTIB_Y,vicon_Vicon_LTIB_Z,vicon_Vicon_LANK_X,vicon_Vicon_LANK_Y,vicon_Vicon_LANK_Z,vicon_Vicon_LHEE_X,vicon_Vicon_LHEE_Y,vicon_Vicon_LHEE_Z,vicon_Vicon_LTOE_X,vicon_Vicon_LTOE_Y,vicon_Vicon_LTOE_Z,vicon_Vicon_RTHI_X,vicon_Vicon_RTHI_Y,vicon_Vicon_RTHI_Z,vicon_Vicon_RKNE_X,vicon_Vicon_RKNE_Y,vicon_Vicon_RKNE_Z,vicon_Vicon_RTIB_X,vicon_Vicon_RTIB_Y,vicon_Vicon_RTIB_Z,vicon_Vicon_RANK_X,vicon_Vicon_RANK_Y,vicon_Vicon_RANK_Z,vicon_Vicon_RHEE_X,vicon_Vicon_RHEE_Y,vicon_Vicon_RHEE_Z,vicon_Vicon_RTOE_X,vicon_Vicon_RTOE_Y,vicon_Vicon_RTOE_Z,left_pct_stance,left_pct_swing,right_pct_stance,right_pct_swing,step_frequency,step_length,left_step_length,right_step_length,left_stride_length,right_stride_length,left_step_speed,right_step_speed,step_width,cycle_time,phase_label
1777555973.185,2.7026296296296266,3.5450740740740656,17.408074,-6.63563,26.931925925925924,44.898704,-10.364222,78.903809,13.977051,-0.340093,-0.016479,50.78125,7.486831,-44.329834,-10.253906,0.833467,105.507202,106.750488,-0.905317,5.916138,95.092773,9.733359,-23.752441,18.859863,-0.507744,104.403076,43.029785,-2.155518,7.404785,-32.714844,9.144185,-107.122192,7.141113,-1.504072,2.960815,19.897461,-0.502954,3.087158,8.911133,0.579595,-89.412231,3.051758,10.303374,78.826904,-68.603516,-1.939966,-7.734375,85.449219,3.63085,-20.720215,-0.915527,-3.123105,112.911987,-372.131348,-1.087339,-0.670166,8.300781,5.369634,-131.517334,-10.559082,-8.59333,22.37915,-330.13916,-4.162544,0.126343,-73.791504,4.315825,-107.072754,14.526367,11.433823,0,7944,38919,46083,30723,0,0,60164,24326,2817,14338,0,0,0,0,0,0,0,0,0,0,0,0,0,0,0,0,0,0,0,0,0,0,0,0,0,659,41378,independent_20260430_213250,trial_001,subject_001,1777555973.1848302,278764.7938174,2462896,1,0,0,1,-0.9153688057496936,569.0169639312678,821.292520427273,86.34921069570002,584.0560974045114,825.761648845321,58.41926694913237,352.5246227435673,870.9917132338592,118.04488094444778,359.9343842019913,858.3562353971192,-114.22964523000702,448.9390324360032,683.1222524823237,-98.84314646657026,344.97634813487105,404.0153353280808,-107.67155076117062,266.2239279583326,282.29328149283003,-45.52003701844454,180.85652115892347,92.74242564717116,9.541649789565412,118.64973223714688,54.23276566491508,-14.65826078889362,390.63917308560775,54.09084615206817,227.8396389712397,583.640389707786,694.2602620500319,197.13668331587675,706.4892330189124,434.896817236989,225.8275158929737,714.7329054262694,294.1105774683636,167.74409409528857,793.5463699663206,76.6732326425934,112.35487135250683,750.3856932173325,26.013907265676806,154.11654998246885,977.495333754518,139.50202721164175,61.418783345371445,38.58121665462856,63.480060870243314,36.519939129756686,105.299421532886,66.23757905044322,63.17359609801856,69.30156200286787,132.47515810088643,132.47515810088643,1.1624631262917466,1.1624631262917466,19.3744502922776,1.139607400051318,2
1777555973.199,2.7026296296296266,3.5450740740740656,17.408074,-6.63563,26.931925925925924,44.898704,-10.364222,78.903809,13.977051,-0.340093,-0.016479,50.78125,7.486831,-44.329834,-10.253906,0.833467,105.507202,106.750488,-0.905317,5.916138,95.092773,9.733359,-23.752441,18.859863,-0.507744,104.403076,43.029785,-2.155518,7.404785,-32.714844,9.144185,-107.122192,7.141113,-1.504072,2.960815,19.897461,-0.502954,3.087158,8.911133,0.579595,-89.412231,3.051758,10.303374,78.826904,-68.603516,-1.939966,-7.734375,85.449219,3.63085,-20.720215,-0.915527,-3.123105,112.911987,-372.131348,-1.087339,-0.670166,8.300781,5.369634,-131.517334,-10.559082,-8.59333,22.37915,-330.13916,-4.162544,0.126343,-73.791504,4.315825,-107.072754,14.526367,11.433823,0,7944,38919,46083,30723,0,0,60164,24326,2817,14338,0,0,0,0,0,0,0,0,0,0,0,0,0,0,0,0,0,0,0,0,0,0,0,0,0,659,41378,independent_20260430_213250,trial_001,subject_001,1777555973.19483,278764.8040467,2462897,1,0,0,1,-1.467620995915134,570.1123385011322,818.4601177217058,85.52410085560523,585.5432614997777,823.0859738176006,59.41334977258959,354.1958728811246,869.0569462391778,118.95367322109884,361.9467998319426,856.418286195086,-114.18720610337996,447.48486827530365,681.1014776021467,-98.8253715499872,340.0885768508322,403.478908723649,-107.9048356798183,259.0151896843449,283.10088112316816,-46.083390094231184,170.12847443644785,95.16654840547916,8.764628691583821,106.67356925707028,55.58982348569422,-15.392174654664869,378.6343978570193,53.678660349395,227.42305314914293,586.1038787995533,692.7244461182057,197.11848481186647,708.0032589833968,432.7125571117279,224.90877581417809,716.4344704164146,291.61623811103993,165.8559487991544,796.8582683173645,75.00172965713033,109.54884484254988,756.0104871225134,26.188902247727626,155.04523247740627,981.6922009035432,136.66994342825248,61.418783345371445,38.58121665462856,63.480060870243314,36.519939129756686,105.299421532886,66.23757905044322,63.17359609801856,69.30156200286787,132.47515810088643,132.47515810088643,1.1624631262917466,1.1624631262917466,19.3744502922776,1.139607400051318,2
1777555973.22,3.1696296296296254,0.0620740740740757,14.546074,-6.63563,28.98692592592592,44.898704,-8.496222,79.370728,6.225586,-1.029858,0.543823,41.931152,7.735913,-42.824707,-5.615234,0.823887,108.989868,84.350586,-0.799937,4.21875,118.95752,9.714199,-20.291748,12.268066,-0.464634,105.809326,40.344238,1.417852,7.201538,31.188965,9.522598,-107.061768,3.601074,-1.887275,2.960815,19.897461,-0.502954,3.087158,8.911133,0.579595,-89.412231,3.051758,10.303374,76.772461,-45.532227,-2.026187,-7.536621,9.216309,3.137476,-19.495239,5.310059,-4.425996,112.911987,-372.131348,-1.087339,-0.670166,8.300781,5.369634,-131.517334,-10.559082,-8.59333,11.513672,-309.204102,1.22146,-2.719116,-94.726562,8.847202,-107.929688,1.098633,19.979253,0,7944,38919,46083,30723,0,0,60164,24326,2817,14338,0,0,0,0,0,0,0,0,0,0,0,0,0,0,0,0,0,0,0,0,0,0,0,0,0,659,41378,independent_20260430_213250,trial_001,subject_001,1777555973.224342,278764.8337604,2462900,1,0,0,1,-2.7016499423071023,575.5005873253394,810.7396808314287,84.22755330757539,592.4375418776269,816.7788297045134,62.61906895155346,361.4084907218415,864.029816838178,122.15584272609811,369.8927225110573,851.5834462356605,-113.47787129082012,446.1773265212657,675.0205145598187,-98.7390220801177,328.2774943958708,402.3428184707541,-108.65990250613184,239.62130268085312,287.3839078839199,-48.35451636526613,138.48166976124327,103.68526306762328,6.505841478558777,71.51297675683267,56.500823081772936,-17.49100240377664,342.6078325359304,53.30028118996001,225.82054781885884,595.6305260595319,687.9702009673908,194.900996582054,714.4951170097903,424.9605290175927,219.65657512371124,715.942873538887,282.77312599775166,161.3339069071968,785.9010782722793,69.44293172022321,103.46236780128072,742.0593796293394,26.778926488681734,154.0033282182868,977.4736479551494,131.7840098881006,61.418783345371445,38.58121665462856,63.480060870243314,36.519939129756686,105.299421532886,66.23757905044322,63.17359609801856,69.30156200286787,132.47515810088643,132.47515810088643,1.1624631262917466,1.1624631262917466,19.3744502922776,1.139607400051318,2
1777555973.227,3.1696296296296254,0.0620740740740757,14.546074,-6.63563,28.98692592592592,44.898704,-8.496222,79.370728,6.225586,-1.029858,0.543823,41.931152,7.735913,-42.824707,-5.615234,0.823887,108.989868,84.350586,-0.799937,4.21875,118.95752,9.714199,-20.291748,12.268066,-0.464634,105.809326,40.344238,1.417852,7.201538,31.188965,9.522598,-107.061768,3.601074,-1.887275,2.960815,19.897461,-0.502954,3.087158,8.911133,0.579595,-89.412231,3.051758,10.303374,76.772461,-45.532227,-2.026187,-7.536621,9.216309,3.137476,-19.495239,5.310059,-4.425996,112.911987,-372.131348,-1.087339,-0.670166,8.300781,5.369634,-131.517334,-10.559082,-8.59333,11.513672,-309.204102,1.22146,-2.719116,-94.726562,8.847202,-107.929688,1.098633,19.979253,0,7944,38919,46083,30723,0,0,60164,24326,2817,14338,0,0,0,0,0,0,0,0,0,0,0,0,0,0,0,0,0,0,0,0,0,0,0,0,0,659,41379,independent_20260430_213250,trial_001,subject_001,1777555973.224342,278764.8337604,2462900,1,0,0,1,-2.7016499423071023,575.5005873253394,810.7396808314287,84.22755330757539,592.4375418776269,816.7788297045134,62.61906895155346,361.4084907218415,864.029816838178,122.15584272609811,369.8927225110573,851.5834462356605,-113.47787129082012,446.1773265212657,675.0205145598187,-98.7390220801177,328.2774943958708,402.3428184707541,-108.65990250613184,239.62130268085312,287.3839078839199,-48.35451636526613,138.48166976124327,103.68526306762328,6.505841478558777,71.51297675683267,59.43542764500639,-17.49100240377664,342.6078325359304,52.79563393195629,225.82054781885884,595.6305260595319,687.9702009673908,194.900996582054,714.4951170097903,424.9605290175927,219.65657512371124,715.942873538887,282.77312599775166,161.3339069071968,785.9010782722793,69.44293172022321,103.46236780128072,742.0593796293394,27.765068422293364,154.0033282182868,977.4736479551494,124.87821303503492,61.418783345371445,38.58121665462856,63.480060870243314,36.519939129756686,105.299421532886,66.23757905044322,63.17359609801856,69.30156200286787,132.47515810088643,132.47515810088643,1.1624631262917466,1.1624631262917466,19.3744502922776,1.139607400051318,2
1777555973.238,3.1696296296296254,-1.4269259259259286,14.546074,-7.28963,29.66792592592593,33.330704,-5.140222,79.370728,6.225586,-1.029858,0.543823,41.931152,7.735913,-42.824707,-5.615234,0.823887,110.478516,93.322754,-0.814307,3.521118,122.924805,8.368198,-18.583374,4.455566,-1.154399,105.809326,40.344238,1.417852,7.201538,31.188965,9.522598,-107.061768,3.601074,-1.887275,3.713379,24.719238,-0.550854,3.411255,9.70459,0.114961,-89.280396,5.615234,9.84353,76.091309,-7.263184,-0.910107,-7.619019,-20.751953,3.568579,-19.890747,-6.347656,-0.756826,99.28894,-386.59668,2.193838,-0.307617,13.85498,7.697593,-131.577759,-7.324219,-11.347603,1.246948,-351.989746,9.330996,-5.075684,-59.570312,16.104111,-106.539917,92.407227,24.47231,0,7944,38919,46083,30723,0,0,60164,24326,2817,14338,0,0,0,0,0,0,0,0,0,0,0,0,0,0,0,0,0,0,0,0,0,0,0,0,0,659,41379,independent_20260430_213250,trial_001,subject_001,1777555973.2343423,278764.8438412,2462901,1,0,0,1,-2.722261934973992,578.1076031021786,808.4708178378766,84.16200924985641,595.5395027576285,814.9477845356298,63.77089194882237,364.4623206593825,862.6677503007464,123.3176566169734,373.383404344204,850.2619163417007,-112.90293378649504,446.67443026895165,672.9967651008124,-98.52989965324343,325.44024341016336,402.0432084713701,-108.925371301652,234.1593414051644,289.2884012811502,-49.627323878867394,128.29533342706546,107.70543537540946,5.979756621207837,59.680924810113176,62.1067543681222,-18.214827488951187,330.56904596046513,52.364679596146,225.59509265427727,599.1382577254576,686.2979695857042,193.2548640885149,716.966123125596,422.1667077351309,217.35551767877467,714.2547664224346,279.64422210079056,160.76051120949583,778.675559849336,67.68040041747199,102.35704933510976,733.004112286165,28.5873170740612,152.54455595107666,972.9936146299974,117.43141798142992,61.418783345371445,38.58121665462856,63.480060870243314,36.519939129756686,105.299421532886,66.23757905044322,63.17359609801856,69.30156200286787,132.47515810088643,132.47515810088643,1.1624631262917466,1.1624631262917466,19.3744502922776,1.139607400051318,2
1777555973.245,3.1696296296296254,-1.4269259259259286,14.546074,-7.28963,29.66792592592593,33.330704,-5.140222,79.370728,6.225586,-1.029858,0.543823,41.931152,7.735913,-42.824707,-5.615234,0.823887,110.478516,93.322754,-0.814307,3.521118,122.924805,8.368198,-18.583374,4.455566,-1.154399,105.809326,40.344238,1.417852,7.201538,31.188965,9.522598,-107.061768,3.601074,-1.887275,3.713379,24.719238,-0.550854,3.411255,9.70459,0.114961,-89.280396,5.615234,9.84353,76.091309,-7.263184,-0.910107,-7.619019,-20.751953,3.568579,-19.890747,-6.347656,-0.756826,99.28894,-386.59668,2.193838,-0.307617,13.85498,7.697593,-131.577759,-7.324219,-11.347603,1.246948,-351.989746,9.330996,-5.075684,-59.570312,16.104111,-106.539917,92.407227,24.47231,0,7944,38919,46083,30723,0,0,60164,24326,2817,14338,0,0,0,0,0,0,0,0,0,0,0,0,0,0,0,0,0,0,0,0,0,0,0,0,0,659,41379,independent_20260430_213250,trial_001,subject_001,1777555973.2443466,278764.853797,2462902,1,0,0,1,-2.518052348157162,580.8904600234891,806.431326259325,84.29896113857662,598.8213741214793,813.2241992142959,64.9160410770022,367.7726979641302,861.3513732324346,124.55541464045858,376.997422697839,849.1162135935762,-112.2935620561282,447.5616222883385,671.084306206068,-98.46938388358518,323.3245924797035,401.9560460769053,-109.47646124279672,229.50506299329965,291.64569734476066,-51.24417268785006,118.42313908181887,112.32775652427192,6.186621680230883,47.46779876386665,67.33301528194973,-18.906590411536094,318.27469129061694,51.74441585883156,225.68727643448727,602.7857461560798,684.5605192808254,191.68036063846824,719.4097778336711,419.4426128039186,215.00850278482028,712.1316292964323,276.91296331081253,160.57079790398782,770.6092382019826,66.96503655682325,101.78077965879628,722.8095061557201,29.53037777910493,150.4791715184612,968.2549238863204,109.29860007536992,61.418783345371445,38.58121665462856,63.480060870243314,36.519939129756686,105.299421532886,66.23757905044322,63.17359609801856,69.30156200286787,132.47515810088643,132.47515810088643,1.1624631262917466,1.1624631262917466,19.3744502922776,1.139607400051318,2
1777555973.257,2.8726296296296283,-3.661925925925928,11.882074,-6.61363,29.66792592592593,21.377704,-5.140222,79.074097,-13.244629,-1.302891,1.126099,37.231445,8.933423,-40.22644,2.258301,2.519561,112.714233,110.656738,-1.19272,2.675171,88.623047,7.544312,-16.743164,8.239746,-1.983076,110.352173,77.819824,-2.567461,6.240234,7.8125,9.249565,-104.408569,14.465332,0.459844,4.389038,23.498535,-0.708926,3.625488,9.82666,0.637075,-89.165039,3.78418,10.212363,76.091309,-7.263184,-0.910107,-7.619019,-20.751953,3.568579,-19.890747,-6.347656,-0.756826,86.654663,-341.003418,4.124224,0.390015,112.304688,8.463999,-128.952026,-35.705566,-8.923843,1.246948,-351.989746,9.330996,-5.075684,-59.570312,16.104111,-106.539917,92.407227,24.47231,0,7944,38919,46083,30723,0,0,60164,24326,2817,14338,0,0,0,0,0,0,0,0,0,0,0,0,0,0,0,0,0,0,0,0,0,0,0,0,0,659,41379,independent_20260430_213250,trial_001,subject_001,1777555973.2618563,278764.8707867,2462903,1,0,0,1,-2.0321852865600274,583.9045219839364,804.3974674783336,84.7192014685627,602.2181149988963,811.6388485796482,66.0804557768236,371.1056693060148,860.3296138438135,126.03420221552774,380.5858217900932,848.2855989718407,-111.46723360254448,449.1412791410484,669.188287386616,-98.27678210646091,322.03005597233584,401.8600644461968,-109.8569148193762,225.4100216516028,293.9583229119188,-52.85850881447785,109.1886224284986,116.45209610370917,4.78710020750379,36.71460251646926,73.60612708108246,-19.87646913809974,306.2961463778517,51.162604347863216,226.1787170253939,606.3848383866516,683.1420863752194,190.3607580116204,721.9571016661714,417.47285478431263,212.54143453716105,710.5437172324517,275.3677856884454,159.18689351121347,762.919488536987,65.62891266360786,101.23736938056412,712.4595967757955,30.801743360968253,148.66527306486864,962.1803502914586,100.11874291299272,61.418783345371445,38.58121665462856,63.480060870243314,36.519939129756686,105.299421532886,66.23757905044322,63.17359609801856,69.30156200286787,132.47515810088643,132.47515810088643,1.1624631262917466,1.1624631262917466,19.3744502922776,1.139607400051318,2
1777555973.269,2.8726296296296283,-3.661925925925928,11.882074,-6.61363,29.66792592592593,21.377704,-5.140222,79.074097,-13.244629,-1.302891,1.126099,37.231445,8.933423,-40.22644,2.258301,2.519561,112.714233,110.656738,-1.19272,2.675171,88.623047,7.544312,-16.743164,8.239746,-1.983076,110.352173,77.819824,-2.567461,6.240234,7.8125,9.249565,-104.408569,14.465332,0.459844,4.389038,23.498535,-0.708926,3.625488,9.82666,0.637075,-89.165039,3.78418,10.212363,76.091309,-7.263184,-0.910107,-7.619019,-20.751953,3.568579,-19.890747,-6.347656,-0.756826,86.654663,-341.003418,4.124224,0.390015,112.304688,8.463999,-128.952026,-35.705566,-8.923843,1.246948,-351.989746,9.330996,-5.075684,-59.570312,16.104111,-106.539917,92.407227,24.47231,0,7944,38919,46083,30723,0,0,60164,24326,2817,14338,0,0,0,0,0,0,0,0,0,0,0,0,0,0,0,0,0,0,0,0,0,0,0,0,0,659,41379,independent_20260430_213250,trial_001,subject_001,1777555973.2718549,278764.8808454,2462904,1,0,0,1,-1.2289623785400894,586.760847794757,802.694582462825,85.46916685361792,605.4500741928754,810.3446263603786,67.18194541170196,374.3088661770293,859.647175567555,127.35128747268024,384.0086530929538,848.0485380984569,-110.54116378907236,451.18464902745126,667.2073797567912,-98.09840689540772,321.73602049300524,401.53730289987016,-110.48697911534128,222.49400386392352,296.55680361684773,-54.688837333305216,101.10593236616975,121.18426688122904,3.3904616020886817,26.93455244072717,81.07740594043,-20.83932799458965,295.0916229342168,50.55552425467492,226.96524869238,609.7843946654865,682.5775674457273,189.5098305502492,724.634065865731,417.2633888923604,210.34573138367065,710.3023539288205,275.555811318456,157.92218410826823,754.5153968409753,64.93370121838873,100.85978332612576,702.1093370520647,32.13559010080809,146.27240826935557,954.6634236300306,90.9602957058226,61.418783345371445,38.58121665462856,63.480060870243314,36.519939129756686,105.299421532886,66.23757905044322,63.17359609801856,69.30156200286787,132.47515810088643,132.47515810088643,1.1624631262917466,1.1624631262917466,19.3744502922776,1.139607400051318,2
1777555973.275,2.8726296296296283,-6.567925925925934,11.882074,-10.26663,28.94292592592592,12.082704,-5.118222,79.074097,-13.244629,-1.302891,1.126099,37.231445,8.933423,-40.22644,2.258301,2.519561,115.620117,78.613281,-1.331631,1.730347,31.616211,10.102192,-15.732422,17.456055,-0.603545,110.352173,77.819824,-2.567461,6.240234,7.8125,9.249565,-104.408569,14.465332,0.459844,5.278931,28.747559,-0.378413,3.823242,6.469727,0.502954,-89.121094,1.525879,9.83395,76.816406,29.174805,5.235513,-6.773071,31.982422,7.079678,-20.231323,-30.944824,5.216353,78.085327,-253.173828,-0.196392,2.197266,114.135742,8.013735,-125.452881,-42.175293,-6.868916,-11.365356,-331.176758,1.786685,-6.130371,-40.83252,21.679717,-101.398315,157.226562,15.596367,0,7944,38919,46083,30723,0,0,60164,24326,2817,14338,0,0,0,0,0,0,0,0,0,0,0,0,0,0,0,0,0,0,0,0,0,0,0,0,0,659,41379,independent_20260430_213250,trial_001,subject_001,1777555973.2718549,278764.8808454,2462904,1,0,0,1,-1.2289623785400894,586.760847794757,802.694582462825,85.46916685361792,605.4500741928754,810.3446263603786,67.18194541170196,374.3088661770293,859.647175567555,127.35128747268024,384.0086530929538,848.0485380984569,-110.54116378907236,451.18464902745126,667.2073797567912,-98.09840689540772,321.73602049300524,401.53730289987016,-110.48697911534128,222.49400386392352,296.55680361684773,-54.688837333305216,101.10593236616975,121.18426688122904,3.3904616020886817,26.93455244072717,89.9167195000279,-20.83932799458965,295.0916229342168,49.85298630161379,226.96524869238,609.7843946654865,682.5775674457273,189.5098305502492,724.634065865731,417.2633888923604,210.34573138367065,710.3023539288205,275.555811318456,157.92218410826823,754.5153968409753,64.93370121838873,100.85978332612576,702.1093370520647,33.44406192411058,146.27240826935557,954.6634236300306,82.33695918146334,61.418783345371445,38.58121665462856,63.480060870243314,36.519939129756686,105.299421532886,66.23757905044322,63.17359609801856,69.30156200286787,132.47515810088643,132.47515810088643,1.1624631262917466,1.1624631262917466,19.3744502922776,1.139607400051318,2
1777555973.285,2.8726296296296283,-6.567925925925934,11.882074,-10.26663,28.94292592592592,12.082704,-5.118222,79.074097,-13.244629,-1.302891,1.126099,37.231445,8.933423,-40.22644,2.258301,2.519561,115.620117,78.613281,-1.331631,1.730347,31.616211,10.102192,-15.732422,17.456055,-0.603545,110.352173,77.819824,-2.567461,6.240234,7.8125,9.249565,-104.408569,14.465332,0.459844,5.278931,28.747559,-0.378413,3.823242,6.469727,0.502954,-89.121094,1.525879,9.83395,76.816406,29.174805,5.235513,-6.773071,31.982422,7.079678,-20.231323,-30.944824,5.216353,78.085327,-253.173828,-0.196392,2.197266,114.135742,8.013735,-125.452881,-42.175293,-6.868916,-11.365356,-331.176758,1.786685,-6.130371,-40.83252,21.679717,-101.398315,157.226562,15.596367,0,7944,38919,46083,30723,0,0,60164,24326,2817,14338,0,0,0,0,0,0,0,0,0,0,0,0,0,0,0,0,0,0,0,0,0,0,0,0,0,659,41381,independent_20260430_213250,trial_001,subject_001,1777555973.2838805,278764.8933236,2462906,1,0,0,1,1.1180216666623393,592.4363512870293,800.2121387822157,87.63208270569099,611.4839405811039,809.119705471484,67.98946105231127,380.2573591989222,859.2146839413905,128.7358973949061,389.91316441355127,849.1595814188018,-107.64611575420722,456.78131138372265,663.7638155308856,-97.39548541573129,325.6570509812026,400.7283213094501,-111.51905452503767,220.60433519116205,302.3675511791565,-58.52732607942583,87.44925797466647,132.467951949374,0.5636898847942029,9.08543502180028,100.2467721479725,-22.74557290295674,273.2267560249679,49.01808336867384,229.17315506041425,616.2206626677619,684.3725873036836,188.5692086148102,730.8564375620986,419.8055417672277,211.6396286822394,712.1319227559396,277.97508318173954,156.9434320688783,735.7354764114124,64.65703490445935,101.03680595703422,680.6080068885627,34.693826529810536,144.49521024070114,937.310893136713,74.69515337803607,61.418783345371445,38.58121665462856,63.480060870243314,36.519939129756686,105.299421532886,66.23757905044322,63.17359609801856,69.30156200286787,132.47515810088643,132.47515810088643,1.1624631262917466,1.1624631262917466,19.3744502922776,1.139607400051318,2
1777555973.295,2.8726296296296283,-6.567925925925934,11.882074,-10.26663,28.94292592592592,12.082704,-5.118222,79.074097,-13.244629,-1.302891,1.126099,37.231445,8.933423,-40.22644,2.258301,2.519561,115.620117,78.613281,-1.331631,1.730347,31.616211,10.102192,-15.732422,17.456055,-0.603545,110.352173,77.819824,-2.567461,6.240234,7.8125,9.249565,-104.408569,14.465332,0.459844,5.278931,28.747559,-0.378413,3.823242,6.469727,0.502954,-89.121094,1.525879,9.83395,76.816406,29.174805,5.235513,-6.773071,31.982422,7.079678,-20.231323,-30.944824,5.216353,78.085327,-253.173828,-0.196392,2.197266,114.135742,8.013735,-125.452881,-42.175293,-6.868916,-11.365356,-331.176758,1.786685,-6.130371,-40.83252,21.679717,-101.398315,157.226562,15.596367,0,7944,38919,46083,30723,0,0,60164,24326,2817,14338,0,0,0,0,0,0,0,0,0,0,0,0,0,0,0,0,0,0,0,0,0,0,0,0,0,659,41382,independent_20260430_213250,trial_001,subject_001,1777555973.3018825,278764.9107739,2462907,1,0,0,1,2.6150338327705724,595.3043955319711,799.7013036928955,88.95498567280701,614.3978630909364,809.4704857732119,67.78992032743903,382.8995821520203,859.3433981479587,128.86389196535967,392.2510966143183,850.2446341611391,-106.13515418853454,460.1622568114428,662.1783961132226,-97.13104193468592,330.1427977863881,399.875882763826,-111.8629266452508,221.8985688351941,305.26165281296824,-60.66940178782652,82.98123141683509,140.0028321685777,-1.405397076813415,2.473095551611819,112.1167126070492,-23.4802999699218,263.0360785870572,47.94193754794733,230.236307020618,619.5289485302875,686.0194867702154,188.17097584564152,734.8500943580295,420.200571952672,214.1050982829874,712.624673538346,279.1648266111235,156.7259424225224,725.3770582936378,64.98408380952431,101.1028981900884,669.2977513375082,35.80737039608847,144.9189340089255,926.8598732211376,68.39436141767985,61.418783345371445,38.58121665462856,63.480060870243314,36.519939129756686,105.299421532886,66.23757905044322,63.17359609801856,69.30156200286787,132.47515810088643,132.47515810088643,1.1624631262917466,1.1624631262917466,19.3744502922776,1.139607400051318,2
1777555973.309,2.422629629629625,-6.567925925925934,14.063074,-10.26663,28.51992592592592,12.082704,-5.118222,78.623657,2.685547,0.512534,1.230469,26.916504,10.217153,-38.496094,4.394531,3.70749,115.620117,78.613281,-1.331631,1.730347,31.616211,10.102192,-15.732422,17.456055,-0.603545,115.438843,112.548828,-1.916016,4.850464,38.085938,10.763218,-103.535156,22.583008,-2.246528,5.278931,28.747559,-0.378413,3.823242,6.469727,0.502954,-89.121094,1.525879,9.83395,77.23938,12.878418,1.652563,-4.899902,143.859863,9.886641,-16.435547,-20.202637,8.253237,78.085327,-253.173828,-0.196392,2.197266,114.135742,8.013735,-125.452881,-42.175293,-6.868916,-11.365356,-331.176758,1.786685,-6.130371,-40.83252,21.679717,-101.398315,157.226562,15.596367,0,7944,38919,46083,30723,0,0,60164,24326,2817,14338,0,0,0,0,0,0,0,0,0,0,0,0,0,0,0,0,0,0,0,0,0,0,0,0,0,659,41382,independent_20260430_213250,trial_001,subject_001,1777555973.3113909,278764.9208268,2462908,1,0,0,1,4.315514650520542,598.2607045553968,799.7949199009311,90.51794215536748,617.0575198106602,810.3304800818269,67.6043891274536,385.3002770080992,859.5925904095545,128.73551669586348,394.4158489568049,851.0186585045328,-104.44394253429392,463.9134755286972,660.8580100241599,-96.98981447409196,336.11472486929046,398.7033697929421,-112.15585797537834,224.7541340333271,308.1054108167794,-62.43388717140483,79.41379658594757,147.79497884969828,-3.383925031414538,-2.8153645506750817,125.4460702242752,-24.534219566228096,253.2794184443297,46.42980342513883,231.0910919361245,622.9009089927727,687.8973570664137,187.79619051923285,738.4331214928667,420.51494222428136,215.9221140241148,711.9915296490872,279.8839445268595,156.27708117284809,714.5540754626267,65.65676192595984,101.14590622624422,657.627913140299,36.7366484875128,145.3268317802634,915.31054378495,63.661526797993375,61.418783345371445,38.58121665462856,63.480060870243314,36.519939129756686,105.299421532886,66.23757905044322,63.17359609801856,69.30156200286787,132.47515810088643,132.47515810088643,1.1624631262917466,1.1624631262917466,19.3744502922776,1.139607400051318,2
1777555973.324,2.422629629629625,-6.567925925925934,14.063074,-10.26663,28.51992592592592,12.082704,-5.118222,78.623657,2.685547,0.512534,1.230469,26.916504,10.217153,-38.496094,4.394531,3.70749,115.620117,78.613281,-1.331631,1.730347,31.616211,10.102192,-15.732422,17.456055,-0.603545,115.438843,112.548828,-1.916016,4.850464,38.085938,10.763218,-103.535156,22.583008,-2.246528,5.278931,28.747559,-0.378413,3.823242,6.469727,0.502954,-89.121094,1.525879,9.83395,77.23938,12.878418,1.652563,-4.899902,143.859863,9.886641,-16.435547,-20.202637,8.253237,78.085327,-253.173828,-0.196392,2.197266,114.135742,8.013735,-125.452881,-42.175293,-6.868916,-11.365356,-331.176758,1.786685,-6.130371,-40.83252,21.679717,-101.398315,157.226562,15.596367,0,7944,38919,46083,30723,0,0,60164,24326,2817,14338,0,0,0,0,0,0,0,0,0,0,0,0,0,0,0,0,0,0,0,0,0,0,0,0,0,659,41382,independent_20260430_213250,trial_001,subject_001,1777555973.3243916,278764.9336381,2462910,1,0,0,1,8.058606196883506,603.9218932694604,801.2672463290132,94.20135757569408,622.205564484978,813.3908357596624,67.83311052098335,389.6112712909559,859.7453380300501,129.2288291668918,398.5519115890648,851.8648559502648,-100.9427851780976,472.8362308381799,658.3732373087008,-96.95174143918013,352.3709459766376,395.4356625881749,-112.44717393604542,234.8153544351956,314.0205714925225,-64.86933533170348,77.28782958092395,166.59128270459055,-6.543211929933044,-7.173992650216959,139.85190975326503,-26.01535026009609,235.28399398815023,43.95956571769122,232.463204050565,628.9695525286106,691.084036883849,188.06173971694963,740.2363540068025,419.7105204946085,217.79852996706936,707.1225606614926,279.9372715197075,155.24614783344234,692.9129617898702,66.01937025347574,100.95373493878776,634.5436760602619,37.431580363915984,145.45015738896765,893.2460050608172,60.64678894497649,61.418783345371445,38.58121665462856,63.480060870243314,36.519939129756686,105.299421532886,66.23757905044322,63.17359609801856,69.30156200286787,132.47515810088643,132.47515810088643,1.1624631262917466,1.1624631262917466,19.3744502922776,1.139607400051318,2
1777555973.329,2.422629629629625,-6.567925925925934,14.063074,-10.26663,28.51992592592592,12.082704,-5.118222,78.623657,2.685547,0.512534,1.230469,26.916504,10.217153,-38.496094,4.394531,3.70749,115.620117,78.613281,-1.331631,1.730347,31.616211,10.102192,-15.732422,17.456055,-0.603545,115.438843,112.548828,-1.916016,4.850464,38.085938,10.763218,-103.535156,22.583008,-2.246528,5.278931,28.747559,-0.378413,3.823242,6.469727,0.502954,-89.121094,1.525879,9.83395,77.23938,12.878418,1.652563,-4.899902,143.859863,9.886641,-16.435547,-20.202637,8.253237,78.085327,-253.173828,-0.196392,2.197266,114.135742,8.013735,-125.452881,-42.175293,-6.868916,-11.365356,-331.176758,1.786685,-6.130371,-40.83252,21.679717,-101.398315,157.226562,15.596367,0,7944,38919,46083,30723,0,0,60164,24326,2817,14338,0,0,0,0,0,0,0,0,0,0,0,0,0,0,0,0,0,0,0,0,0,0,0,0,0,659,41382,independent_20260430_213250,trial_001,subject_001,1777555973.3243916,278764.9336381,2462910,1,0,0,1,8.058606196883506,603.9218932694604,801.2672463290132,94.20135757569408,622.205564484978,813.3908357596624,67.83311052098335,389.6112712909559,859.7453380300501,129.2288291668918,398.5519115890648,851.8648559502648,-100.9427851780976,472.8362308381799,658.3732373087008,-96.95174143918013,352.3709459766376,395.4356625881749,-112.44717393604542,234.8153544351956,314.0205714925225,-64.86933533170348,77.28782958092395,166.59128270459055,-6.543211929933044,-7.173992650216959,156.08660433458036,-26.01535026009609,235.28399398815023,41.12911625824529,232.463204050565,628.9695525286106,691.084036883849,188.06173971694963,740.2363540068025,419.7105204946085,217.79852996706936,707.1225606614926,279.9372715197075,155.24614783344234,692.9129617898702,66.01937025347574,100.95373493878776,634.5436760602619,38.07395457928806,145.45015738896765,893.2460050608172,57.664028854471646,61.418783345371445,38.58121665462856,63.480060870243314,36.519939129756686,105.299421532886,66.23757905044322,63.17359609801856,69.30156200286787,132.47515810088643,132.47515810088643,1.1624631262917466,1.1624631262917466,19.3744502922776,1.139607400051318,2
1777555973.341,2.422629629629625,-6.567925925925934,14.063074,-10.26663,28.51992592592592,12.082704,-5.118222,78.623657,2.685547,0.512534,1.230469,26.916504,10.217153,-38.496094,4.394531,3.70749,115.620117,78.613281,-1.331631,1.730347,31.616211,10.102192,-15.732422,17.456055,-0.603545,115.438843,112.548828,-1.916016,4.850464,38.085938,10.763218,-103.535156,22.583008,-2.246528,5.278931,28.747559,-0.378413,3.823242,6.469727,0.502954,-89.121094,1.525879,9.83395,77.23938,12.878418,1.652563,-4.899902,143.859863,9.886641,-16.435547,-20.202637,8.253237,78.085327,-253.173828,-0.196392,2.197266,114.135742,8.013735,-125.452881,-42.175293,-6.868916,-11.365356,-331.176758,1.786685,-6.130371,-40.83252,21.679717,-101.398315,157.226562,15.596367,0,7944,38919,46083,30723,0,0,60164,24326,2817,14338,0,0,0,0,0,0,0,0,0,0,0,0,0,0,0,0,0,0,0,0,0,0,0,0,0,659,41382,independent_20260430_213250,trial_001,subject_001,1777555973.344909,278764.9539418,2462912,1,0,0,1,11.277512592964731,608.3910807917754,803.7068047158733,97.20125132573996,626.4609571943823,816.6309764103033,70.30898270338443,393.1720806242728,860.1013810109096,131.70955079439324,402.3139260514696,853.0357119212218,-97.63859619349708,483.7329707017177,656.3149773152892,-96.81532517329208,372.78541920018193,391.9146408621763,-112.1120849489569,250.0997551761228,320.4214332517449,-66.03387431105944,82.08002027076316,188.206658988774,-8.524980522343917,-1.5921063484314262,173.3461885719954,-27.4573748398021,220.5710499738171,39.072707433259225,234.2406532563792,632.3960518145415,691.5031162490726,188.47355325741867,734.3946584928009,416.8776115285648,218.3447907866298,699.1993173324279,277.956244391491,153.66392694873463,670.4148010541517,66.17917439255429,100.16387317395352,611.231653957095,38.563658344894776,144.6119355554053,870.3017400763197,56.18833221471254,61.418783345371445,38.58121665462856,63.480060870243314,36.519939129756686,105.299421532886,66.23757905044322,63.17359609801856,69.30156200286787,132.47515810088643,132.47515810088643,1.1624631262917466,1.1624631262917466,19.3744502922776,1.139607400051318,0
1777555973.345,2.422629629629625,-9.660925925925923,14.063074,-13.51863,28.63992592592592,6.352704,-8.309222,78.623657,2.685547,0.512534,1.230469,26.916504,10.217153,-38.496094,4.394531,3.70749,118.712769,61.523438,-1.925596,-0.060425,50.170898,10.930869,-13.348389,7.93457,-2.294429,115.438843,112.548828,-1.916016,4.850464,38.085938,10.763218,-103.535156,22.583008,-2.246528,7.113647,46.630859,-0.531694,4.108887,9.460449,0.502954,-89.049683,1.647949,9.948911,77.11853,1.037598,0.349673,-4.416504,116.394043,10.859019,-14.639282,-0.061035,8.660391,72.658081,4.02832,1.317261,1.708374,-70.068359,1.796265,-125.073853,41.748047,-3.434458,-23.126221,-129.089355,-10.595566,-6.240234,-25.878906,28.112739,-97.7948,-20.996094,-2.888394,0,7944,38919,46083,30723,0,0,60164,24326,2817,14338,0,0,0,0,0,0,0,0,0,0,0,0,0,0,0,0,0,0,0,0,0,0,0,0,0,659,41382,independent_20260430_213250,trial_001,subject_001,1777555973.344909,278764.9539418,2462912,1,0,0,1,11.277512592964731,608.3910807917754,803.7068047158733,97.20125132573996,626.4609571943823,816.6309764103033,70.30898270338443,393.1720806242728,860.1013810109096,131.70955079439324,402.3139260514696,853.0357119212218,-97.63859619349708,483.7329707017177,656.3149773152892,-96.81532517329208,372.78541920018193,391.9146408621763,-112.1120849489569,250.0997551761228,320.4214332517449,-66.03387431105944,82.08002027076316,188.206658988774,-8.524980522343917,-1.5921063484314262,191.05355083549148,-27.4573748398021,220.5710499738171,37.54425671536259,234.2406532563792,632.3960518145415,691.5031162490726,188.47355325741867,734.3946584928009,416.8776115285648,218.3447907866298,699.1993173324279,277.956244391491,153.66392694873463,670.4148010541517,66.17917439255429,100.16387317395352,611.231653957095,38.92431139802901,144.6119355554053,870.3017400763197,55.3014249348588,61.418783345371445,38.58121665462856,63.480060870243314,36.519939129756686,105.299421532886,66.23757905044322,63.17359609801856,69.30156200286787,132.47515810088643,132.47515810088643,1.1624631262917466,1.1624631262917466,19.3744502922776,1.139607400051318,0
1777555973.359,2.422629629629625,-10.797925925925924,16.375074,-13.51863,29.46992592592592,6.352704,-1.630222,78.623657,2.685547,0.512534,1.230469,26.916504,10.217153,-38.496094,4.394531,3.70749,119.849854,53.771973,-0.244292,-0.593262,38.452148,11.00272,-12.733154,8.422852,-2.304009,121.981201,145.324707,-0.162861,2.521362,43.823242,11.711646,-102.683716,39.611816,-2.155518,7.113647,46.630859,-0.531694,4.108887,9.460449,0.502954,-89.049683,1.647949,9.948911,76.289062,-0.061035,-2.950664,-5.026245,24.536133,7.156318,-11.414795,48.156738,6.653364,72.658081,4.02832,1.317261,1.708374,-70.068359,1.796265,-125.073853,41.748047,-3.434458,-21.873779,182.067871,4.742139,-6.16333,149.353027,27.854077,-100.26123,-40.405273,-5.891748,0,7944,38919,46083,30723,0,0,60164,24326,2817,14338,0,0,0,0,0,0,0,0,0,0,0,0,0,0,0,0,0,0,0,0,0,0,0,0,0,659,41382,independent_20260430_213250,trial_001,subject_001,1777555973.3551912,278764.9640672,2462913,1,0,0,1,12.637697947002742,609.9851481327771,805.1167631865261,98.50852965504404,628.0193164685896,818.1405237332323,72.04502148034015,394.65154801027546,860.6662053767997,133.49825474598302,403.9121588098571,854.3218571859686,-95.93798198364088,489.3122010605978,655.826244477471,-97.02201888223397,384.3497137348465,390.6272466472967,-111.7593648572998,259.11815058402965,324.2180816183374,-66.44126361529433,86.48935530962316,199.5217128683392,-9.28397294381182,4.854767207430429,208.4930891471002,-28.27116759668829,214.35756801788403,36.70050073300856,235.4871313225642,632.5291061714712,690.6313867753419,187.98163652374325,730.2583455565758,415.0741442020933,217.49706215745,693.6954831459169,276.7475048886666,153.788446129175,658.9198427029854,67.10378843924971,99.82519033401267,599.3375017715454,39.17211287433333,143.92196834096572,858.6558874912972,54.66348989939446,61.418783345371445,38.58121665462856,63.480060870243314,36.519939129756686,105.299421532886,66.23757905044322,63.17359609801856,69.30156200286787,132.47515810088643,132.47515810088643,1.1624631262917466,1.1624631262917466,19.3744502922776,1.139607400051318,0
1777555973.366,2.422629629629625,-10.797925925925924,16.375074,-13.51863,29.46992592592592,6.352704,-1.630222,78.623657,2.685547,0.512534,1.230469,26.916504,10.217153,-38.496094,4.394531,3.70749,119.849854,53.771973,-0.244292,-0.593262,38.452148,11.00272,-12.733154,8.422852,-2.304009,121.981201,145.324707,-0.162861,2.521362,43.823242,11.711646,-102.683716,39.611816,-2.155518,7.113647,46.630859,-0.531694,4.108887,9.460449,0.502954,-89.049683,1.647949,9.948911,76.289062,-0.061035,-2.950664,-5.026245,24.536133,7.156318,-11.414795,48.156738,6.653364,72.658081,4.02832,1.317261,1.708374,-70.068359,1.796265,-125.073853,41.748047,-3.434458,-21.873779,182.067871,4.742139,-6.16333,149.353027,27.854077,-100.26123,-40.405273,-5.891748,0,7944,38919,46083,30723,0,0,60164,24326,2817,14338,0,0,0,0,0,0,0,0,0,0,0,0,0,0,0,0,0,0,0,0,0,0,0,0,0,659,41382,independent_20260430_213250,trial_001,subject_001,1777555973.364437,278764.9740092,2462914,1,0,0,1,13.800968079747136,610.8742827411861,806.7101806288243,99.699487424209,629.2542857915013,819.5848505663475,73.63817252275972,395.6560471101392,861.3711643444883,135.28487557900488,405.1169657097177,855.8656821972463,-94.36570988254196,495.0136541362973,655.7563056235292,-96.52675572154142,396.0335974778483,389.88906324083575,-111.06618853533912,268.73941422224607,328.40689472392444,-65.95293972090381,92.1022474649303,210.1772331873904,-10.001409967891808,14.863654203584456,225.3736562757624,-29.46539308095133,208.4904943734022,36.60075070464621,236.85950056485177,631.4881740275251,689.8157041218711,187.08984094322847,726.1368889620549,413.4418234294091,216.3569049494496,686.8216644937381,275.71588687083164,151.9589899110835,647.5514635212895,66.60201796511902,98.97136664874742,587.8604839405965,39.3229025853388,143.2863202198887,847.0581196741392,54.2299465186928,61.418783345371445,38.58121665462856,63.480060870243314,36.519939129756686,105.299421532886,66.23757905044322,63.17359609801856,69.30156200286787,132.47515810088643,132.47515810088643,1.1624631262917466,1.1624631262917466,19.3744502922776,1.139607400051318,0
1777555973.378,2.422629629629625,-10.797925925925924,16.375074,-13.51863,29.46992592592592,6.352704,-1.630222,78.623657,2.685547,0.512534,1.230469,26.916504,10.217153,-38.496094,4.394531,3.70749,119.849854,53.771973,-0.244292,-0.593262,38.452148,11.00272,-12.733154,8.422852,-2.304009,121.981201,145.324707,-0.162861,2.521362,43.823242,11.711646,-102.683716,39.611816,-2.155518,7.113647,46.630859,-0.531694,4.108887,9.460449,0.502954,-89.049683,1.647949,9.948911,76.289062,-0.061035,-2.950664,-5.026245,24.536133,7.156318,-11.414795,48.156738,6.653364,72.658081,4.02832,1.317261,1.708374,-70.068359,1.796265,-125.073853,41.748047,-3.434458,-21.873779,182.067871,4.742139,-6.16333,149.353027,27.854077,-100.26123,-40.405273,-5.891748,0,7944,38919,46083,30723,0,0,60164,24326,2817,14338,0,0,0,0,0,0,0,0,0,0,0,0,0,0,0,0,0,0,0,0,0,0,0,0,0,659,41383,independent_20260430_213250,trial_001,subject_001,1777555973.3739414,278764.9837826,2462915,1,0,0,1,14.92105630497522,611.5023964614002,808.5416372555794,101.0302956378617,630.0212040957077,821.132138078548,75.0893508929329,396.2972783989245,862.5226760956883,136.62378414575687,405.895278700322,857.8216597728297,-92.75693615205196,500.3391309701127,656.1708141397239,-95.865505736541,408.26373163885904,389.8294476250461,-109.61221716599346,279.3121701938648,332.7116880623941,-65.6077637930972,100.03104689198848,220.0800005707517,-10.35670072587868,28.49883874949107,241.2572600291909,-30.70808557811815,202.3862005045673,37.217369322040845,238.15998155425,629.6064416420983,689.6065542025084,186.0801386237728,721.4586998540684,412.1556677117431,215.22714914507912,678.5283962418002,275.1413035817684,151.329921535485,636.1103965351197,66.85808541842881,98.42757708867045,576.2295567805247,39.467321577465626,142.64651217321995,835.5053261917895,54.03793691438055,61.418783345371445,38.58121665462856,63.480060870243314,36.519939129756686,105.299421532886,66.23757905044322,63.17359609801856,69.30156200286787,132.47515810088643,132.47515810088643,1.1624631262917466,1.1624631262917466,19.3744502922776,1.139607400051318,0
1777555973.386,2.356629629629637,-12.20392592592593,16.375074,-17.57263,29.46992592592592,13.851704,2.308778,78.557739,-1.586914,0.153281,1.219482,32.531738,11.189531,-36.364746,10.986328,3.784131,121.256104,32.592773,-0.05269,-1.779785,56.82373,11.951147,-11.332397,9.216309,0.249082,121.981201,145.324707,-0.162861,2.521362,43.823242,11.711646,-102.683716,39.611816,-2.155518,9.602051,45.776367,0.00958,4.54834,6.04248,0.560435,-89.049683,-4.02832,9.651929,76.289062,-0.061035,-2.950664,-5.026245,24.536133,7.156318,-11.414795,48.156738,6.653364,79.326782,121.032715,0.795146,-0.142822,47.546387,17.100439,-125.233154,19.348145,1.005908,-17.935181,255.249023,-1.825005,-3.043213,209.899902,18.168618,-101.645508,-13.549805,-6.595884,0,7944,38919,46083,30723,0,0,60164,24326,2817,14338,0,0,0,0,0,0,0,0,0,0,0,0,0,0,0,0,0,0,0,0,0,0,0,0,0,659,41383,independent_20260430_213250,trial_001,subject_001,1777555973.384946,278764.9939672,2462916,1,0,0,1,16.442301086516068,612.2288821365986,810.4315492048183,102.47290677823908,630.4360194512979,822.7644658344761,75.92092407744671,396.53225967838966,864.0048836384452,137.48100217690592,406.1772126742181,859.973465288163,-91.28935614567942,505.3668073934646,657.1112631082376,-95.768445969642,420.9357892186644,390.6712152111557,-109.09607631879028,290.9043876328661,337.4015573459989,-64.90737814364554,109.47816509941435,229.3657406060724,-10.11097466849418,45.06460375730779,255.04275025627425,-31.97005623112568,195.47416931850708,38.58470685866725,239.2330763748396,627.5183545655542,689.9310971831729,185.9209890569127,715.4298171310899,411.4564101830133,214.4633364076008,668.8368421123853,275.11372122644724,151.18124770983448,624.4300843605147,67.40047960660759,97.91812941802006,564.7760304564393,39.46724298282659,142.1492655623058,824.1011260891999,54.62450971971714,61.418783345371445,38.58121665462856,63.480060870243314,36.519939129756686,105.299421532886,66.23757905044322,63.17359609801856,69.30156200286787,132.47515810088643,132.47515810088643,1.1624631262917466,1.1624631262917466,19.3744502922776,1.139607400051318,0
1777555973.395,2.356629629629637,-12.20392592592593,16.375074,-17.57263,29.46992592592592,13.851704,2.308778,78.557739,-1.586914,0.153281,1.219482,32.531738,11.189531,-36.364746,10.986328,3.784131,121.256104,32.592773,-0.05269,-1.779785,56.82373,11.951147,-11.332397,9.216309,0.249082,121.981201,145.324707,-0.162861,2.521362,43.823242,11.711646,-102.683716,39.611816,-2.155518,9.602051,45.776367,0.00958,4.54834,6.04248,0.560435,-89.049683,-4.02832,9.651929,76.289062,-0.061035,-2.950664,-5.026245,24.536133,7.156318,-11.414795,48.156738,6.653364,79.326782,121.032715,0.795146,-0.142822,47.546387,17.100439,-125.233154,19.348145,1.005908,-17.935181,255.249023,-1.825005,-3.043213,209.899902,18.168618,-101.645508,-13.549805,-6.595884,0,7944,38919,46083,30723,0,0,60164,24326,2817,14338,0,0,0,0,0,0,0,0,0,0,0,0,0,0,0,0,0,0,0,0,0,0,0,0,0,659,41383,independent_20260430_213250,trial_001,subject_001,1777555973.3949463,278765.0040464,2462917,1,0,0,1,17.885586029146886,612.6636858730938,812.6236603942733,103.97450748309682,630.4306401097322,824.5493409141078,76.43585448637756,396.58485312987017,865.7845347086218,137.84530245182606,406.2169169107778,862.1536092803252,-89.99538860924423,509.87630001852506,658.6582403929724,-95.18544186902172,433.97100245406847,391.89928538933583,-107.5850271511738,302.95601324682804,341.5157818975141,-63.53934960019327,120.08511256662015,238.2047657221709,-8.23649996356499,63.72327668680687,267.85020258938266,-33.44948104087201,190.13775650574377,40.57785967016952,239.9612161642592,625.476252480173,690.616746647274,186.62194595876937,707.8246609948897,410.6703008075685,214.2525185867093,657.9503460671901,275.2621541465141,149.99904093931755,613.0173699996075,67.11907914195437,97.38364363649926,553.0620526977365,39.581810493708325,141.66387325212864,812.4901198064697,54.724836319470185,61.418783345371445,38.58121665462856,63.480060870243314,36.519939129756686,105.299421532886,66.23757905044322,63.17359609801856,69.30156200286787,132.47515810088643,132.47515810088643,1.1624631262917466,1.1624631262917466,19.3744502922776,1.139607400051318,0
1777555973.409,2.356629629629637,-12.324925925925925,20.457074,-21.20963,28.24992592592592,13.851704,7.504778,78.557739,-1.586914,0.153281,1.219482,32.531738,11.189531,-36.364746,10.986328,3.784131,121.376953,-14.709473,-2.778223,-2.636719,52.307129,15.102993,-9.838257,-11.84082,-0.062271,127.468872,162.841797,-0.977168,0.098877,59.509277,13.301938,-102.172852,54.626465,0.220342,11.453247,50.720215,-1.638193,5.234985,19.775391,-0.766406,-89.154053,-3.356934,11.635005,77.508545,47.180176,-1.839375,-6.416016,-42.480469,12.894785,-11.722412,8.483887,3.266807,79.326782,121.032715,0.795146,-0.142822,47.546387,17.100439,-125.233154,19.348145,1.005908,-6.069946,325.256348,-0.416733,-0.258179,114.990234,2.653682,-101.173096,37.231445,29.525801,0,7944,38919,46083,30723,0,0,60164,24326,2817,14338,0,0,0,0,0,0,0,0,0,0,0,0,0,0,0,0,0,0,0,0,0,0,0,0,0,659,41383,independent_20260430_213250,trial_001,subject_001,1777555973.4044657,278765.0137544,2462918,1,0,0,1,19.360452815582,613.085482505017,815.0612187537347,105.43028475196331,630.2361468880039,826.7100074913143,76.64606176465854,396.3266049089246,867.5939740839135,138.05535760412187,405.86484507905607,864.3142501647211,-89.16820860168706,513.802121535686,660.5857667133063,-94.85582906887726,447.190912048003,393.5429669403434,-106.5991797469652,315.3045120175571,345.66094287394446,-61.91797236599202,129.5950524789174,245.90480953144177,-5.502687014778978,82.57322507623608,277.96046404890967,-35.26497841459365,190.4957062068315,43.06827998424781,240.57124804031804,623.3459778679011,691.5743175287928,187.95708982036663,699.8527289025596,409.806849278504,214.44430914971647,646.6070503755739,275.5101803420497,150.08872489537708,601.3025057553542,67.7883373087572,97.09488140450183,541.2330909092005,39.77239928241575,141.24806658557338,801.0051001271544,54.77395674842085,61.418783345371445,38.58121665462856,63.480060870243314,36.519939129756686,105.299421532886,66.23757905044322,63.17359609801856,69.30156200286787,132.47515810088643,132.47515810088643,1.1624631262917466,1.1624631262917466,19.3744502922776,1.139607400051318,0
1777555973.426,2.356629629629637,-12.324925925925925,20.457074,-21.20963,28.24992592592592,13.851704,7.504778,78.557739,-1.586914,0.153281,1.219482,32.531738,11.189531,-36.364746,10.986328,3.784131,121.376953,-14.709473,-2.778223,-2.636719,52.307129,15.102993,-9.838257,-11.84082,-0.062271,127.468872,162.841797,-0.977168,0.098877,59.509277,13.301938,-102.172852,54.626465,0.220342,11.453247,50.720215,-1.638193,5.234985,19.775391,-0.766406,-89.154053,-3.356934,11.635005,77.508545,47.180176,-1.839375,-6.416016,-42.480469,12.894785,-11.722412,8.483887,3.266807,79.326782,121.032715,0.795146,-0.142822,47.546387,17.100439,-125.233154,19.348145,1.005908,-6.069946,325.256348,-0.416733,-0.258179,114.990234,2.653682,-101.173096,37.231445,29.525801,0,7944,38919,46083,30723,0,0,60164,24326,2817,14338,0,0,0,0,0,0,0,0,0,0,0,0,0,0,0,0,0,0,0,0,0,0,0,0,0,659,41383,independent_20260430_213250,trial_001,subject_001,1777555973.4246502,278765.0339502,2462920,1,0,0,1,21.7536150289489,613.3780335175552,820.4772910572956,107.92273788219892,629.2741906548488,831.6847979450116,76.64644866164542,395.3905055369693,872.0178975193862,138.1491952061857,404.3927238405831,868.9561717570325,-88.18995269033023,520.6154216867776,665.3874210011978,-93.91447168316084,472.4161561024047,398.14323800298695,-104.34924593946435,339.81477750361245,353.76925975496107,-60.55688857950674,153.37423483668613,258.7439608973052,0.6199558636887397,105.55478141478665,285.864904249222,-41.3260824966252,211.4935269740893,45.9844570357804,241.2280970554356,618.0704786305411,693.7075769435795,190.3803345583026,683.1794502361478,408.5713858525446,215.53992172919905,625.3833876726395,275.6661184709379,149.48646172623884,578.057989820904,68.1612953890843,96.45117233763054,517.7374153668923,40.01044219885203,140.51242398518457,777.8237291845777,54.89991731829078,61.418783345371445,38.58121665462856,63.480060870243314,36.519939129756686,105.299421532886,66.23757905044322,63.17359609801856,69.30156200286787,132.47515810088643,132.47515810088643,1.1624631262917466,1.1624631262917466,19.3744502922776,1.139607400051318,0
1777555973.44,2.240629629629624,-12.324925925925925,26.801074,-21.20963,28.87092592592592,15.520704,12.470778,78.442383,-17.883301,-0.244292,1.439209,39.978027,13.838423,-35.348511,-12.145996,-5.647456,121.376953,-14.709473,-2.778223,-2.636719,52.307129,15.102993,-9.838257,-11.84082,-0.062271,133.934326,194.946289,-0.622705,-3.394775,73.913574,17.16271,-101.881714,83.80127,2.893184,11.453247,50.720215,-1.638193,5.234985,19.775391,-0.766406,-89.154053,-3.356934,11.635005,76.887817,-53.283691,4.406836,-6.047974,188.781738,20.338506,-8.12439,24.597168,10.533296,82.216187,131.347656,-5.254673,0.307617,80.688477,12.377461,-123.085327,-0.12207,1.566343,1.785278,149.414062,-7.510781,-0.527344,-30.639648,12.2146,-101.002808,-1.342773,28.994106,0,7944,38919,46083,30723,0,0,60164,24326,2817,14338,0,0,0,0,0,0,0,0,0,0,0,0,0,0,0,0,0,0,0,0,0,0,0,0,0,659,41383,independent_20260430_213250,trial_001,subject_001,1777555973.444749,278765.0539794,2462922,1,0,0,1,23.68290194054232,613.1043192294715,826.7444059699806,110.09075362499289,627.743707067782,837.0633964538928,76.7016996806445,394.1468971221288,877.1213798508077,138.33607815231653,402.2544455762474,874.0714678132757,-87.79266905854577,527.4535671923409,671.504213683227,-92.6239416626786,497.1604721733959,404.5430238354397,-101.69005654709792,364.8464760209321,362.1027301783167,-57.86245910909244,178.0112901174071,267.30719210439935,5.634010886742632,125.6509772511007,293.58381650464264,-43.20476945869665,244.9279612560765,49.14627596404648,243.0306474726109,611.028302576561,695.6929241547402,192.0165176247071,665.1666259175965,407.63869915884135,216.57167416793268,606.7268934741328,275.0751834161067,149.0848926416377,554.5719896830034,68.52820270091131,95.43662171116794,494.55610364344295,40.33508133651795,139.73907968895992,754.2900499786531,54.84825717178021,61.418783345371445,38.58121665462856,63.480060870243314,36.519939129756686,105.299421532886,66.23757905044322,63.17359609801856,69.30156200286787,132.47515810088643,132.47515810088643,1.1624631262917466,1.1624631262917466,19.3744502922776,1.139607400051318,0
1777555973.446,2.240629629629624,-12.324925925925925,26.801074,-21.20963,28.87092592592592,15.520704,12.470778,78.442383,-17.883301,-0.244292,1.439209,39.978027,13.838423,-35.348511,-12.145996,-5.647456,121.376953,-14.709473,-2.778223,-2.636719,52.307129,15.102993,-9.838257,-11.84082,-0.062271,133.934326,194.946289,-0.622705,-3.394775,73.913574,17.16271,-101.881714,83.80127,2.893184,11.453247,50.720215,-1.638193,5.234985,19.775391,-0.766406,-89.154053,-3.356934,11.635005,76.887817,-53.283691,4.406836,-6.047974,188.781738,20.338506,-8.12439,24.597168,10.533296,82.216187,131.347656,-5.254673,0.307617,80.688477,12.377461,-123.085327,-0.12207,1.566343,1.785278,149.414062,-7.510781,-0.527344,-30.639648,12.2146,-101.002808,-1.342773,28.994106,0,7944,38919,46083,30723,0,0,60164,24326,2817,14338,0,0,0,0,0,0,0,0,0,0,0,0,0,0,0,0,0,0,0,0,0,0,0,0,0,659,41383,independent_20260430_213250,trial_001,subject_001,1777555973.444749,278765.0539794,2462922,1,0,0,1,23.68290194054232,613.1043192294715,826.7444059699806,110.09075362499289,627.743707067782,837.0633964538928,76.7016996806445,394.1468971221288,877.1213798508077,138.33607815231653,402.2544455762474,874.0714678132757,-87.79266905854577,527.4535671923409,671.504213683227,-92.6239416626786,497.1604721733959,404.5430238354397,-101.69005654709792,364.8464760209321,362.1027301783167,-57.86245910909244,178.0112901174071,267.30719210439935,5.634010886742632,125.6509772511007,298.5320752881597,-43.20476945869665,244.9279612560765,52.61098290779997,243.0306474726109,611.028302576561,695.6929241547402,192.0165176247071,665.1666259175965,407.63869915884135,216.57167416793268,606.7268934741328,275.0751834161067,149.0848926416377,554.5719896830034,68.52820270091131,95.43662171116794,494.55610364344295,40.67949584720591,139.73907968895992,754.2900499786531,54.884306171876965,61.418783345371445,38.58121665462856,63.480060870243314,36.519939129756686,105.299421532886,66.23757905044322,63.17359609801856,69.30156200286787,132.47515810088643,132.47515810088643,1.1624631262917466,1.1624631262917466,19.3744502922776,1.139607400051318,0
1777555973.458,1.2796296296296248,-9.336925925925923,36.810074,-22.07663,28.87092592592592,22.079704,12.470778,77.481079,-34.179688,1.010698,2.329102,-4.577637,13.43606,-35.436401,-27.587891,-3.544629,118.388672,-133.605957,-2.241738,-2.158813,-1.831055,16.113691,-8.596802,-30.273438,1.465752,140.95459,236.022949,-3.760181,-5.916138,111.633301,16.281343,-100.354614,22.583008,-2.553091,17.050781,305.969238,-0.239502,6.47644,61.462402,-9.235195,-88.132324,41.809082,14.192886,76.887817,-53.283691,4.406836,-6.047974,188.781738,20.338506,-8.12439,24.597168,10.533296,88.154297,175.231934,1.681304,0.093384,37.231445,8.842412,-121.300049,23.925781,-9.589658,1.785278,149.414062,-7.510781,-0.527344,-30.639648,12.2146,-101.002808,-1.342773,28.994106,0,7944,38919,46083,30723,0,0,60164,24326,2817,14338,0,0,0,0,0,0,0,0,0,0,0,0,0,0,0,0,0,0,0,0,0,0,0,0,0,659,41383,independent_20260430_213250,trial_001,subject_001,1777555973.4547503,278765.0640376,2462923,1,0,0,1,24.57710348026091,612.814769893292,830.0073945846326,111.239686497206,626.8795128033059,839.4447061424949,76.86434673636765,393.2923562404226,879.7732088476251,138.58325366332258,401.0485750009758,876.6523528389047,-87.89314593773275,531.0606624091508,674.9601167563421,-91.93945346517222,509.7825029855962,408.1656351108842,-100.41251128311248,377.6498414879897,365.9591483897813,-56.03822381451293,191.68753052184084,268.9819172516856,6.75165736798706,137.8302271206906,301.3723757680079,-43.28648252381254,262.3083536554509,55.90757688313085,243.6489796627148,607.3321610316003,696.0765403687551,191.8003429813915,656.5925194399426,406.8235286197577,216.8392940667256,597.6577350210142,274.6530910480397,148.79238078935794,542.671525525547,68.63774058284828,95.17694876869574,482.2326572691181,41.06312392440928,139.34406316636276,742.3563186756123,54.85351442560222,61.418783345371445,38.58121665462856,63.480060870243314,36.519939129756686,105.299421532886,66.23757905044322,63.17359609801856,69.30156200286787,132.47515810088643,132.47515810088643,1.1624631262917466,1.1624631262917466,19.3744502922776,1.139607400051318,0
1777555973.469,1.2796296296296248,-9.336925925925923,36.810074,-22.07663,28.87092592592592,22.079704,12.470778,77.481079,-34.179688,1.010698,2.329102,-4.577637,13.43606,-35.436401,-27.587891,-3.544629,118.388672,-133.605957,-2.241738,-2.158813,-1.831055,16.113691,-8.596802,-30.273438,1.465752,140.95459,236.022949,-3.760181,-5.916138,111.633301,16.281343,-100.354614,22.583008,-2.553091,17.050781,305.969238,-0.239502,6.47644,61.462402,-9.235195,-88.132324,41.809082,14.192886,76.887817,-53.283691,4.406836,-6.047974,188.781738,20.338506,-8.12439,24.597168,10.533296,88.154297,175.231934,1.681304,0.093384,37.231445,8.842412,-121.300049,23.925781,-9.589658,1.785278,149.414062,-7.510781,-0.527344,-30.639648,12.2146,-101.002808,-1.342773,28.994106,0,7944,38919,46083,30723,0,0,60164,24326,2817,14338,0,0,0,0,0,0,0,0,0,0,0,0,0,0,0,0,0,0,0,0,0,0,0,0,0,659,41384,independent_20260430_213250,trial_001,subject_001,1777555973.4642563,278765.0739261,2462924,1,0,0,1,25.5877452701268,612.4301652923211,833.2451561783009,112.91211200877078,626.7607524139208,841.6671318398184,77.02884715478447,392.3891064252289,882.4895322966412,138.9994512107329,399.972751553486,879.5007142892522,-88.07910564505137,534.8988069963704,678.6400088794558,-91.12600232422317,521.9637101732609,412.1283036281731,-99.12856507808716,390.3702825420215,368.9871706255478,-55.14222553308957,205.35992751954467,269.9704117353052,7.594187595865462,150.89907287237705,300.7789263491253,-43.42394439109761,280.06604191857235,59.15969721085865,244.5290883877633,601.0412603392398,696.8953360021221,191.3948264462687,647.9484744665384,406.2166539554488,216.96130137848604,588.3017693507627,274.29675007604834,147.80694716008526,530.9290483557462,68.41075438650635,94.49955731477088,470.6775200719585,41.460175951610594,138.84406225005117,730.502746520754,54.86098020493549,61.418783345371445,38.58121665462856,63.480060870243314,36.519939129756686,105.299421532886,66.23757905044322,63.17359609801856,69.30156200286787,132.47515810088643,132.47515810088643,1.1624631262917466,1.1624631262917466,19.3744502922776,1.139607400051318,0
1777555973.478,1.2796296296296248,-3.58492592592593,36.810074,-4.80663,26.827925925925925,22.079704,8.763778,77.481079,-34.179688,1.010698,2.329102,-4.577637,13.43606,-35.436401,-27.587891,-3.544629,112.637329,-169.799805,1.422642,-1.312866,30.761719,14.877861,-8.113403,-32.043457,-1.815425,140.95459,236.022949,-3.760181,-5.916138,111.633301,16.281343,-100.354614,22.583008,-2.553091,41.341553,858.703613,-0.292192,7.097168,59.509277,-5.350474,-85.374756,70.739746,12.827725,78.931274,67.199707,-6.040239,-6.998291,-119.140625,0.502954,-9.014282,39.001465,-12.760664,88.154297,175.231934,1.681304,0.093384,37.231445,8.842412,-121.300049,23.925781,-9.589658,4.015503,9.155273,2.294429,-1.642456,-4.150391,2.289639,-100.859985,-1.525879,12.23376,0,7944,38919,46083,30723,0,0,60164,24326,2817,14338,0,0,0,0,0,0,0,0,0,0,0,0,0,0,0,65024,0,0,0,0,0,0,0,0,0,659,41385,independent_20260430_213250,trial_001,subject_001,1777555973.4747715,278765.0838247,2462925,1,0,0,1,26.385617177304173,610.9267278655474,836.3029660794671,113.81571912989996,624.8563255183512,843.8098570828173,77.16917949558734,391.320404522828,885.12415870399,139.07588786419322,398.58210980859616,882.058643806339,-88.09581731262016,538.9069744915688,682.5783236637604,-90.64145640368804,534.1481911948962,416.26287894647305,-97.9273562797986,402.9674253068815,371.2520586463049,-53.730195078135786,219.7373295723663,269.22485050907096,8.736102705183669,164.3034271065485,297.88650393861514,-43.21641478593669,298.70652678758603,62.04409081903644,245.04778972645047,597.073125098134,697.3370379089221,191.326508406454,638.3428920259174,405.9587686113644,216.9849348381288,578.2475245599063,274.24551333789776,148.1238115820506,518.8936975252307,69.27483369684099,94.15626202846488,458.29654726076944,41.86657833342758,138.43867566114437,718.5003570245077,54.87296987167091,61.418783345371445,38.58121665462856,63.480060870243314,36.519939129756686,105.299421532886,66.23757905044322,63.17359609801856,69.30156200286787,132.47515810088643,132.47515810088643,1.1624631262917466,1.1624631262917466,19.3744502922776,1.139607400051318,0
1777555973.485,1.2796296296296248,-3.58492592592593,36.810074,-4.80663,26.827925925925925,22.079704,8.763778,77.481079,-34.179688,1.010698,2.329102,-4.577637,13.43606,-35.436401,-27.587891,-3.544629,112.637329,-169.799805,1.422642,-1.312866,30.761719,14.877861,-8.113403,-32.043457,-1.815425,140.95459,236.022949,-3.760181,-5.916138,111.633301,16.281343,-100.354614,22.583008,-2.553091,41.341553,858.703613,-0.292192,7.097168,59.509277,-5.350474,-85.374756,70.739746,12.827725,78.931274,67.199707,-6.040239,-6.998291,-119.140625,0.502954,-9.014282,39.001465,-12.760664,88.154297,175.231934,1.681304,0.093384,37.231445,8.842412,-121.300049,23.925781,-9.589658,4.015503,9.155273,2.294429,-1.642456,-4.150391,2.289639,-100.859985,-1.525879,12.23376,0,7944,38919,46083,30723,0,0,60164,24326,2817,14338,0,0,0,0,0,0,0,0,0,0,0,0,0,0,0,65024,0,0,0,0,0,0,0,0,0,659,41385,independent_20260430_213250,trial_001,subject_001,1777555973.484773,278765.0940777,2462926,1,0,0,1,0.0,0.0,0.0,115.07153417746102,623.3290727637072,845.6511973905717,76.92951607905232,390.2052536693184,887.6641725884052,139.04242487352377,397.0613784135463,884.4955975986918,-88.27752245143824,543.072509228962,686.6919216710921,-89.95347086044644,545.8835788677711,420.3320963223023,-97.1926606148123,415.6123353561866,372.7304447447405,-52.92391056582759,234.0891610312825,267.7167054005501,9.84523352901573,177.81957351090358,292.95878228694033,-42.654400392906304,318.53725095123826,64.35968970181526,245.5454890762324,592.0549046915116,697.8563363868951,191.75960598966907,627.7437646697118,405.9405869816708,216.9291621758401,567.1111336582123,274.4889760551354,147.69139067011798,506.8138562708397,69.51879259578966,93.54403815647932,446.4836920146602,42.23131784801764,137.9724484504007,706.4444894861423,54.91074649737685,61.418783345371445,38.58121665462856,63.480060870243314,36.519939129756686,105.299421532886,66.23757905044322,63.17359609801856,69.30156200286787,132.47515810088643,132.47515810088643,1.1624631262917466,1.1624631262917466,19.3744502922776,1.139607400051318,0
1777555973.496,1.2796296296296248,-3.58492592592593,36.810074,-4.80663,26.827925925925925,22.079704,8.763778,77.481079,-34.179688,1.010698,2.329102,-4.577637,13.43606,-35.436401,-27.587891,-3.544629,112.637329,-169.799805,1.422642,-1.312866,30.761719,14.877861,-8.113403,-32.043457,-1.815425,140.95459,236.022949,-3.760181,-5.916138,111.633301,16.281343,-100.354614,22.583008,-2.553091,41.341553,858.703613,-0.292192,7.097168,59.509277,-5.350474,-85.374756,70.739746,12.827725,78.931274,67.199707,-6.040239,-6.998291,-119.140625,0.502954,-9.014282,39.001465,-12.760664,88.154297,175.231934,1.681304,0.093384,37.231445,8.842412,-121.300049,23.925781,-9.589658,4.015503,9.155273,2.294429,-1.642456,-4.150391,2.289639,-100.859985,-1.525879,12.23376,0,7944,38919,46083,30723,0,0,60164,24326,2817,14338,0,0,0,0,0,0,0,0,0,49686,1550,0,0,0,0,62230,53774,0,0,0,0,0,0,0,0,659,41386,independent_20260430_213250,trial_001,subject_001,1777555973.4947712,278765.1037035,2462927,1,0,0,1,0.0,0.0,0.0,116.29692345090204,621.6853922218733,847.4615153215478,76.67841215045742,388.9957192736345,890.1365132698979,138.6203012229352,395.5204874674056,886.8086695972187,-88.51355291090664,547.1751237014454,691.034008475071,-89.46395020849651,557.2316366314384,424.3713451150774,-96.67239243688095,428.2156550174562,373.7268349908245,-51.93229079983364,248.8625463230001,264.8717570313137,10.576103401968384,191.4252719443521,286.18296353621923,-42.02814311627986,339.826720320023,65.93180868163036,245.97017557106827,587.1953003313345,698.2064902869079,192.50634510784343,616.6941929156479,405.9342765185347,217.1098072109349,555.0467011250928,274.9688806009344,147.10452274622537,494.7285139703764,69.76770361538401,93.01018262626332,434.4502750261484,42.593803416313285,137.47025522033653,694.253141401479,54.95826678532281,61.418783345371445,38.58121665462856,63.480060870243314,36.519939129756686,105.299421532886,66.23757905044322,63.17359609801856,69.30156200286787,132.47515810088643,132.47515810088643,1.1624631262917466,1.1624631262917466,19.3744502922776,1.139607400051318,0
1777555973.514,1.2796296296296248,-3.58492592592593,36.810074,-4.80663,26.827925925925925,22.079704,8.763778,77.481079,-34.179688,1.010698,2.329102,-4.577637,13.43606,-35.436401,-27.587891,-3.544629,112.637329,-169.799805,1.422642,-1.312866,30.761719,14.877861,-8.113403,-32.043457,-1.815425,140.95459,236.022949,-3.760181,-5.916138,111.633301,16.281343,-100.354614,22.583008,-2.553091,41.341553,858.703613,-0.292192,7.097168,59.509277,-5.350474,-85.374756,70.739746,12.827725,78.931274,67.199707,-6.040239,-6.998291,-119.140625,0.502954,-9.014282,39.001465,-12.760664,88.154297,175.231934,1.681304,0.093384,37.231445,8.842412,-121.300049,23.925781,-9.589658,4.015503,9.155273,2.294429,-1.642456,-4.150391,2.289639,-100.859985,-1.525879,12.23376,0,7944,38919,46083,30723,0,0,60164,24326,2817,14338,0,0,0,0,0,0,0,0,0,49686,1550,0,0,0,0,62230,53774,0,0,0,0,0,0,0,0,659,41386,independent_20260430_213250,trial_001,subject_001,1777555973.5142956,278765.1240919,2462929,1,0,0,1,0.0,0.0,0.0,118.717408180239,618.4344534194862,850.6790646650509,75.51075088289737,386.4227010664039,894.3721221488793,137.50013654183692,392.15018465927176,891.0980012754247,-88.31855465000025,555.7817648602713,699.8705742724262,-88.23476305607768,579.0105708496395,432.2150787533099,-96.05285263422736,452.90753960120384,374.2324388929728,-50.50661383618042,279.9728128409496,255.7216350888538,11.43166875190157,219.6678768074564,277.68978371606903,-39.9259138889252,386.5201362827104,66.57577105770059,246.6512744146624,578.2133154821158,698.0772348560827,194.07034884130496,594.521066194931,405.59036618560987,217.4603805289937,529.5775238183337,275.9958248020398,146.03474624452048,470.2613016764198,70.1629562104269,91.71847441726662,410.0018358801378,42.92124119002212,136.50674060342064,669.8863458250181,55.01627565705349,61.418783345371445,38.58121665462856,63.480060870243314,36.519939129756686,105.299421532886,66.23757905044322,63.17359609801856,69.30156200286787,132.47515810088643,132.47515810088643,1.1624631262917466,1.1624631262917466,19.3744502922776,1.139607400051318,0
1777555973.516,1.2796296296296248,-3.58492592592593,36.810074,-4.80663,26.827925925925925,22.079704,8.763778,77.481079,-34.179688,1.010698,2.329102,-4.577637,13.43606,-35.436401,-27.587891,-3.544629,112.637329,-169.799805,1.422642,-1.312866,30.761719,14.877861,-8.113403,-32.043457,-1.815425,140.95459,236.022949,-3.760181,-5.916138,111.633301,16.281343,-100.354614,22.583008,-2.553091,41.341553,858.703613,-0.292192,7.097168,59.509277,-5.350474,-85.374756,70.739746,12.827725,78.931274,67.199707,-6.040239,-6.998291,-119.140625,0.502954,-9.014282,39.001465,-12.760664,88.154297,175.231934,1.681304,0.093384,37.231445,8.842412,-121.300049,23.925781,-9.589658,4.015503,9.155273,2.294429,-1.642456,-4.150391,2.289639,-100.859985,-1.525879,12.23376,0,7944,38919,46083,30723,0,0,60164,24326,2817,14338,0,0,0,0,0,0,0,0,0,49686,1550,0,0,0,0,62230,53774,0,0,0,0,0,0,0,0,659,41386,independent_20260430_213250,trial_001,subject_001,1777555973.5142956,278765.1240919,2462929,1,0,0,1,0.0,0.0,0.0,118.717408180239,618.4344534194862,850.6790646650509,75.51075088289737,386.4227010664039,894.3721221488793,137.50013654183692,392.15018465927176,891.0980012754247,-88.31855465000025,555.7817648602713,699.8705742724262,-88.23476305607768,579.0105708496395,432.2150787533099,-96.05285263422736,452.90753960120384,374.2324388929728,-50.50661383618042,279.9728128409496,255.7216350888538,11.43166875190157,219.6678768074564,267.6442393518475,-39.9259138889252,386.5201362827104,66.24816240278074,246.6512744146624,578.2133154821158,698.0772348560827,194.07034884130496,594.521066194931,405.59036618560987,217.4603805289937,529.5775238183337,275.9958248020398,146.03474624452048,470.2613016764198,70.1629562104269,91.71847441726662,410.0018358801378,43.214119457837526,136.50674060342064,669.8863458250181,55.06309396067598,61.418783345371445,38.58121665462856,63.480060870243314,36.519939129756686,105.299421532886,66.23757905044322,63.17359609801856,69.30156200286787,132.47515810088643,132.47515810088643,1.1624631262917466,1.1624631262917466,19.3744502922776,1.139607400051318,0
1777555973.529,1.2796296296296248,-3.58492592592593,52.004074,-4.80663,23.899925925925928,24.991704,8.746778,77.481079,-34.179688,1.010698,2.329102,-4.577637,13.43606,-35.436401,-27.587891,-3.544629,112.637329,-169.799805,1.422642,-1.312866,30.761719,14.877861,-8.113403,-32.043457,-1.815425,150.397339,125.12207,-0.335303,-9.40979,74.34082,15.572417,-99.821777,23.193359,-2.198628,41.341553,858.703613,-0.292192,7.097168,59.509277,-5.350474,-85.374756,70.739746,12.827725,81.859131,95.703125,9.010063,-9.014282,-62.683105,11.793076,-11.66748,37.597656,-4.981641,96.036987,81.054688,-8.871152,-1.790771,-116.088867,10.753638,-117.350464,34.301758,-7.108418,3.999023,-1.647949,0.967588,-1.538086,7.385254,0.943638,-100.887451,-3.051758,11.112891,0,7944,38919,46083,30723,0,0,60164,24326,2817,14338,0,0,0,0,0,0,0,0,0,49686,1550,0,0,0,0,62230,53774,0,0,0,0,0,0,0,0,659,41386,independent_20260430_213250,trial_001,subject_001,1777555973.5242949,278765.133966,2462930,1,0,0,1,0.0,0.0,0.0,119.84180664508924,616.6844121608805,851.9818916469331,74.78975353323044,385.01182002807127,896.1963140234852,136.86465053361707,390.35863597317706,893.0020805729531,-88.62275549568557,559.5793183535715,704.2987747603754,-87.76514861521564,589.527089492017,436.1891241040737,-95.82778175690775,465.1113744314859,373.8694279501008,-50.076854987564985,296.38556073284246,249.5830639104353,11.607420703747383,234.3999277860497,256.9556937503148,-38.68448214478815,412.1197275370493,65.0619272321731,247.09322300683849,572.7279277353555,698.0134872808113,194.9911173422697,583.0515662235977,405.4576847581837,217.4974552007187,517.0626903313946,276.3739839563551,145.4225643589043,457.94432355352734,70.37743766240604,90.9377679572497,397.8098824820792,43.49550326589159,136.0966262266309,657.5868754251305,55.10390952966907,61.418783345371445,38.58121665462856,63.480060870243314,36.519939129756686,105.299421532886,66.23757905044322,63.17359609801856,69.30156200286787,132.47515810088643,132.47515810088643,1.1624631262917466,1.1624631262917466,19.3744502922776,1.139607400051318,0
1777555973.546,1.2796296296296248,-3.58492592592593,52.004074,-4.80663,23.899925925925928,24.991704,8.746778,77.481079,-34.179688,1.010698,2.329102,-4.577637,13.43606,-35.436401,-27.587891,-3.544629,112.637329,-169.799805,1.422642,-1.312866,30.761719,14.877861,-8.113403,-32.043457,-1.815425,150.397339,125.12207,-0.335303,-9.40979,74.34082,15.572417,-99.821777,23.193359,-2.198628,41.341553,858.703613,-0.292192,7.097168,59.509277,-5.350474,-85.374756,70.739746,12.827725,81.859131,95.703125,9.010063,-9.014282,-62.683105,11.793076,-11.66748,37.597656,-4.981641,96.036987,81.054688,-8.871152,-1.790771,-116.088867,10.753638,-117.350464,34.301758,-7.108418,3.999023,-1.647949,0.967588,-1.538086,7.385254,0.943638,-100.887451,-3.051758,11.112891,0,7944,38919,46083,30723,0,0,60164,24326,2817,14338,0,0,0,0,0,0,0,0,0,49686,1550,0,0,0,0,62230,53774,0,0,0,0,0,0,0,0,659,41386,independent_20260430_213250,trial_001,subject_001,1777555973.5442903,278765.1538072,2462932,1,0,0,1,0.0,0.0,0.0,121.90181235163786,612.8181041387563,853.6098816369191,73.26947898877073,382.0753595213209,899.1998718034836,135.0521640547408,386.6263220270506,895.7403036774766,-89.60673103034534,565.5013373041152,712.7379173518432,-86.47813032134319,609.060896716077,444.01381551433246,-95.66396161629667,489.416107986998,372.1730856280817,-49.62543984758344,330.8502338581092,234.04659044577505,11.387485749539191,266.0227035872449,245.072635180462,-36.32262864895908,466.4994804132172,64.11833243138476,247.9120827745292,561.3900265928147,697.510429658788,196.6504182472553,560.5344542392783,405.2717857919139,217.55011405519016,493.7095843800056,276.8733215928638,144.48095684851475,433.5702250265132,70.93176802199434,89.67248251050312,373.0024765990466,43.78661588763754,135.124392433088,633.1300213238277,55.13176115093823,61.418783345371445,38.58121665462856,63.480060870243314,36.519939129756686,105.299421532886,66.23757905044322,63.17359609801856,69.30156200286787,132.47515810088643,132.47515810088643,1.1624631262917466,1.1624631262917466,19.3744502922776,1.139607400051318,0
1777555973.562,1.136629629629624,-3.58492592592593,54.531074,-4.80663,20.80192592592593,24.991704,0.940778,77.338257,19.897461,-0.526904,3.372803,3.723145,10.145303,-34.953003,10.253906,-0.574805,112.637329,-169.799805,1.422642,-1.312866,30.761719,14.877861,-8.113403,-32.043457,-1.815425,152.924194,62.133789,0.881367,-11.480713,9.094238,4.339775,-99.552612,5.432129,-16.252603,41.341553,858.703613,-0.292192,7.097168,59.509277,-5.350474,-85.374756,70.739746,12.827725,84.957275,95.214844,-0.229922,-9.195557,34.912109,11.357183,-10.71167,1.342773,-1.671724,96.036987,81.054688,-8.871152,-1.790771,-116.088867,10.753638,-117.350464,34.301758,-7.108418,4.075928,5.981445,-0.277822,-1.604004,-1.464844,0.780776,-100.931396,-1.098633,10.950029,0,7944,38919,46083,30723,0,0,60164,24326,2817,14338,0,0,0,0,0,0,0,0,0,58126,12566,16130,0,0,0,2578,45588,2563,0,0,0,45575,0,0,0,659,41387,independent_20260430_213250,trial_001,subject_001,1777555973.5648038,278765.1737833,2462934,1,0,0,1,0.0,0.0,0.0,123.71985188370834,608.6395393085053,854.0177196388695,71.14680519210455,379.0132404014415,900.8750993193491,133.01090063396816,382.6302435212407,897.3462921374303,-89.3049674249373,574.4528298978466,719.9173168994786,-85.51348608151838,626.289206632395,451.0947493887638,-95.61346987073422,512.9825302525487,368.3946841562043,-49.82449044326708,368.0888691362698,215.3355911275965,10.39588528132228,301.4228978162182,231.7898700277433,-34.39226757990387,522.5952647338994,63.61533087708111,248.20864611375225,549.7913050204594,696.4250888137094,196.6578410748596,539.6315936336817,404.7266921108218,217.3052028804438,471.7646790759417,277.0234417720273,142.69499231792767,409.213621099101,70.80140821085347,88.76937375720577,348.7974296783732,44.09098925844843,134.09547022000336,608.6879073285378,55.13525313491313,61.418783345371445,38.58121665462856,63.480060870243314,36.519939129756686,105.299421532886,66.23757905044322,63.17359609801856,69.30156200286787,132.47515810088643,132.47515810088643,1.1624631262917466,1.1624631262917466,19.3744502922776,1.139607400051318,0
1777555973.569,1.136629629629624,-3.58492592592593,54.531074,-4.80663,20.80192592592593,24.991704,0.940778,77.338257,19.897461,-0.526904,3.372803,3.723145,10.145303,-34.953003,10.253906,-0.574805,112.637329,-169.799805,1.422642,-1.312866,30.761719,14.877861,-8.113403,-32.043457,-1.815425,152.924194,62.133789,0.881367,-11.480713,9.094238,4.339775,-99.552612,5.432129,-16.252603,41.341553,858.703613,-0.292192,7.097168,59.509277,-5.350474,-85.374756,70.739746,12.827725,84.957275,95.214844,-0.229922,-9.195557,34.912109,11.357183,-10.71167,1.342773,-1.671724,96.036987,81.054688,-8.871152,-1.790771,-116.088867,10.753638,-117.350464,34.301758,-7.108418,4.075928,5.981445,-0.277822,-1.604004,-1.464844,0.780776,-100.931396,-1.098633,10.950029,0,7944,38919,46083,30723,0,0,60164,24326,2817,14338,0,0,0,0,0,0,0,0,0,58126,12566,16130,0,0,0,2578,45588,2563,0,0,0,45575,0,0,0,659,41387,independent_20260430_213250,trial_001,subject_001,1777555973.5648038,278765.1737833,2462934,1,0,0,1,0.0,0.0,0.0,123.71985188370834,608.6395393085053,854.0177196388695,71.14680519210455,379.0132404014415,900.8750993193491,133.01090063396816,382.6302435212407,897.3462921374303,-89.3049674249373,574.4528298978466,719.9173168994786,-85.51348608151838,626.289206632395,451.0947493887638,-95.61346987073422,512.9825302525487,368.3946841562043,-49.82449044326708,368.0888691362698,215.3355911275965,10.39588528132228,301.4228978162182,217.14504477036968,-34.39226757990387,522.5952647338994,62.943971905965135,248.20864611375225,549.7913050204594,696.4250888137094,196.6578410748596,539.6315936336817,404.7266921108218,217.3052028804438,471.7646790759417,277.0234417720273,142.69499231792767,409.213621099101,70.80140821085347,88.76937375720577,348.7974296783732,44.37661593047158,134.09547022000336,608.6879073285378,55.108916090659626,61.418783345371445,38.58121665462856,63.480060870243314,36.519939129756686,105.299421532886,66.23757905044322,63.17359609801856,69.30156200286787,132.47515810088643,132.47515810088643,1.1624631262917466,1.1624631262917466,19.3744502922776,1.139607400051318,0
1777555973.575,1.136629629629624,-3.58492592592593,54.531074,-4.80663,20.80192592592593,24.991704,0.940778,77.338257,19.897461,-0.526904,3.372803,3.723145,10.145303,-34.953003,10.253906,-0.574805,112.637329,-169.799805,1.422642,-1.312866,30.761719,14.877861,-8.113403,-32.043457,-1.815425,152.924194,62.133789,0.881367,-11.480713,9.094238,4.339775,-99.552612,5.432129,-16.252603,41.341553,858.703613,-0.292192,7.097168,59.509277,-5.350474,-85.374756,70.739746,12.827725,84.957275,95.214844,-0.229922,-9.195557,34.912109,11.357183,-10.71167,1.342773,-1.671724,96.036987,81.054688,-8.871152,-1.790771,-116.088867,10.753638,-117.350464,34.301758,-7.108418,4.075928,5.981445,-0.277822,-1.604004,-1.464844,0.780776,-100.931396,-1.098633,10.950029,0,7944,38919,46083,30723,0,0,60164,24326,2817,14338,0,0,0,0,0,0,0,0,0,58126,12566,16130,0,0,0,2578,45588,2563,0,0,0,45575,0,0,0,659,41387,independent_20260430_213250,trial_001,subject_001,1777555973.574305,278765.1839432,2462935,1,0,0,1,0.0,0.0,0.0,124.5765409126776,606.5671043464446,853.7769430628767,69.90417214696535,377.4944457072838,901.2579679296751,131.70105886438947,380.6607962565704,897.7146135721872,-90.43424141799451,574.799574459977,723.4635280364139,-85.28275377475106,633.9416796210737,454.0388012870513,-95.7727489380419,524.5577861304889,365.55863939224486,-50.06678948353346,387.7014190976101,205.1242946751808,9.875667058238978,320.8513017158916,201.5220793636605,-34.21778676237168,551.6944171391285,62.468729640696445,248.2026645867326,543.9937877301296,695.7577967722577,196.6164930849148,529.4671219261955,404.2842480057415,217.1011298433353,460.7320445021471,277.05527195377704,142.6338683279822,396.96363054366685,71.40189159399841,88.24206171860185,336.4274062001181,44.68245470824901,133.62018001809793,596.2933217084694,55.05271397894637,61.418783345371445,38.58121665462856,63.480060870243314,36.519939129756686,105.299421532886,66.23757905044322,63.17359609801856,69.30156200286787,132.47515810088643,132.47515810088643,1.1624631262917466,1.1624631262917466,19.3744502922776,1.139607400051318,0
1777555973.589,1.6756296296296256,10.609074074074073,54.531074,-4.80663,17.263925925925918,24.991704,1.110778,77.876587,6.408691,0.067061,2.642212,-23.376465,10.279424,-35.26062,10.620117,-1.135239,98.442993,-173.64502,0.977168,3.076172,-49.926758,12.904365,-6.866455,-58.71582,-2.754272,152.924194,62.133789,0.881367,-11.480713,9.094238,4.339775,-99.552612,5.432129,-16.252603,41.341553,858.703613,-0.292192,7.097168,59.509277,-5.350474,-85.374756,70.739746,12.827725,88.494873,108.276367,0.100591,-9.223022,-21.30127,9.402847,-10.958862,6.896973,-1.853745,96.036987,81.054688,-8.871152,-1.790771,-116.088867,10.753638,-117.350464,34.301758,-7.108418,4.246216,11.71875,-0.498164,-1.697388,-9.338379,0.775986,-100.892944,3.234863,9.647139,0,7944,38919,46083,30723,0,0,60164,24326,2817,14338,0,0,0,0,0,0,0,0,0,58126,12566,16130,0,0,0,2578,45588,2563,0,0,0,45575,0,0,0,659,41387,independent_20260430_213250,trial_001,subject_001,1777555973.5848217,278765.1940015,2462936,1,0,0,1,0.0,0.0,0.0,125.39695180883292,604.498901300948,853.2607425228774,68.63165645039673,375.9917456107364,901.3232293966388,130.49402461577913,378.6492227512673,897.787919078274,-90.06123122566274,576.0270002623107,726.3326035260676,-85.30719650494144,641.3000415102783,456.48621840848494,-96.25017132111238,536.3997867152494,362.2668674311095,-50.5253036351148,408.22990940614375,194.4877994376316,9.29630405912199,341.3531409051285,185.2231957973489,-34.16600356359121,580.8947678609975,62.27551670339061,248.10304010097127,538.3240906609359,694.980889999717,196.96714147219865,519.4302390057017,403.7487252465157,216.8058698557723,449.59051361821054,277.17133311229816,141.45068721047087,384.8115287643464,71.15591584265381,87.55563397439948,324.2230221652982,44.97222556093756,133.12073684019705,584.0353042316618,54.96330845535073,61.418783345371445,38.58121665462856,63.480060870243314,36.519939129756686,105.299421532886,66.23757905044322,63.17359609801856,69.30156200286787,132.47515810088643,132.47515810088643,1.1624631262917466,1.1624631262917466,19.3744502922776,1.139607400051318,0
1777555973.597,1.6756296296296256,10.609074074074073,68.006074,-4.80663,15.505925925925922,21.486704,1.390778,77.876587,6.408691,0.067061,2.642212,-23.376465,10.279424,-35.26062,10.620117,-1.135239,98.442993,-173.64502,0.977168,3.076172,-49.926758,12.904365,-6.866455,-58.71582,-2.754272,152.20459,-69.274902,0.742456,-13.057251,12.817383,5.072651,-98.497925,-27.526855,-3.515889,41.341553,858.703613,-0.292192,7.097168,59.509277,-5.350474,-85.374756,70.739746,12.827725,90.252686,114.135742,1.954336,-9.404297,-32.104492,7.429351,-11.420288,13.85498,-2.529141,100.925903,36.315918,3.190166,-3.400269,152.832031,11.04104,-120.585938,-1.098633,-5.125342,4.526367,8.300781,0.775986,-1.917114,-3.417969,1.719624,-100.783081,3.295898,10.226733,0,7944,38919,46083,30723,0,0,60164,24326,2817,14338,0,0,0,0,0,0,0,0,0,58126,12566,16130,0,0,0,2578,45588,2563,0,0,0,45575,0,0,0,659,41387,independent_20260430_213250,trial_001,subject_001,1777555973.5948925,278765.2039972,2462937,1,0,0,1,0.0,0.0,0.0,126.21763139552436,602.4089868510804,852.522129844902,67.50655695441743,374.5005606954143,901.2620936664816,129.32136987360565,376.7060572449422,897.8323986267803,-90.4269197176914,579.378084820359,728.512473662516,-85.37388078912825,647.8784983874167,458.4366660634591,-96.548748522105,547.8834311427487,358.367200277275,-50.73343386191162,429.4094161552401,183.50474125453707,8.74335237836524,362.8113235339198,168.62136652288416,-34.397007874120966,609.8240236944476,62.4414522556686,247.91831369792487,532.7763140366438,694.0898917765443,197.04107221122976,508.4616647553621,403.3919428513651,216.3360161875584,438.24763103221136,277.2633825681117,141.34230216741108,372.545766560032,71.73938187540868,87.0635604190987,312.0849266755234,45.29676541990517,132.62109954851584,571.7271819447838,54.85207959674126,61.418783345371445,38.58121665462856,63.480060870243314,36.519939129756686,105.299421532886,66.23757905044322,63.17359609801856,69.30156200286787,132.47515810088643,132.47515810088643,1.1624631262917466,1.1624631262917466,19.3744502922776,1.139607400051318,0
1777555973.605,1.6756296296296256,10.609074074074073,68.006074,-4.80663,15.505925925925922,21.486704,1.390778,77.876587,6.408691,0.067061,2.642212,-23.376465,10.279424,-35.26062,10.620117,-1.135239,98.442993,-173.64502,0.977168,3.076172,-49.926758,12.904365,-6.866455,-58.71582,-2.754272,152.20459,-69.274902,0.742456,-13.057251,12.817383,5.072651,-98.497925,-27.526855,-3.515889,41.341553,858.703613,-0.292192,7.097168,59.509277,-5.350474,-85.374756,70.739746,12.827725,90.252686,114.135742,1.954336,-9.404297,-32.104492,7.429351,-11.420288,13.85498,-2.529141,100.925903,36.315918,3.190166,-3.400269,152.832031,11.04104,-120.585938,-1.098633,-5.125342,4.526367,8.300781,0.775986,-1.917114,-3.417969,1.719624,-100.783081,3.295898,10.226733,0,7944,38919,46083,30723,0,0,60164,24326,2817,14338,0,0,0,0,0,0,0,0,0,58126,12566,16130,0,0,0,2578,45588,2563,0,0,0,45575,0,0,0,659,41387,independent_20260430_213250,trial_001,subject_001,1777555973.604508,278765.214006,2462938,1,0,0,1,0.0,0.0,0.0,126.98911545943848,600.3841964191388,851.5850350345266,66.1660951599735,373.0200926266535,900.9463325216476,127.96942475001238,374.7787017651679,897.3630551421411,-90.44019598019696,580.6942426930316,730.3288360832811,-85.51945796360162,653.6396422958659,459.9244473127037,-97.1782476689587,559.4435275925366,354.01140632335904,-51.29101188264572,451.3672758119536,172.36269586224032,8.482686462850786,386.08053016855,152.11702677272666,-34.99688671080226,639.0363503209105,63.050849417944974,247.6299217970614,527.3632735196802,693.0917299846761,197.40083436650056,497.8990779392885,402.9868277731599,215.8387547141853,426.9378800581786,277.37043444020566,140.5308673003261,360.3629770319504,71.97320755380994,86.3654235970177,299.74164706526994,45.592572074987736,132.0955096384377,559.4237443791069,54.705503946799865,61.418783345371445,38.58121665462856,63.480060870243314,36.519939129756686,105.299421532886,66.23757905044322,63.17359609801856,69.30156200286787,132.47515810088643,132.47515810088643,1.1624631262917466,1.1624631262917466,19.3744502922776,1.139607400051318,0
1777555973.618,1.6756296296296256,10.609074074074073,68.006074,-4.80663,15.505925925925922,21.486704,1.390778,77.876587,6.408691,0.067061,2.642212,-23.376465,10.279424,-35.26062,10.620117,-1.135239,98.442993,-173.64502,0.977168,3.076172,-49.926758,12.904365,-6.866455,-58.71582,-2.754272,152.20459,-69.274902,0.742456,-13.057251,12.817383,5.072651,-98.497925,-27.526855,-3.515889,41.341553,858.703613,-0.292192,7.097168,59.509277,-5.350474,-85.374756,70.739746,12.827725,90.252686,114.135742,1.954336,-9.404297,-32.104492,7.429351,-11.420288,13.85498,-2.529141,100.925903,36.315918,3.190166,-3.400269,152.832031,11.04104,-120.585938,-1.098633,-5.125342,4.526367,8.300781,0.775986,-1.917114,-3.417969,1.719624,-100.783081,3.295898,10.226733,0,7944,38919,46083,30723,0,0,60164,24326,2817,14338,0,0,0,0,0,0,0,0,0,58126,12566,16130,0,0,0,2578,45588,2563,0,0,0,45575,0,0,0,659,41387,independent_20260430_213250,trial_001,subject_001,1777555973.6146889,278765.2240459,2462939,1,0,0,1,0.0,0.0,0.0,127.73679194458072,598.9377307726185,850.455214434376,65.02383773203333,371.5522936539758,900.3077043761075,126.6320527278944,372.93712420749694,896.7448809200876,-90.50676636604106,581.6088027818892,731.6359012170974,-85.83909269560445,658.9293821549443,460.947840846072,-97.61578050982912,570.955360866448,349.3043392479987,-51.81668708174908,474.19127124357175,161.31097802417148,7.759681235678462,410.12951897954895,136.1388510628977,-35.709161151302006,668.2699940599689,64.18302323861207,247.2977399253213,522.1070854409069,691.9720713392245,197.60988728125065,487.625728010001,402.5154476703734,215.3493444435921,415.804815092229,277.5799926269954,139.2483685198961,348.1831279801055,71.90622506509587,85.71713141178179,287.462715906865,45.85995166472792,131.5611084316251,546.9456141575864,54.51286164248236,61.418783345371445,38.58121665462856,63.480060870243314,36.519939129756686,105.299421532886,66.23757905044322,63.17359609801856,69.30156200286787,132.47515810088643,132.47515810088643,1.1624631262917466,1.1624631262917466,19.3744502922776,1.139607400051318,0
1777555973.629,1.8676296296296329,20.969074074074072,65.676074,-4.80663,11.006925925925929,21.486704,-3.206222,78.068848,5.79834,-0.474214,1.988525,-32.775879,8.004155,-36.177979,15.197754,0.172441,88.082886,-145.263672,-1.307681,7.272949,-96.557617,9.666299,-10.025024,-54.626465,-4.052373,149.875488,-125.671387,-0.383203,-12.095947,-44.98291,3.415298,-98.168335,-39.794922,-4.646338,41.341553,858.703613,-0.292192,7.097168,59.509277,-5.350474,-85.374756,70.739746,12.827725,94.751587,127.441406,0.493374,-9.7229,-39.18457,10.384805,-12.639771,10.925293,-1.772314,100.925903,36.315918,3.190166,-3.400269,152.832031,11.04104,-120.585938,-1.098633,-5.125342,4.817505,8.300781,0.292192,-2.021484,-0.183105,1.24541,-100.71167,1.953125,9.81,0,7944,38919,46083,30723,0,0,60164,24326,2817,14338,0,0,0,0,0,0,0,0,0,58126,12566,16130,0,0,0,2578,45588,2563,0,0,0,45575,0,0,0,659,41387,independent_20260430_213250,trial_001,subject_001,1777555973.624686,278765.2339499,2462940,1,0,0,1,0.0,0.0,0.0,0.0,0.0,0.0,63.84088986655316,370.2044453195449,899.483680063153,125.6289449628342,371.0597012593023,895.8991169279204,-90.76218181644788,582.095600596804,732.3174694392526,-86.26201636911513,663.5148736922649,461.5231386349221,-98.13497144981376,582.362718075488,344.2768925554033,-52.2880881980023,497.670595619351,150.47463345552504,7.362952361130706,435.4842449420416,120.43588645380784,-36.64767575348902,697.4439501570117,65.90880402303077,246.9382247101632,516.9492684682242,690.7282156769514,197.5952036597373,477.7518825801152,401.87448339309,214.8220452839849,404.8903019640711,277.55649103471575,139.15552884037606,336.0909795869238,72.48612025926457,84.77305630426842,275.012789347215,46.16257881508733,131.0265490625015,534.6548536751516,54.28252301842861,61.418783345371445,38.58121665462856,63.480060870243314,36.519939129756686,105.299421532886,66.23757905044322,63.17359609801856,69.30156200286787,132.47515810088643,132.47515810088643,1.1624631262917466,1.1624631262917466,19.3744502922776,1.139607400051318,0
1777555973.64,1.8676296296296329,20.969074074074072,65.676074,-4.80663,11.006925925925929,21.486704,-3.206222,78.068848,5.79834,-0.474214,1.988525,-32.775879,8.004155,-36.177979,15.197754,0.172441,88.082886,-145.263672,-1.307681,7.272949,-96.557617,9.666299,-10.025024,-54.626465,-4.052373,149.875488,-125.671387,-0.383203,-12.095947,-44.98291,3.415298,-98.168335,-39.794922,-4.646338,41.341553,858.703613,-0.292192,7.097168,59.509277,-5.350474,-85.374756,70.739746,12.827725,94.751587,127.441406,0.493374,-9.7229,-39.18457,10.384805,-12.639771,10.925293,-1.772314,100.925903,36.315918,3.190166,-3.400269,152.832031,11.04104,-120.585938,-1.098633,-5.125342,4.817505,8.300781,0.292192,-2.021484,-0.183105,1.24541,-100.71167,1.953125,9.81,0,7944,38919,46083,30723,0,0,60164,24326,2817,14338,0,0,0,0,0,0,0,0,0,58126,12566,16130,0,0,0,2578,45588,2563,0,0,0,45575,0,0,0,659,41387,independent_20260430_213250,trial_001,subject_001,1777555973.643836,278765.2536487,2462942,1,0,0,1,0.0,0.0,0.0,0.0,0.0,0.0,61.71632812710144,367.772199833391,897.1680948155664,123.31074209864032,367.6788014249817,893.404824328834,-91.78454194698251,581.9944715992077,731.7790838763732,-87.20625758670496,670.2191459037364,460.88992835192863,-99.19962249144275,605.0817414642587,332.98580229487646,-53.66635767572211,546.1658665266616,130.38910248798746,5.915025706575512,488.6554394518647,106.64752510152428,-38.9171334557521,755.483677219931,67.90162559241492,246.3488330014744,506.9737775437702,687.957167591865,197.2572135951956,459.1922342470874,400.3609825269256,213.8761824939831,384.204750226196,277.5974672877318,137.86716474656558,311.8592368891295,73.01791996274659,83.71502901495127,250.7055689483133,46.31828648702447,130.24243096936948,510.415946260324,54.02994960945262,61.418783345371445,38.58121665462856,63.480060870243314,36.519939129756686,105.299421532886,66.23757905044322,63.17359609801856,69.30156200286787,132.47515810088643,132.47515810088643,1.1624631262917466,1.1624631262917466,19.3744502922776,1.139607400051318,0
1777555973.655,1.8676296296296329,20.969074074074072,65.676074,-4.80663,11.006925925925929,21.486704,-3.206222,78.068848,5.79834,-0.474214,1.988525,-32.775879,8.004155,-36.177979,15.197754,0.172441,88.082886,-145.263672,-1.307681,7.272949,-96.557617,9.666299,-10.025024,-54.626465,-4.052373,149.875488,-125.671387,-0.383203,-12.095947,-44.98291,3.415298,-98.168335,-39.794922,-4.646338,41.341553,858.703613,-0.292192,7.097168,59.509277,-5.350474,-85.374756,70.739746,12.827725,94.751587,127.441406,0.493374,-9.7229,-39.18457,10.384805,-12.639771,10.925293,-1.772314,100.925903,36.315918,3.190166,-3.400269,152.832031,11.04104,-120.585938,-1.098633,-5.125342,4.817505,8.300781,0.292192,-2.021484,-0.183105,1.24541,-100.71167,1.953125,9.81,0,7944,38919,46083,30723,0,0,60164,24326,2817,14338,0,0,0,0,0,0,0,0,0,58126,12566,16130,0,0,0,2578,45588,2563,0,0,0,45575,0,0,0,659,41387,independent_20260430_213250,trial_001,subject_001,1777555973.6548705,278765.2638314,2462943,1,0,0,1,0.0,0.0,0.0,0.0,0.0,0.0,60.56453553518107,366.62442955586897,895.3739923869084,122.24272057588809,366.1417220636087,891.7480120312014,-92.38569281370486,581.6056995521129,730.6184231751976,-87.84446226529313,672.7057989395206,459.6555475945614,-100.68457021792383,616.591297838714,327.84298419452824,-54.27072656388541,571.0337842198347,121.18405627111396,5.661365977132427,515.643256033167,94.45749637232647,-40.16151866727232,784.1664724184523,71.1831185416031,246.1091881129404,502.1329495773727,686.5467756348303,197.10671331568,450.1456159076836,399.5828002591933,213.4449447982084,374.00771753484,277.54601202633427,136.8350828233282,299.856707716694,73.17811174888259,82.78408154508818,238.3091306245148,46.58298860390195,129.61953998316577,498.1376625186359,53.718659936321565,61.418783345371445,38.58121665462856,63.480060870243314,36.519939129756686,105.299421532886,66.23757905044322,63.17359609801856,69.30156200286787,132.47515810088643,132.47515810088643,1.1624631262917466,1.1624631262917466,19.3744502922776,1.139607400051318,0
1777555973.666,1.8676296296296329,20.969074074074072,65.676074,-4.80663,11.006925925925929,21.486704,-3.206222,78.068848,5.79834,-0.474214,1.988525,-32.775879,8.004155,-36.177979,15.197754,0.172441,88.082886,-145.263672,-1.307681,7.272949,-96.557617,9.666299,-10.025024,-54.626465,-4.052373,149.875488,-125.671387,-0.383203,-12.095947,-44.98291,3.415298,-98.168335,-39.794922,-4.646338,41.341553,858.703613,-0.292192,7.097168,59.509277,-5.350474,-85.374756,70.739746,12.827725,94.751587,127.441406,0.493374,-9.7229,-39.18457,10.384805,-12.639771,10.925293,-1.772314,100.925903,36.315918,3.190166,-3.400269,152.832031,11.04104,-120.585938,-1.098633,-5.125342,4.817505,8.300781,0.292192,-2.021484,-0.183105,1.24541,-100.71167,1.953125,9.81,0,7944,38919,46083,30723,0,0,60164,24326,2817,14338,0,0,0,0,0,0,0,0,0,58126,12566,16130,0,0,0,2578,45588,2563,0,0,0,45575,0,0,0,659,41387,independent_20260430_213250,trial_001,subject_001,1777555973.664875,278765.2739637,2462944,1,0,0,1,0.0,0.0,0.0,0.0,0.0,0.0,59.48756361078459,365.6946112740953,893.3779837563566,120.96161320854152,364.8341462882775,889.8176889292336,-93.0310356065728,581.0542043411697,728.9564153521317,-88.61573594566269,674.8841291425178,457.8828076381857,-101.30408852027468,628.1015553452121,321.8194890238852,-54.86905846980464,596.160671307761,113.07701356430424,5.25918914418321,543.342651620594,83.05716635631777,-41.05678346408884,812.300852284445,75.83061336305119,245.9201787322689,497.45811143040896,685.1163354544682,197.04308959188856,441.1575470527257,398.9008031556015,213.00084792808627,363.9455249732168,277.74254948319515,136.37968819850465,287.90943413132135,73.68102003768176,82.56153668200659,226.2803389990968,46.79395471299719,129.13319826391887,485.901919988386,53.39228641778278,61.418783345371445,38.58121665462856,63.480060870243314,36.519939129756686,105.299421532886,66.23757905044322,63.17359609801856,69.30156200286787,132.47515810088643,132.47515810088643,1.1624631262917466,1.1624631262917466,19.3744502922776,1.139607400051318,0
1777555973.677,1.8676296296296329,20.969074074074072,71.148074,2.07137,5.667925925925928,17.888704,-3.206222,78.068848,-2.624512,-0.01916,1.153564,-26.000977,7.36708,-37.067871,20.874023,0.05269,88.082886,-145.263672,-1.307681,7.272949,-96.557617,9.666299,-10.025024,-54.626465,-4.052373,144.986572,-178.955078,1.288521,-10.030518,-63.354492,3.6548,-97.970581,-43.579102,-8.55022,57.139893,-213.317871,-3.434458,-3.581543,-13.61084,-1.20709,-79.974976,-29.663086,16.343613,100.090942,140.014648,-2.44771,-9.827271,-138.061523,8.52627,-16.199341,18.249512,-1.705254,101.826782,28.564453,-7.108418,-3.850708,-125.366211,7.539521,-121.129761,29.724121,-5.628296,4.817505,8.300781,0.292192,-2.021484,-0.183105,1.24541,-100.71167,1.953125,9.81,0,7944,38919,46083,30723,0,0,60164,24326,2817,14338,0,0,0,0,0,0,0,0,0,58126,12566,16130,0,0,0,2578,45588,2563,0,0,0,45575,0,0,0,659,41387,independent_20260430_213250,trial_001,subject_001,1777555973.6743827,278765.2838629,2462945,1,0,0,1,0.0,0.0,0.0,0.0,0.0,0.0,58.46583236374013,365.007795959904,891.0502894769597,119.86600835843797,363.6693754901128,887.6750526091072,-93.6153824545159,580.2008659571771,726.878863386656,-89.22638690671965,676.4803776674752,455.5920167953274,-102.31975403835337,639.1749050320592,316.5185079634304,-55.34522204975486,621.5124754474524,106.00039861542082,4.721092121600911,570.8914665563314,71.72709396550187,-41.40924364697434,839.4681711325018,82.03050727036977,245.6343313134882,493.0102320405005,683.6440627017729,197.13671025183925,432.222381372388,398.3242861430047,212.65157167264795,353.7549843030409,278.0345977266525,135.13233553937394,275.8374808208642,73.95730500857402,81.6648227553183,213.85640080147093,47.29895010531053,128.73003039148148,473.7663477657345,53.00417791489302,61.418783345371445,38.58121665462856,63.480060870243314,36.519939129756686,105.299421532886,66.23757905044322,63.17359609801856,69.30156200286787,132.47515810088643,132.47515810088643,1.1624631262917466,1.1624631262917466,19.3744502922776,1.139607400051318,0
1777555973.686,1.9226296296296248,26.594074074074072,71.148074,-3.70863,5.667925925925928,13.669704,-3.849222,78.123779,2.624512,0.459844,0.324097,-37.902832,6.624624,-37.880859,20.568848,0.512534,82.457886,-140.136719,-0.191602,8.151855,-171.264648,7.539521,-15.303955,-26.855469,-5.407954,144.986572,-178.955078,1.288521,-10.030518,-63.354492,3.6548,-97.970581,-43.579102,-8.55022,46.472168,-334.411621,-1.513652,-2.834473,-3.417969,0.886157,-81.414185,-47.668457,11.146421,100.090942,140.014648,-2.44771,-9.827271,-138.061523,8.52627,-16.199341,18.249512,-1.705254,102.947388,19.226074,6.653364,-4.136353,-48.278809,10.169253,-125.200195,25.20752,-1.599873,5.075684,8.483887,0.263452,-2.175293,-5.004883,0.914897,-100.69519,-0.061035,10.063872,0,7944,38919,46083,30723,0,0,60164,24326,2817,14338,0,0,0,0,0,0,0,0,0,58126,12566,16130,0,0,0,2578,45588,2563,0,0,0,45575,0,0,0,659,41387,independent_20260430_213250,trial_001,subject_001,1777555973.684393,278765.2938852,2462946,1,0,0,1,0.0,0.0,0.0,0.0,0.0,0.0,57.54070594131292,364.395839285469,888.5587088920236,118.4230296275004,362.53790258244265,885.1820519610893,-94.23706956716735,579.5326102435173,724.4567399290287,-89.83246005387757,677.7149032496062,453.1917721160641,-103.43099774175826,650.083858099799,311.8251668944401,-56.20402980803406,646.2044222511877,100.53170935364804,4.159434279598131,597.8935583527324,62.46580640891199,-40.932811814378944,865.5671112018423,89.22234011487242,245.431172945136,488.8689102139769,682.068832974115,197.29310345614343,423.3806562283008,397.7544145972701,212.34444447353343,343.52436973128084,278.4769926333971,134.06440440231646,263.72665601527115,74.54766681347694,81.13426554015948,201.56738269149028,48.3175866281956,128.33809466209527,461.5753232486091,52.55141402507767,61.418783345371445,38.58121665462856,63.480060870243314,36.519939129756686,105.299421532886,66.23757905044322,63.17359609801856,69.30156200286787,132.47515810088643,132.47515810088643,1.1624631262917466,1.1624631262917466,19.3744502922776,1.139607400051318,0
1777555973.699,1.944629629629631,26.594074074074072,63.594074,-8.84963,-1.8190740740740807,13.972704,-3.849222,78.145752,-1.037598,0.536484,-0.181274,-49.560547,7.237749,-38.7323,15.563965,0.378413,82.457886,-140.136719,-0.191602,8.151855,-171.264648,7.539521,-15.303955,-26.855469,-5.407954,131.808472,-283.508301,2.313589,-5.037231,-66.52832,3.247646,-98.00354,-67.932129,-5.498965,41.330566,-346.130371,-0.555645,-2.120361,19.53125,2.002236,-81.842651,-52.612305,10.188413,107.578125,120.117188,2.735112,-8.497925,-135.009766,8.329878,-23.318481,3.051758,-1.24062,103.249512,21.30127,5.542075,-4.372559,17.333984,9.599238,-125.161743,12.390137,-1.614243,5.075684,8.483887,0.263452,-2.175293,-5.004883,0.914897,-100.69519,-0.061035,10.063872,0,7944,38919,46083,30723,0,0,60164,24326,2817,14338,0,0,0,0,0,0,0,0,0,58126,12566,16130,0,0,0,2578,45588,2563,0,0,0,45575,0,0,0,659,41387,independent_20260430_213250,trial_001,subject_001,1777555973.6943874,278765.3039913,2462947,1,0,0,1,0.0,0.0,0.0,132.37083540339086,585.0133214274382,835.9862805221275,56.48152418639339,364.0121521219573,885.8761900244417,117.37254488159924,361.8082673505936,882.596819459582,-95.05636206437286,579.1552713662007,721.8087324754518,-90.53438553693644,678.6696573024927,450.6341339958503,-104.46478750929222,660.459454202434,307.711230610806,-56.78168829407973,670.1341506566447,96.52672859664564,3.2588535426275334,623.820991097376,54.5843445287729,-39.43174835895112,890.2657149263013,97.56565079844373,245.2082680280772,484.965112489588,680.4670208780242,197.50061661208107,414.6533429222815,397.28311407719406,211.917543789049,333.3574268673955,278.98639760306355,133.2086943478238,252.1060188470376,75.47472615104721,80.3793520196846,189.48540863186264,49.49201160217446,127.83696998152892,449.4412269061411,52.062333241725504,61.418783345371445,38.58121665462856,63.480060870243314,36.519939129756686,105.299421532886,66.23757905044322,63.17359609801856,69.30156200286787,132.47515810088643,132.47515810088643,1.1624631262917466,1.1624631262917466,19.3744502922776,1.139607400051318,0
1777555973.705,1.944629629629631,26.594074074074072,63.594074,-8.84963,-1.8190740740740807,13.972704,-3.849222,78.145752,-1.037598,0.536484,-0.181274,-49.560547,7.237749,-38.7323,15.563965,0.378413,82.457886,-140.136719,-0.191602,8.151855,-171.264648,7.539521,-15.303955,-26.855469,-5.407954,131.808472,-283.508301,2.313589,-5.037231,-66.52832,3.247646,-98.00354,-67.932129,-5.498965,41.330566,-346.130371,-0.555645,-2.120361,19.53125,2.002236,-81.842651,-52.612305,10.188413,107.578125,120.117188,2.735112,-8.497925,-135.009766,8.329878,-23.318481,3.051758,-1.24062,103.249512,21.30127,5.542075,-4.372559,17.333984,9.599238,-125.161743,12.390137,-1.614243,5.075684,8.483887,0.263452,-2.175293,-5.004883,0.914897,-100.69519,-0.061035,10.063872,0,7944,38919,46083,30723,0,0,60164,24326,2817,14338,0,0,0,0,0,0,0,0,0,54800,46872,52997,0,0,0,10005,14870,48901,0,0,0,32010,49921,0,0,659,41388,independent_20260430_213250,trial_001,subject_001,1777555973.7043922,278765.3138241,2462948,1,0,0,1,0.0,0.0,0.0,132.60963655659765,585.2239142088554,834.2167049848448,55.32846706017088,363.970285835064,883.0942712989142,116.15510633854412,361.34316985289945,879.891272910294,-95.35747370322288,578.5089750455146,719.05833040813,-90.94842282066185,679.3405087272207,447.9664758221317,-105.59097523604702,670.1148379793412,304.25058822559686,-57.15411499112008,693.0491204890642,93.46876862956232,1.9923387614472483,648.3852563369795,48.13458734853741,-36.966262634626425,913.2163504298094,107.34491311089296,245.01320966748747,481.3290303250315,678.788514040975,197.7232825277188,406.18079877551975,396.89361026853686,211.53503306526943,323.51116411130045,279.47235267541697,134.29166990996166,243.801513062427,73.08428345440412,79.90203432867789,177.39154280655595,50.62154007434444,127.38646563283396,437.37300947593104,51.56621529583016,61.418783345371445,38.58121665462856,63.480060870243314,36.519939129756686,105.299421532886,66.23757905044322,63.17359609801856,69.30156200286787,132.47515810088643,132.47515810088643,1.1624631262917466,1.1624631262917466,19.3744502922776,1.139607400051318,0
1777555973.715,1.944629629629631,26.594074074074072,63.594074,-8.84963,-1.8190740740740807,13.972704,-3.849222,78.145752,-1.037598,0.536484,-0.181274,-49.560547,7.237749,-38.7323,15.563965,0.378413,82.457886,-140.136719,-0.191602,8.151855,-171.264648,7.539521,-15.303955,-26.855469,-5.407954,131.808472,-283.508301,2.313589,-5.037231,-66.52832,3.247646,-98.00354,-67.932129,-5.498965,41.330566,-346.130371,-0.555645,-2.120361,19.53125,2.002236,-81.842651,-52.612305,10.188413,107.578125,120.117188,2.735112,-8.497925,-135.009766,8.329878,-23.318481,3.051758,-1.24062,103.249512,21.30127,5.542075,-4.372559,17.333984,9.599238,-125.161743,12.390137,-1.614243,5.075684,8.483887,0.263452,-2.175293,-5.004883,0.914897,-100.69519,-0.061035,10.063872,0,7944,38919,46083,30723,0,0,60164,24326,2817,14338,0,0,0,0,0,0,0,0,0,43789,10259,57604,0,0,0,17427,529,46340,0,0,0,49929,17923,17152,0,659,41389,independent_20260430_213250,trial_001,subject_001,1777555973.715013,278765.3241625,2462949,1,0,0,1,0.0,0.0,0.0,133.0057621196146,585.0019022046239,831.9595781063962,54.23704213445527,364.1868088147734,880.4233496828833,115.01809550166254,361.09661159653615,877.4019154936094,-95.7561443682753,578.2687190104002,716.4864213864336,-91.26734649643876,679.9313323798935,445.30739503120793,-107.14318786983796,679.1064241699136,301.3174802957544,-57.827551898619966,714.2757914445119,91.955402992048,0.7602487906133217,671.1827829724256,43.05406411050667,-33.599475538431456,934.0263874213576,116.2859079196689,244.803397547623,477.8635900286575,677.0430664695,197.91788686679604,398.1426333691103,396.4139924181269,211.26662668799395,314.156632444881,280.00133846657,135.2940710682669,233.28294090315703,72.9391966691656,79.72983352002096,165.56411534918814,52.4899487316459,127.06912879456932,425.33741076729245,51.0486743067651,61.418783345371445,38.58121665462856,63.480060870243314,36.519939129756686,105.299421532886,66.23757905044322,63.17359609801856,69.30156200286787,132.47515810088643,132.47515810088643,1.1624631262917466,1.1624631262917466,19.3744502922776,1.139607400051318,0
1777555973.729,1.8616296296296329,33.422074074074075,63.594074,-8.44263,-1.8190740740740807,7.413704,-4.948222,78.063354,-1.708984,0.536484,-0.97229,-50.78125,7.127578,-40.396729,10.314941,0.05269,75.629883,-89.538574,2.557881,6.849976,-141.113281,3.966152,-23.527222,6.225586,-2.577041,131.808472,-283.508301,2.313589,-5.037231,-66.52832,3.247646,-98.00354,-67.932129,-5.498965,28.55896,-368.103027,0.167651,-0.20874,23.925781,3.817661,-82.96875,-56.884766,10.581196,107.578125,120.117188,2.735112,-8.497925,-135.009766,8.329878,-23.318481,3.051758,-1.24062,104.177856,28.015137,-0.756826,-4.844971,-25.390625,8.995693,-125.172729,17.028809,-1.796265,5.39978,6.164551,0.536484,-2.373047,-2.868652,1.26457,-100.651245,1.525879,10.154883,0,7944,38919,46083,30723,0,0,60164,24326,2817,14338,0,0,0,0,0,0,0,0,0,59146,43530,48385,0,0,0,40976,54537,2306,0,0,0,47879,7684,51458,0,659,41390,independent_20260430_213250,trial_001,subject_001,1777555973.7247007,278765.3337871,2462950,1,0,0,1,0.0,0.0,0.0,133.53088655777108,585.7717445781785,829.6908871968251,53.20067247030961,364.606445608991,877.9227169454144,113.67070821637414,361.14732269033664,875.0703253228652,-96.13230297334968,578.340584166492,713.8528748981133,-91.62448087739752,680.5883000323379,442.8485075780895,-108.1266636796494,687.2588304046886,298.8978328526827,-58.07962832957144,733.4749890657854,91.27293794343493,-0.3463911279377984,691.9185229368653,39.21337433502919,-29.69639540082441,952.2571586852624,124.91737400214404,244.61157828088696,474.6775877047638,675.2059232502857,198.0528491466616,390.782240488771,395.8438635724158,210.932555618039,305.3699424980613,280.53542945763803,133.4354276891498,220.2158218687989,76.03896805149594,79.0758546422078,153.48500439232967,54.53036475162952,126.75174900916726,413.34381689168464,50.55163766479998,61.418783345371445,38.58121665462856,63.480060870243314,36.519939129756686,105.299421532886,66.23757905044322,63.17359609801856,69.30156200286787,132.47515810088643,132.47515810088643,1.1624631262917466,1.1624631262917466,19.3744502922776,1.139607400051318,0
1777555973.739,1.8616296296296329,33.422074074074075,63.594074,-8.44263,-1.8190740740740807,7.413704,-4.948222,78.063354,-1.708984,0.536484,-0.97229,-50.78125,7.127578,-40.396729,10.314941,0.05269,75.629883,-89.538574,2.557881,6.849976,-141.113281,3.966152,-23.527222,6.225586,-2.577041,131.808472,-283.508301,2.313589,-5.037231,-66.52832,3.247646,-98.00354,-67.932129,-5.498965,28.55896,-368.103027,0.167651,-0.20874,23.925781,3.817661,-82.96875,-56.884766,10.581196,107.578125,120.117188,2.735112,-8.497925,-135.009766,8.329878,-23.318481,3.051758,-1.24062,104.177856,28.015137,-0.756826,-4.844971,-25.390625,8.995693,-125.172729,17.028809,-1.796265,5.39978,6.164551,0.536484,-2.373047,-2.868652,1.26457,-100.651245,1.525879,10.154883,0,7944,38919,46083,30723,0,0,60164,24326,2817,14338,0,0,0,0,0,0,0,0,0,13321,62468,0,0,0,0,48910,28164,17920,0,24320,0,6406,8965,34053,0,659,41391,independent_20260430_213250,trial_001,subject_001,1777555973.7348614,278765.3440128,2462951,1,0,0,1,0.0,0.0,0.0,133.23160273711645,584.9695321131425,826.9848788899612,51.74262420880012,365.4267723680511,875.8359502352101,112.25005166677258,361.4727486330879,873.0138360267532,-96.3979604840012,578.9651224090809,711.3567204569183,-91.92189006592687,681.3584267737018,440.26629272288017,-108.93524989610304,694.3038039570959,296.60520077896723,-58.01442543419957,750.2402980220644,91.11462434661242,-1.307475559564239,710.5231826885259,36.36454763202821,-25.419287948733125,967.68447427261,133.18530771074523,244.3177992492182,471.8265068800136,673.4165769134806,197.9278654511297,384.20386415297554,394.9511017551824,210.6124876501925,297.1584633507572,281.0838417287242,133.205747909446,208.65061187517472,77.92428867216708,79.13595481312328,141.94260695375914,56.14699561894692,126.43162647202116,401.4539939681709,50.07658049426029,61.418783345371445,38.58121665462856,63.480060870243314,36.519939129756686,105.299421532886,66.23757905044322,63.17359609801856,69.30156200286787,132.47515810088643,132.47515810088643,1.1624631262917466,1.1624631262917466,19.3744502922776,1.139607400051318,0
1777555973.758,1.8616296296296329,33.422074074074075,63.594074,-8.44263,-1.8190740740740807,7.413704,-4.948222,78.063354,-1.708984,0.536484,-0.97229,-50.78125,7.127578,-40.396729,10.314941,0.05269,75.629883,-89.538574,2.557881,6.849976,-141.113281,3.966152,-23.527222,6.225586,-2.577041,131.808472,-283.508301,2.313589,-5.037231,-66.52832,3.247646,-98.00354,-67.932129,-5.498965,28.55896,-368.103027,0.167651,-0.20874,23.925781,3.817661,-82.96875,-56.884766,10.581196,107.578125,120.117188,2.735112,-8.497925,-135.009766,8.329878,-23.318481,3.051758,-1.24062,104.177856,28.015137,-0.756826,-4.844971,-25.390625,8.995693,-125.172729,17.028809,-1.796265,5.39978,6.164551,0.536484,-2.373047,-2.868652,1.26457,-100.651245,1.525879,10.154883,0,7944,38919,46083,30723,0,0,60164,24326,2817,14338,0,0,0,0,0,0,0,0,0,13321,62468,0,0,0,0,48910,28164,17920,0,24320,0,6406,8965,34053,0,659,41391,independent_20260430_213250,trial_001,subject_001,1777555973.7543795,278765.363851,2462953,1,0,0,1,0.0,0.0,0.0,133.44648919916185,585.1483415841442,821.6835416953196,48.448622365035725,367.85426557243017,871.8187433146222,108.82713567123427,362.9167896806212,869.4528335326687,-97.37897202211632,581.4215005364528,707.1677552958323,-92.26187093193678,682.9048926771892,434.9975569304201,-109.5906676092982,705.2793283728801,292.4225502368976,-57.01798046246489,775.6306538716402,91.10300983163155,-1.5555822414054592,740.2159028542322,34.725679872895896,-17.402014114479584,988.7027073226892,139.06829677829683,243.7294272858672,467.3469878476549,669.7729962064279,196.8854132010832,373.3111152281982,392.8718948457249,209.83716776045608,281.95691540430545,282.5802612223972,133.18251833660577,186.873122329811,81.113276964934,78.25402979988444,118.40827124331106,58.949867914858125,125.81277207316548,377.5418131449645,49.593279975972,61.418783345371445,38.58121665462856,63.480060870243314,36.519939129756686,105.299421532886,66.23757905044322,63.17359609801856,69.30156200286787,132.47515810088643,132.47515810088643,1.1624631262917466,1.1624631262917466,19.3744502922776,1.139607400051318,2
1777555973.766,1.8616296296296329,33.422074074074075,63.594074,-8.44263,-1.8190740740740807,7.413704,-4.948222,78.063354,-1.708984,0.536484,-0.97229,-50.78125,7.127578,-40.396729,10.314941,0.05269,75.629883,-89.538574,2.557881,6.849976,-141.113281,3.966152,-23.527222,6.225586,-2.577041,131.808472,-283.508301,2.313589,-5.037231,-66.52832,3.247646,-98.00354,-67.932129,-5.498965,28.55896,-368.103027,0.167651,-0.20874,23.925781,3.817661,-82.96875,-56.884766,10.581196,107.578125,120.117188,2.735112,-8.497925,-135.009766,8.329878,-23.318481,3.051758,-1.24062,104.177856,28.015137,-0.756826,-4.844971,-25.390625,8.995693,-125.172729,17.028809,-1.796265,5.39978,6.164551,0.536484,-2.373047,-2.868652,1.26457,-100.651245,1.525879,10.154883,0,7944,38919,46083,30723,0,0,60164,24326,2817,14338,0,0,0,0,0,0,0,0,0,13321,62468,0,0,0,0,48910,28164,17920,0,24320,0,6406,8965,34053,0,659,41391,independent_20260430_213250,trial_001,subject_001,1777555973.7646213,278765.3744618,2462954,1,0,0,1,45.71975971295611,593.7083075980039,823.4067702493045,133.52000095328634,585.7181845887974,819.1432330802116,46.41475349186453,369.5983906535056,870.1175031883631,106.94923033901144,364.0333424620245,867.8196149623208,-97.80427617281572,583.5497384241762,705.2779557364835,-92.20988936495588,683.6295384751221,432.4712670536623,-109.32308568447148,708.7968639350954,290.3124514388008,-56.125152025942256,783.6594897734469,90.85412066989484,-1.1915767597217994,750.9529940828238,32.8164690541074,-14.1875879086384,994.8919142633248,143.6919201752309,243.2112726218168,465.7165541600948,668.0248087533607,196.2124566241616,368.63543947118814,391.94465423002544,209.45246234298472,274.9240171893304,283.6338449088861,132.87881161212076,175.81487272656125,84.52465594850734,77.96556785410088,107.01741220103516,61.213999489938274,125.49248373111148,365.6191702001116,49.16823669381047,61.418783345371445,38.58121665462856,63.480060870243314,36.519939129756686,105.299421532886,66.23757905044322,63.17359609801856,69.30156200286787,132.47515810088643,132.47515810088643,1.1624631262917466,1.1624631262917466,19.3744502922776,1.139607400051318,2
1777555973.781,1.8616296296296329,35.71807407407407,61.018074,-10.65663,-6.598074074074077,7.413704,-5.651222,78.063354,-1.708984,0.536484,-0.97229,-50.78125,7.127578,-40.396729,10.314941,0.05269,73.33374,-37.841797,2.715952,5.960083,-42.053223,3.803291,-26.202393,0.305176,-3.300337,122.404175,-330.383301,1.077759,-2.059937,-67.993164,4.756509,-98.338623,-73.791504,-5.858218,16.940918,-301.513672,2.189048,1.203003,31.982422,2.945874,-84.116821,-30.700684,10.030342,112.357178,117.126465,2.45729,-6.767578,-117.06543,9.369316,-27.432861,-6.286621,-0.905317,104.177856,28.015137,-0.756826,-4.844971,-25.390625,8.995693,-125.172729,17.028809,-1.796265,5.625,8.239746,0.282612,-2.488403,-2.441406,0.775986,-100.667725,-0.305176,9.029224,0,7944,38919,46083,30723,0,0,60164,24326,2817,14338,0,0,0,0,0,0,0,0,0,13321,62468,0,0,0,0,48910,28164,17920,0,24320,0,6406,8965,34053,0,659,41391,independent_20260430_213250,trial_001,subject_001,1777555973.784145,278765.3939534,2462956,1,0,0,1,46.43955777126521,597.9929043089772,819.2985582525836,133.46752519966952,587.8157322753814,814.5462226561663,42.493704175599824,373.71948445119534,867.4528960277679,102.8094517965874,367.2363089959164,864.9534009830189,-98.19320554396276,588.5765143205073,702.0184833815895,-91.65775554186284,685.4009090347942,427.37087066099673,-107.70074534610866,711.8841559032686,285.50234548668715,-53.82205401605818,789.2052154181913,87.35271559360112,0.2477091739455886,761.8720546906196,31.49469032571733,-9.68509734208308,1001.8931516589236,145.7971221380955,241.58009373145063,463.7600979759994,664.7680612604515,195.25417710185093,360.5989711279924,390.7919667968918,208.529137929784,262.4426152420225,286.4995003921223,132.63210139302134,155.31988647972426,90.4916103009221,77.56505092080971,84.17325761364347,64.18668261728027,124.90613050387827,341.7635811560317,48.78719299734179,61.418783345371445,38.58121665462856,63.480060870243314,36.519939129756686,105.299421532886,66.23757905044322,63.17359609801856,69.30156200286787,132.47515810088643,132.47515810088643,1.1624631262917466,1.1624631262917466,19.3744502922776,1.139607400051318,2
1777555973.79,1.9166296296296248,35.71807407407407,50.702074,-10.65663,-9.784074074074084,4.029704,-6.749222,78.118286,-0.915527,0.752036,-1.494141,-45.959473,7.755073,-41.786499,6.835938,0.646655,73.33374,-37.841797,2.715952,5.960083,-42.053223,3.803291,-26.202393,0.305176,-3.300337,109.79187,-382.8125,0.866997,1.472168,-89.111328,7.937095,-99.168091,-86.05957,-8.741821,16.940918,-301.513672,2.189048,1.203003,31.982422,2.945874,-84.116821,-30.700684,10.030342,115.543213,87.036133,1.949546,-5.251465,-102.966309,9.431587,-30.305786,-7.8125,-0.541274,105.57312,40.588379,1.916016,-5.048218,-40.893555,8.756191,-126.831665,16.967773,-1.326841,5.921631,12.634277,0.512534,-2.631226,-5.249023,0.809517,-100.728149,-1.77002,9.83395,0,7944,38919,46083,30723,0,0,60164,24326,2817,14338,0,0,0,0,0,0,0,0,0,13321,62468,0,0,0,0,48910,28164,17920,0,24320,0,6406,8965,34053,0,659,41391,independent_20260430_213250,trial_001,subject_001,1777555973.7951434,278765.4039993,2462957,1,0,0,1,46.49334887143775,600.336023764731,817.4805701779743,133.4120824317991,589.400332332559,812.4726386241496,40.54640225596563,376.4791457071518,866.4263208727216,100.68436915572188,369.40689071952175,863.8530801747762,-98.37738969074992,591.6109038491778,700.5238515346132,-91.1495707407968,686.6962635773361,424.7777730359648,-106.55221568388224,711.5490508941408,282.554042546504,-53.54619851946176,786.580629313754,85.51873438383701,1.6189611684415652,760.1604542768998,30.62006354908725,-8.391884567970004,1001.5104252441112,145.2785558678403,240.72108130300904,463.43450974998814,663.2537804015632,195.22536408923136,357.9160672813024,390.5192620445191,208.1725131143376,257.27638651770883,288.2768620270421,132.2946987016624,145.2175483999243,94.80439842297372,77.46795990699529,72.92925209712816,67.99245791452512,124.51595544565824,329.89406940326774,48.442306926439095,61.418783345371445,38.58121665462856,63.480060870243314,36.519939129756686,105.299421532886,66.23757905044322,63.17359609801856,69.30156200286787,132.47515810088643,132.47515810088643,1.1624631262917466,1.1624631262917466,19.3744502922776,1.139607400051318,2
