timestamp,torso_angle,left_hip_angle,left_knee_angle,left_ankle_angle,right_hip_angle,right_knee_angle,right_ankle_angle,imu1ang_x,imu1vel_x,imu1acc_x,imu1ang_y,imu1vel_y,imu1acc_y,imu1ang_z,imu1vel_z,imu1acc_z,imu2ang_x,imu2vel_x,imu2acc_x,imu2ang_y,imu2vel_y,imu2acc_y,imu2ang_z,imu2vel_z,imu2acc_z,imu3ang_x,imu3vel_x,imu3acc_x,imu3ang_y,imu3vel_y,imu3acc_y,imu3ang_z,imu3vel_z,imu3acc_z,imu4ang_x,imu4vel_x,imu4acc_x,imu4ang_y,imu4vel_y,imu4acc_y,imu4ang_z,imu4vel_z,imu4acc_z,imu5ang_x,imu5vel_x,imu5acc_x,imu5ang_y,imu5vel_y,imu5acc_y,imu5ang_z,imu5vel_z,imu5acc_z,imu6ang_x,imu6vel_x,imu6acc_x,imu6ang_y,imu6vel_y,imu6acc_y,imu6ang_z,imu6vel_z,imu6acc_z,imu7ang_x,imu7vel_x,imu7acc_x,imu7ang_y,imu7vel_y,imu7acc_y,imu7ang_z,imu7vel_z,imu7acc_z,L_1,L_2,L_3,L_4,L_5,L_6,L_7,L_8,L_9,L_10,L_11,L_12,L_13,L_14,L_15,L_16,L_17,L_18,R_1,R_2,R_3,R_4,R_5,R_6,R_7,R_8,R_9,R_10,R_11,R_12,R_13,R_14,R_15,R_16,R_17,R_18,frame_id_left,frame_id_right,vicon_Session_ID,vicon_Trial_ID,vicon_Subject_ID,vicon_Vicon_Recv_Timestamp,vicon_Vicon_Recv_Timestamp_Mono,vicon_Vicon_Frame_Num,vicon_Vicon_Subject_Name,vicon_Vicon_Gap_Flag,vicon_Vicon_Gap_Size,vicon_Vicon_Original_Valid_Flag,vicon_Vicon_LASI_X,vicon_Vicon_LASI_Y,vicon_Vicon_LASI_Z,vicon_Vicon_RASI_X,vicon_Vicon_RASI_Y,vicon_Vicon_RASI_Z,vicon_Vicon_LPSI_X,vicon_Vicon_LPSI_Y,vicon_Vicon_LPSI_Z,vicon_Vicon_RPSI_X,vicon_Vicon_RPSI_Y,vicon_Vicon_RPSI_Z,vicon_Vicon_LTHI_X,vicon_Vicon_LTHI_Y,vicon_Vicon_LTHI_Z,vicon_Vicon_LKNE_X,vicon_Vicon_LKNE_Y,vicon_Vicon_LKNE_Z,vicon_Vicon_LTIB_X,vicon_Vicon_LTIB_Y,vicon_Vicon_LTIB_Z,vicon_Vicon_LANK_X,vicon_Vicon_LANK_Y,vicon_Vicon_LANK_Z,vicon_Vicon_LHEE_X,vicon_Vicon_LHEE_Y,vicon_Vicon_LHEE_Z,vicon_Vicon_LTOE_X,vicon_Vicon_LTOE_Y,vicon_Vicon_LTOE_Z,vicon_Vicon_RTHI_X,vicon_Vicon_RTHI_Y,vicon_Vicon_RTHI_Z,vicon_Vicon_RKNE_X,vicon_Vicon_RKNE_Y,vicon_Vicon_RKNE_Z,vicon_Vicon_RTIB_X,vicon_Vicon_RTIB_Y,vicon_Vicon_RTIB_Z,vicon_Vicon_RANK_X,vicon_Vicon_RANK_Y,vicon_Vicon_RANK_Z,vicon_Vicon_RHEE_X,vicon_Vicon_RHEE_Y,vicon_Vicon_RHEE_Z,vicon_Vicon_RTOE_X,vicon_Vicon_RTOE_Y,vicon_Vicon_RTOE_Z,left_pct_stance,left_pct_swing,right_pct_stance,right_pct_swing,step_frequency,step_length,left_step_length,right_step_length,left_stride_length,right_stride_length,left_step_speed,right_step_speed,step_width,cycle_time,phase_label
1777556374.097,6.701629629629636,25.605074074074068,74.042074,-4.52663,1.1579259259259231,22.854704,1.335778,82.902832,-17.333984,-0.301772,0.197754,-49.865723,5.494175,-32.4646,20.507812,0.407153,83.446655,-146.057129,0.766406,9.624023,-178.100586,4.569697,-17.243042,-28.320312,-6.485713,151.567383,-204.223633,2.236948,-7.734375,-97.53418,1.911226,-95.020752,-57.495117,-7.831714,58.656006,-246.826172,-1.853745,-4.971313,-22.583008,-1.125659,-83.457642,-18.310547,16.516055,104.60083,176.513672,-0.320933,-9.744873,-179.931641,8.444839,-9.821777,22.033691,-1.312471,100.799561,35.583496,2.562671,-4.746094,138.61084,9.048384,-128.364258,-1.586914,-6.322852,9.234009,11.291504,0.263452,-2.70813,-5.79834,0.723296,-103.969116,0.610352,9.268726,0,7944,38919,46083,30723,0,0,60164,24326,2817,14338,0,0,0,0,0,0,0,0,0,23824,33044,17926,0,0,0,15381,36370,12550,0,0,0,28682,31236,8448,0,659,49089,independent_20260430_213930,trial_001,subject_001,1777556374.101436,279165.7109163,2502987,1,0,0,1,37.0220438864005,553.1314741395954,814.5595446947023,123.70822812631776,540.2353136798532,807.3899795652027,27.68530530285061,329.14929426965017,862.844402561005,87.6421871864809,321.1254949623328,859.5235289616785,-111.88682858413831,550.5934052920463,698.393512040857,-93.654132672024,647.6215845354221,423.7381367889305,-104.6822257459684,670.575635618718,279.76126520403,-46.78728060562327,743.950259372779,84.44996040756803,10.944092130979543,717.2437257772974,30.13458883270513,-16.73473221294991,955.1301331871332,145.38878439498265,227.51399653322568,410.8076640157952,658.3163784765826,177.83380988313866,298.1564914995364,388.666226994414,191.7806567855981,193.0500700608768,290.7024956256657,115.26713071609318,70.85304635704503,104.38833086851776,57.83898679337817,-4.458483905184618,81.34126921764627,101.59447400081376,251.90463815009664,48.813664729721154,59.42048455470936,40.579515445290646,62.621894693668246,37.37810530633176,113.20945891682004,72.48306658707135,72.7959122058945,72.1702209682482,144.9661331741427,144.9661331741427,1.3676281248256978,1.3676281248256978,22.334437898962367,1.0599820999777876,2
1777556374.113,6.701629629629636,28.91807407407407,74.042074,-4.52663,-5.175074074074075,22.854704,1.626778,82.902832,-17.333984,-0.301772,0.197754,-49.865723,5.494175,-32.4646,20.507812,0.407153,80.134277,-129.943848,1.077759,9.239502,-188.720703,2.49561,-21.011353,0.244141,-5.623506,151.567383,-204.223633,2.236948,-7.734375,-97.53418,1.911226,-95.020752,-57.495117,-7.831714,58.656006,-246.826172,-1.853745,-4.971313,-22.583008,-1.125659,-83.457642,-18.310547,16.516055,110.934448,143.188477,2.816543,-8.173828,-158.081055,8.186177,-15.507202,1.586914,-1.159189,100.799561,35.583496,2.562671,-4.746094,138.61084,9.048384,-128.364258,-1.586914,-6.322852,9.525146,8.056641,0.129331,-2.872925,-5.737305,1.015488,-103.963623,1.220703,9.77168,0,7944,38919,46083,30723,0,0,60164,24326,2817,14338,0,0,0,0,0,0,0,0,0,23824,33044,17926,0,0,0,15381,36370,12550,0,0,0,28682,31236,8448,0,659,49089,independent_20260430_213930,trial_001,subject_001,1777556374.1109474,279165.720529,2502988,1,0,0,1,37.301756120384894,555.3591521366825,812.9363391780232,123.86843900249482,541.7788724458721,805.5040218720173,26.18825388046816,331.70407015764204,861.9550389940061,86.06478102403511,323.2286751384543,858.6634787278933,-111.56302315215262,553.1038362577623,696.3978395193135,-92.14508503427422,648.6276704453398,421.0354093091642,-102.77991102117228,668.4909063538885,276.54439703008813,-46.210423909000696,736.4435450976625,82.83781695415101,12.206704019810546,707.4915130864265,30.30842796353651,-12.715825365289083,950.0420484067956,137.99584908654728,226.75566590148864,410.4195943052866,656.846184176674,177.81068386215043,296.89320366658177,387.91011334578656,191.91517650950013,188.5672885979345,292.590983792534,116.23500231622806,60.21867136452671,109.7406512052414,58.12375538749784,-16.763541193280073,90.52242981003292,101.24372409832456,237.89421061630216,48.411615629896346,59.42048455470936,40.579515445290646,62.621894693668246,37.37810530633176,113.20945891682004,72.48306658707135,72.7959122058945,72.1702209682482,144.9661331741427,144.9661331741427,1.3676281248256978,1.3676281248256978,22.334437898962367,1.0599820999777876,2
1777556374.131,6.701629629629636,28.91807407407407,74.042074,-4.52663,-5.175074074074075,22.854704,1.626778,82.902832,-17.333984,-0.301772,0.197754,-49.865723,5.494175,-32.4646,20.507812,0.407153,80.134277,-129.943848,1.077759,9.239502,-188.720703,2.49561,-21.011353,0.244141,-5.623506,151.567383,-204.223633,2.236948,-7.734375,-97.53418,1.911226,-95.020752,-57.495117,-7.831714,58.656006,-246.826172,-1.853745,-4.971313,-22.583008,-1.125659,-83.457642,-18.310547,16.516055,110.934448,143.188477,2.816543,-8.173828,-158.081055,8.186177,-15.507202,1.586914,-1.159189,100.799561,35.583496,2.562671,-4.746094,138.61084,9.048384,-128.364258,-1.586914,-6.322852,9.525146,8.056641,0.129331,-2.872925,-5.737305,1.015488,-103.963623,1.220703,9.77168,0,7944,38919,46083,30723,0,0,60164,24326,2817,14338,0,0,0,0,0,0,0,0,0,62474,53259,35841,0,0,0,21521,40970,514,0,0,0,46599,50180,59906,0,659,49090,independent_20260430_213930,trial_001,subject_001,1777556374.1309476,279165.740652,2502990,1,0,0,1,37.41282213226419,560.6372676472535,809.9860509247543,123.73288322417362,546.0181257486196,802.2821609970022,22.863384645267185,337.6737360057738,860.4208343671305,82.71278893660204,328.4815192228429,856.9064289676601,-110.75742887652478,559.0466896886062,692.4605177114917,-88.49645506416131,650.9837509376332,415.50587151052827,-99.08777225650692,662.0244496358515,270.39425768647425,-45.31166210459254,717.3177779227807,76.57773471760213,11.174777917449047,682.5905028143782,30.82874049688712,-3.952696937993053,934.7550102265528,128.78294998089552,224.9711314836786,411.6848719669997,653.6847684968016,177.64218181342474,297.4178525756781,384.3076603047865,192.42039905081245,182.07712492924668,296.9332759625893,118.05903224836632,41.46959099588258,121.8760844881386,59.46928847298109,-38.08568508580549,100.76994370376605,100.7085158141102,210.49320006243715,48.0283092348993,59.42048455470936,40.579515445290646,62.621894693668246,37.37810530633176,113.20945891682004,72.48306658707135,72.7959122058945,72.1702209682482,144.9661331741427,144.9661331741427,1.3676281248256978,1.3676281248256978,22.334437898962367,1.0599820999777876,2
1777556374.142,6.701629629629636,28.91807407407407,74.042074,-4.52663,-5.175074074074075,22.854704,1.626778,82.902832,-17.333984,-0.301772,0.197754,-49.865723,5.494175,-32.4646,20.507812,0.407153,80.134277,-129.943848,1.077759,9.239502,-188.720703,2.49561,-21.011353,0.244141,-5.623506,151.567383,-204.223633,2.236948,-7.734375,-97.53418,1.911226,-95.020752,-57.495117,-7.831714,58.656006,-246.826172,-1.853745,-4.971313,-22.583008,-1.125659,-83.457642,-18.310547,16.516055,110.934448,143.188477,2.816543,-8.173828,-158.081055,8.186177,-15.507202,1.586914,-1.159189,100.799561,35.583496,2.562671,-4.746094,138.61084,9.048384,-128.364258,-1.586914,-6.322852,9.525146,8.056641,0.129331,-2.872925,-5.737305,1.015488,-103.963623,1.220703,9.77168,0,7944,38919,46083,30723,0,0,60164,24326,2817,14338,0,0,0,0,0,0,0,0,0,12552,3844,0,0,0,0,7438,60163,0,0,14336,0,6149,27909,46853,0,659,49091,independent_20260430_213930,trial_001,subject_001,1777556374.141947,279165.7510455,2502991,1,0,0,1,37.15589641107535,563.5853799929728,808.687572016816,123.39543454970767,548.5319122019589,800.850127469401,21.142801392425675,340.7298897322356,859.8640743651692,81.1791919481147,331.3285222432799,856.2144167546868,-109.7122209704584,562.414933713911,690.5705318134957,-87.04575871128124,651.8933838824258,413.1945549936556,-97.37643393255924,658.5869415520892,268.3154103788143,-44.46718625282965,708.1084779519182,75.02729828844372,10.771501489724589,670.4488421962194,31.68094893252578,-2.0535369055435497,927.3578545313572,118.23455966508786,223.9102767844589,413.4763498542792,651.861904234534,178.43703882981146,299.06536367828403,382.2255548882691,192.88108158319773,180.51064083620213,299.28280262059496,119.1639733210979,33.685625460636444,128.69611749869088,60.3780580040128,-46.8668802895084,111.63018817904964,100.45638864121256,196.80686454791064,47.67835745551155,59.42048455470936,40.579515445290646,62.621894693668246,37.37810530633176,113.20945891682004,72.48306658707135,72.7959122058945,72.1702209682482,144.9661331741427,144.9661331741427,1.3676281248256978,1.3676281248256978,22.334437898962367,1.0599820999777876,2
1777556374.15,6.701629629629636,28.91807407407407,74.042074,-4.52663,-5.175074074074075,22.854704,1.626778,82.902832,-17.333984,-0.301772,0.197754,-49.865723,5.494175,-32.4646,20.507812,0.407153,80.134277,-129.943848,1.077759,9.239502,-188.720703,2.49561,-21.011353,0.244141,-5.623506,151.567383,-204.223633,2.236948,-7.734375,-97.53418,1.911226,-95.020752,-57.495117,-7.831714,58.656006,-246.826172,-1.853745,-4.971313,-22.583008,-1.125659,-83.457642,-18.310547,16.516055,110.934448,143.188477,2.816543,-8.173828,-158.081055,8.186177,-15.507202,1.586914,-1.159189,100.799561,35.583496,2.562671,-4.746094,138.61084,9.048384,-128.364258,-1.586914,-6.322852,9.525146,8.056641,0.129331,-2.872925,-5.737305,1.015488,-103.963623,1.220703,9.77168,0,7944,38919,46083,30723,0,0,60164,24326,2817,14338,0,0,0,0,0,0,0,0,0,12552,3844,0,0,0,0,7438,60163,0,0,14336,0,6149,27909,46853,0,659,49091,independent_20260430_213930,trial_001,subject_001,1777556374.150948,279165.7607986,2502992,1,0,0,1,36.64736443478012,566.6203665258065,807.5706015045691,122.72442104711594,550.9849137418536,799.5906843392947,19.6338834616119,343.710959395877,859.6486983057696,79.57767221804322,334.06061864734033,855.3485345681178,-108.28308849297184,565.7539878780367,689.6679059687632,-86.4098713145902,652.4608668039835,412.2395481861118,-95.87578327157044,656.6711914577847,267.79132443744624,-45.03083854628249,699.5894899163778,75.2810569003469,10.343823227494468,658.6042714959364,32.58646892264582,-3.6041663539942057,920.3509269637768,107.85924320074164,222.7892165711936,416.1285327245189,649.9078093217978,179.81726850727426,302.3882625891408,380.1433104932679,193.4125810603494,180.2837336665252,301.51981006094,120.74981326847823,27.53783127999677,136.11761611343996,61.76483386750827,-53.897270276406445,124.61532365764876,100.08573620257329,183.157501129224,46.83805811983056,59.42048455470936,40.579515445290646,62.621894693668246,37.37810530633176,113.20945891682004,72.48306658707135,72.7959122058945,72.1702209682482,144.9661331741427,144.9661331741427,1.3676281248256978,1.3676281248256978,22.334437898962367,1.0599820999777876,2
1777556374.156,6.190629629629626,31.033074074074065,74.042074,-34.94763,-5.175074074074075,4.332704,1.626778,82.391968,2.197266,1.844165,-1.999512,-72.631836,5.858218,-37.545776,11.108398,-0.440684,78.019409,-109.25293,1.556763,8.497925,-186.950684,1.772314,-23.763428,17.272949,-4.703818,151.567383,-204.223633,2.236948,-7.734375,-97.53418,1.911226,-95.020752,-57.495117,-7.831714,21.813354,-389.343262,1.470542,-3.850708,24.902344,5.240303,-84.627686,10.620117,11.649375,110.934448,143.188477,2.816543,-8.173828,-158.081055,8.186177,-15.507202,1.586914,-1.159189,104.452515,38.146973,-0.402363,-5.614014,-8.789062,8.938213,-133.604736,6.286621,-0.617915,9.525146,8.056641,0.129331,-2.872925,-5.737305,1.015488,-103.963623,1.220703,9.77168,0,7944,38919,46083,30723,0,0,60164,24326,2817,14338,0,0,0,0,0,0,0,0,0,12552,3844,0,0,0,0,7438,60163,0,0,14336,0,6149,27909,46853,0,659,49091,independent_20260430_213930,trial_001,subject_001,1777556374.150948,279165.7607986,2502992,1,0,0,1,36.64736443478012,566.6203665258065,807.5706015045691,122.72442104711594,550.9849137418536,799.5906843392947,19.6338834616119,343.710959395877,859.6486983057696,79.57767221804322,334.06061864734033,855.3485345681178,-108.28308849297184,565.7539878780367,689.6679059687632,-86.4098713145902,652.4608668039835,412.2395481861118,-95.87578327157044,656.6711914577847,267.79132443744624,-45.03083854628249,699.5894899163778,75.2810569003469,10.343823227494468,658.6042714959364,33.685221657250615,-3.6041663539942057,920.3509269637768,97.58434288282282,222.7892165711936,416.1285327245189,649.9078093217978,179.81726850727426,302.3882625891408,380.1433104932679,193.4125810603494,180.2837336665252,301.51981006094,120.74981326847823,27.53783127999677,136.11761611343996,61.76483386750827,-53.897270276406445,139.40319635130538,100.08573620257329,183.157501129224,45.398410184745856,59.42048455470936,40.579515445290646,62.621894693668246,37.37810530633176,113.20945891682004,72.48306658707135,72.7959122058945,72.1702209682482,144.9661331741427,144.9661331741427,1.3676281248256978,1.3676281248256978,22.334437898962367,1.0599820999777876,2
1777556374.166,6.300629629629626,31.033074074074065,57.536074,-34.94763,-12.009074074074078,5.315704,-2.377222,82.501831,3.78418,1.595083,-2.318115,-49.316406,6.998247,-38.655396,8.361816,-0.277822,78.019409,-109.25293,1.556763,8.497925,-186.950684,1.772314,-23.763428,17.272949,-4.703818,121.311035,-370.849609,2.49561,2.285156,-31.066895,5.230723,-93.532104,-97.229004,-6.12646,21.813354,-389.343262,1.470542,-3.850708,24.902344,5.240303,-84.627686,10.620117,11.649375,117.767944,101.44043,2.136357,-4.44397,-130.249023,9.469907,-22.049561,-15.991211,-0.119751,105.435791,47.973633,-1.111289,-5.641479,-57.250977,8.808882,-134.56604,16.845703,-0.153281,10.15686,14.953613,0.953218,-3.098145,-0.854492,0.622705,-104.111938,-4.150391,10.499766,0,7944,38919,46083,30723,0,0,60164,24326,2817,14338,0,0,0,0,0,0,0,0,0,12552,3844,0,0,0,0,7438,60163,0,0,14336,0,6149,27909,46853,0,659,49091,independent_20260430_213930,trial_001,subject_001,1777556374.1614609,279165.7707359,2502993,1,0,0,1,35.8821899087823,569.5348608588534,806.836507614431,121.78015905674386,553.3431373470427,798.7005329957747,18.516083581046544,346.12171721200394,859.6493507867114,78.51072524426571,336.425156518023,854.6303488450966,-107.44229633595326,568.8764038346727,690.4289310057538,-86.74416858134596,653.4588447524162,413.15731772636354,-95.38081270574874,655.9005337266117,268.6039749092534,-46.57056991441428,691.1031540783846,75.53294050969104,9.105375868194722,646.1786293368199,34.926586896457415,-5.738232832986995,912.0108627683242,87.94092350875981,221.48369299376708,419.7550516951776,647.9671265222554,180.5372853479878,307.3068603911442,377.113091432026,194.2055258251968,182.093360358218,304.1489440034122,122.5411865766028,23.280984053864056,143.95162377960804,64.07209504696922,-58.73646442303196,155.6736544123189,99.56768807108884,169.80436840795718,43.61694900423902,59.42048455470936,40.579515445290646,62.621894693668246,37.37810530633176,113.20945891682004,72.48306658707135,72.7959122058945,72.1702209682482,144.9661331741427,144.9661331741427,1.3676281248256978,1.3676281248256978,22.334437898962367,1.0599820999777876,2
1777556374.176,6.300629629629626,31.033074074074065,57.536074,-34.94763,-12.009074074074078,5.315704,-2.377222,82.501831,3.78418,1.595083,-2.318115,-49.316406,6.998247,-38.655396,8.361816,-0.277822,78.019409,-109.25293,1.556763,8.497925,-186.950684,1.772314,-23.763428,17.272949,-4.703818,121.311035,-370.849609,2.49561,2.285156,-31.066895,5.230723,-93.532104,-97.229004,-6.12646,21.813354,-389.343262,1.470542,-3.850708,24.902344,5.240303,-84.627686,10.620117,11.649375,117.767944,101.44043,2.136357,-4.44397,-130.249023,9.469907,-22.049561,-15.991211,-0.119751,105.435791,47.973633,-1.111289,-5.641479,-57.250977,8.808882,-134.56604,16.845703,-0.153281,10.15686,14.953613,0.953218,-3.098145,-0.854492,0.622705,-104.111938,-4.150391,10.499766,0,7944,38919,46083,30723,0,0,60164,24326,2817,14338,0,0,0,0,0,0,0,0,0,12552,3844,0,0,0,0,7438,60163,0,0,14336,0,6149,27909,46853,0,659,49091,independent_20260430_213930,trial_001,subject_001,1777556374.17152,279165.7806302,2502994,1,0,0,1,34.73667543673184,572.0313513571025,806.8753827002964,120.62943108515113,555.5527221046905,798.3323660178849,17.844940544922615,348.2034457857484,859.977436684233,78.05294493737043,338.4870966335137,853.997862348816,-106.965470287518,571.6739478059465,692.3923858802826,-87.2175854910179,655.5558790986832,414.8278221044102,-97.28732765576764,655.3384574922243,270.121234876183,-48.07245022735335,681.202780354215,74.87774673053949,7.341550751408173,633.3755300160428,36.23037539503131,-6.548587433289694,902.027696555553,79.38535215393111,220.23483361014303,424.1557403844619,645.9553955156408,181.63038621930835,314.60413628869816,373.7784667832816,195.3560098799317,186.1010694715423,306.4757502236893,124.67303263913035,20.996990044678704,152.6949590089235,66.3997878113163,-60.68727698174655,172.99176893652026,99.31392007794976,157.8298850823321,41.74566342473861,59.42048455470936,40.579515445290646,62.621894693668246,37.37810530633176,113.20945891682004,72.48306658707135,72.7959122058945,72.1702209682482,144.9661331741427,144.9661331741427,1.3676281248256978,1.3676281248256978,22.334437898962367,1.0599820999777876,2
1777556374.192,6.322629629629631,34.71307407407407,47.269074,-16.69363,-12.009074074074078,0.420704,-2.377222,82.523804,-5.432129,1.494492,-2.658691,-36.560059,8.190967,-39.781494,5.981445,1.25499,74.338989,-26.550293,2.821333,5.696411,-78.125,2.950664,-30.272827,12.573242,-4.382886,107.363892,-407.470703,-0.306563,6.355591,-35.644531,8.684341,-93.603516,-102.966309,-10.835068,9.810791,-304.321289,2.46687,-2.477417,71.899414,5.034331,-83.441162,33.935547,12.909155,117.767944,101.44043,2.136357,-4.44397,-130.249023,9.469907,-22.049561,-15.991211,-0.119751,107.374878,63.110352,3.563789,-5.641479,-27.22168,9.345366,-136.164551,11.047363,-0.555645,10.15686,14.953613,0.953218,-3.098145,-0.854492,0.622705,-104.111938,-4.150391,10.499766,0,7944,38919,46083,30723,0,0,60164,24326,2817,14338,0,0,0,0,0,0,0,26880,0,56838,6400,0,0,35328,0,48140,36352,0,0,54787,0,48643,7943,43273,0,659,49092,independent_20260430_213930,trial_001,subject_001,1777556374.190802,279165.8005906,2502996,1,0,0,1,31.757544666501715,575.8329715086363,809.5923919720723,117.32380489087872,559.7513269447843,799.1436022765012,18.17380285386085,350.384401465038,860.6300762640952,78.25623087259551,341.5877631905076,852.4877681844238,-107.84302212773994,575.3567767632086,697.663021880653,-88.50388610708484,659.2079396041597,417.6002344620501,-104.50099402886984,651.8637138557666,271.7433194404567,-51.195481191484426,658.1379186253455,74.15650383215319,4.4892975461052425,605.7290052660409,37.47224311198756,-8.862162182609117,875.6654974069983,72.28991094381077,217.88125216891683,434.20027836378495,642.0755336795252,184.1609805003952,333.8213163155775,366.5687176153429,197.9536238640144,200.3184299544345,310.1442104845443,128.5523629942504,22.19660060733317,172.21091250722242,71.84631633577644,-54.9193689382474,190.86405766789352,99.9050345005307,138.73179587473862,40.09329987572557,59.42048455470936,40.579515445290646,62.621894693668246,37.37810530633176,113.20945891682004,72.48306658707135,72.7959122058945,72.1702209682482,144.9661331741427,144.9661331741427,1.3676281248256978,1.3676281248256978,22.334437898962367,1.0599820999777876,2
1777556374.197,6.322629629629631,34.71307407407407,47.269074,-16.69363,-12.009074074074078,0.420704,-2.377222,82.523804,-5.432129,1.494492,-2.658691,-36.560059,8.190967,-39.781494,5.981445,1.25499,74.338989,-26.550293,2.821333,5.696411,-78.125,2.950664,-30.272827,12.573242,-4.382886,107.363892,-407.470703,-0.306563,6.355591,-35.644531,8.684341,-93.603516,-102.966309,-10.835068,9.810791,-304.321289,2.46687,-2.477417,71.899414,5.034331,-83.441162,33.935547,12.909155,117.767944,101.44043,2.136357,-4.44397,-130.249023,9.469907,-22.049561,-15.991211,-0.119751,107.374878,63.110352,3.563789,-5.641479,-27.22168,9.345366,-136.164551,11.047363,-0.555645,10.15686,14.953613,0.953218,-3.098145,-0.854492,0.622705,-104.111938,-4.150391,10.499766,0,7944,38919,46083,30723,0,0,60164,24326,2817,14338,0,0,0,0,0,0,0,26880,0,56838,6400,0,0,35328,0,48140,36352,0,0,54787,0,48643,7943,43273,0,659,49092,independent_20260430_213930,trial_001,subject_001,1777556374.2008,279165.8108296,2502997,1,0,0,1,29.753272817134658,577.1320974694486,811.6341263369152,115.1845766752636,561.4806338567168,800.206211949527,18.610054726626814,350.9017137285645,860.984512877729,78.75965703041356,342.4012727337045,851.9574633608,-108.9380336250052,576.1795373276022,700.0352347966893,-89.16722436894952,659.7677144952595,418.1578131082174,-106.40968721906376,647.295143278495,272.4728056480507,-52.50229710698771,645.279629303832,74.17156779883415,3.112230563366879,591.4943585482979,38.505990484427855,-10.743489015914808,861.5239738580551,66.90126800643895,217.0332545248829,439.9055723694064,640.7146038328771,185.0327122448288,345.4942076592141,363.2921393388975,199.08266170814355,210.1752101985188,311.768934736399,130.62189161045598,25.976866357463148,183.0771129743837,74.60481290532533,-46.99461719669958,208.67785471221023,100.56752458429985,131.84998865894838,38.93255354329098,59.42048455470936,40.579515445290646,62.621894693668246,37.37810530633176,113.20945891682004,72.48306658707135,72.7959122058945,72.1702209682482,144.9661331741427,144.9661331741427,1.3676281248256978,1.3676281248256978,22.334437898962367,1.0599820999777876,2
1777556374.209,6.322629629629631,34.75707407407407,47.269074,-12.26663,-15.31607407407408,-0.222296,-3.767222,82.523804,-5.432129,1.494492,-2.658691,-36.560059,8.190967,-39.781494,5.981445,1.25499,74.295044,11.047363,2.835703,6.146851,39.306641,3.961362,-30.223389,-21.362305,-1.786685,107.363892,-407.470703,-0.306563,6.355591,-35.644531,8.684341,-93.603516,-102.966309,-10.835068,0.291138,-329.589844,-3.017725,-0.488892,65.979004,12.430151,-82.562256,11.779785,27.389443,121.074829,84.04541,2.869233,-2.279663,-73.913574,9.115444,-24.741211,-15.74707,-0.828677,110.039062,81.481934,-0.713716,-5.723877,-21.850586,8.871152,-136.708374,8.422852,0.03832,10.706177,19.65332,-0.119751,-3.169556,-3.723145,0.967588,-104.298706,-5.249023,9.091494,0,7944,38919,46083,30723,0,0,60164,24326,2817,14338,0,0,0,0,0,0,0,26880,0,56838,6400,0,0,35328,0,48140,36352,0,0,54787,0,48643,7943,43273,0,659,49092,independent_20260430_213930,trial_001,subject_001,1777556374.2113123,279165.8208397,2502998,1,0,0,1,27.433651372648487,578.0444881755172,813.920835900183,112.88535527068598,562.772053949702,801.6617351444153,19.0622031374851,351.2506984179549,861.5291568586147,79.14104977949958,342.8540999180025,851.4433267615317,-110.16589664058856,576.5307546562349,702.1167019628773,-90.29228830238964,658.418401691171,418.0524632545319,-108.1264018425928,641.1483477554264,273.0148011710899,-53.24951503311786,632.109017761447,73.5441710821958,1.9016571071835369,577.4665153399751,39.26725113848917,-12.758635488585847,847.467114130643,63.35419293236879,216.4457384758553,446.0422696151408,639.8760616987818,185.7045755971426,358.2705922768924,360.49961435239726,199.92955739020863,221.3596753585801,313.88317092425854,132.55805809116023,31.45159239243878,194.6438067067715,77.7078737996645,-36.37835705488583,225.531939925154,101.69168811414087,126.3417730714939,38.36513178094639,59.42048455470936,40.579515445290646,62.621894693668246,37.37810530633176,113.20945891682004,72.48306658707135,72.7959122058945,72.1702209682482,144.9661331741427,144.9661331741427,1.3676281248256978,1.3676281248256978,22.334437898962367,1.0599820999777876,2
1777556374.216,6.322629629629631,34.75707407407407,47.269074,-12.26663,-15.31607407407408,-0.222296,-3.767222,82.523804,-5.432129,1.494492,-2.658691,-36.560059,8.190967,-39.781494,5.981445,1.25499,74.295044,11.047363,2.835703,6.146851,39.306641,3.961362,-30.223389,-21.362305,-1.786685,107.363892,-407.470703,-0.306563,6.355591,-35.644531,8.684341,-93.603516,-102.966309,-10.835068,0.291138,-329.589844,-3.017725,-0.488892,65.979004,12.430151,-82.562256,11.779785,27.389443,121.074829,84.04541,2.869233,-2.279663,-73.913574,9.115444,-24.741211,-15.74707,-0.828677,110.039062,81.481934,-0.713716,-5.723877,-21.850586,8.871152,-136.708374,8.422852,0.03832,10.706177,19.65332,-0.119751,-3.169556,-3.723145,0.967588,-104.298706,-5.249023,9.091494,0,7944,38919,46083,30723,0,0,60164,24326,2817,14338,0,0,0,0,0,0,0,26880,0,56838,6400,0,0,35328,0,48140,36352,0,0,54787,0,48643,7943,43273,0,659,49092,independent_20260430_213930,trial_001,subject_001,1777556374.2113123,279165.8208397,2502998,1,0,0,1,27.433651372648487,578.0444881755172,813.920835900183,112.88535527068598,562.772053949702,801.6617351444153,19.0622031374851,351.2506984179549,861.5291568586147,79.14104977949958,342.8540999180025,851.4433267615317,-110.16589664058856,576.5307546562349,702.1167019628773,-90.29228830238964,658.418401691171,418.0524632545319,-108.1264018425928,641.1483477554264,273.0148011710899,-53.24951503311786,632.109017761447,73.5441710821958,1.9016571071835369,577.4665153399751,39.820903274002106,-12.758635488585847,847.467114130643,61.55122571482924,216.4457384758553,446.0422696151408,639.8760616987818,185.7045755971426,358.2705922768924,360.49961435239726,199.92955739020863,221.3596753585801,313.88317092425854,132.55805809116023,31.45159239243878,194.6438067067715,77.7078737996645,-36.37835705488583,241.67868229656963,101.69168811414087,126.3417730714939,38.3302316257056,59.42048455470936,40.579515445290646,62.621894693668246,37.37810530633176,113.20945891682004,72.48306658707135,72.7959122058945,72.1702209682482,144.9661331741427,144.9661331741427,1.3676281248256978,1.3676281248256978,22.334437898962367,1.0599820999777876,2
1777556374.226,6.322629629629631,34.75707407407407,47.269074,-12.26663,-15.31607407407408,-0.222296,-3.767222,82.523804,-5.432129,1.494492,-2.658691,-36.560059,8.190967,-39.781494,5.981445,1.25499,74.295044,11.047363,2.835703,6.146851,39.306641,3.961362,-30.223389,-21.362305,-1.786685,107.363892,-407.470703,-0.306563,6.355591,-35.644531,8.684341,-93.603516,-102.966309,-10.835068,0.291138,-329.589844,-3.017725,-0.488892,65.979004,12.430151,-82.562256,11.779785,27.389443,121.074829,84.04541,2.869233,-2.279663,-73.913574,9.115444,-24.741211,-15.74707,-0.828677,110.039062,81.481934,-0.713716,-5.723877,-21.850586,8.871152,-136.708374,8.422852,0.03832,10.706177,19.65332,-0.119751,-3.169556,-3.723145,0.967588,-104.298706,-5.249023,9.091494,0,7944,38919,46083,30723,0,0,60164,24326,2817,14338,0,0,0,0,0,0,0,26880,0,56838,6400,0,0,35328,0,48140,36352,0,0,54787,0,48643,7943,43273,0,659,49092,independent_20260430_213930,trial_001,subject_001,1777556374.2213128,279165.8308784,2502999,1,0,0,1,25.37637668213336,578.4104854293678,815.9883274571702,110.7269464755967,563.6876604258714,803.3558977687619,19.062589822036088,351.4295501546151,862.1373555680341,79.2004913113108,343.2245840842064,851.2826567709311,-111.98478665311598,575.8996805401657,702.8862242846645,-91.9231844842198,654.5223440870716,417.4856572156161,-109.74601594718528,633.9826248243194,272.8729521259088,-54.57873334771877,619.4366588327387,73.80864084397298,0.8243154384577941,563.495060371345,40.1893438183639,-13.875929229400814,833.6609195762578,61.25964453501335,216.0372150673283,452.0821154825834,639.5497189698742,186.39207110833107,371.53796122654063,358.2088592687959,200.56984351465687,233.41089504617648,316.4624477546766,133.91814524632886,39.18807133491984,205.62834176335625,81.54749309345341,-20.45848863485224,256.08264767059245,102.94241264792964,119.26666899441976,38.84307882856514,59.42048455470936,40.579515445290646,62.621894693668246,37.37810530633176,113.20945891682004,72.48306658707135,72.7959122058945,72.1702209682482,144.9661331741427,144.9661331741427,1.3676281248256978,1.3676281248256978,22.334437898962367,1.0599820999777876,2
1777556374.243,6.322629629629631,34.75707407407407,47.269074,-12.26663,-15.31607407407408,-0.222296,-3.767222,82.523804,-5.432129,1.494492,-2.658691,-36.560059,8.190967,-39.781494,5.981445,1.25499,74.295044,11.047363,2.835703,6.146851,39.306641,3.961362,-30.223389,-21.362305,-1.786685,107.363892,-407.470703,-0.306563,6.355591,-35.644531,8.684341,-93.603516,-102.966309,-10.835068,0.291138,-329.589844,-3.017725,-0.488892,65.979004,12.430151,-82.562256,11.779785,27.389443,121.074829,84.04541,2.869233,-2.279663,-73.913574,9.115444,-24.741211,-15.74707,-0.828677,110.039062,81.481934,-0.713716,-5.723877,-21.850586,8.871152,-136.708374,8.422852,0.03832,10.706177,19.65332,-0.119751,-3.169556,-3.723145,0.967588,-104.298706,-5.249023,9.091494,0,7944,38919,46083,30723,0,0,60164,24326,2817,14338,0,0,0,0,0,0,0,26880,0,56838,6400,0,0,35328,0,48140,36352,0,0,54787,0,48643,7943,43273,0,659,49092,independent_20260430_213930,trial_001,subject_001,1777556374.24131,279165.8507704,2503001,1,0,0,1,21.894758258512244,578.2480049465611,819.91746749466,107.19815872217136,564.4322627789871,807.0898241173403,17.577605121463467,351.1233652055599,864.567469058357,77.61247898884498,343.16875516760746,852.4135217955785,-116.1108364002178,571.4819357851865,702.1126900984708,-95.50632953596698,639.6435936738526,415.335750976872,-111.83895408233252,616.6389706428453,270.98240526132935,-55.12860480747069,592.3753003024709,73.01355594914983,-0.6286871561708894,535.5747060171411,40.42240875824889,-15.278576547409331,805.6491376670982,60.82337087678379,215.3195659040757,461.8219405730193,640.9713987442701,188.319873011626,400.03334274537673,356.98064864467426,202.26322767037888,260.209817204739,322.4440196013712,135.31392906525076,60.45164232945256,224.7420653297061,88.23684898324397,28.37149170617085,269.85535928089325,106.21545885984672,104.27547881146324,39.86767245338514,59.42048455470936,40.579515445290646,62.621894693668246,37.37810530633176,113.20945891682004,72.48306658707135,72.7959122058945,72.1702209682482,144.9661331741427,144.9661331741427,1.3676281248256978,1.3676281248256978,22.334437898962367,1.0599820999777876,0
1777556374.252,6.322629629629631,34.75707407407407,47.269074,-12.26663,-15.31607407407408,-0.222296,-3.767222,82.523804,-5.432129,1.494492,-2.658691,-36.560059,8.190967,-39.781494,5.981445,1.25499,74.295044,11.047363,2.835703,6.146851,39.306641,3.961362,-30.223389,-21.362305,-1.786685,107.363892,-407.470703,-0.306563,6.355591,-35.644531,8.684341,-93.603516,-102.966309,-10.835068,0.291138,-329.589844,-3.017725,-0.488892,65.979004,12.430151,-82.562256,11.779785,27.389443,121.074829,84.04541,2.869233,-2.279663,-73.913574,9.115444,-24.741211,-15.74707,-0.828677,110.039062,81.481934,-0.713716,-5.723877,-21.850586,8.871152,-136.708374,8.422852,0.03832,10.706177,19.65332,-0.119751,-3.169556,-3.723145,0.967588,-104.298706,-5.249023,9.091494,0,7944,38919,46083,30723,0,0,60164,24326,2817,14338,0,0,0,0,0,0,0,26880,0,56838,6400,0,0,35328,0,48140,36352,0,0,54787,0,48643,7943,43273,0,659,49092,independent_20260430_213930,trial_001,subject_001,1777556374.2513115,279165.8605859,2503002,1,0,0,1,20.55683199579026,577.610960078082,821.8688542469889,105.85468496548556,564.1216283903603,809.1768022239473,16.142541634577977,350.7343912700354,866.6641111294222,76.34079855779434,342.7908455301017,853.944472153434,-117.79051446397096,567.9893711021082,702.2667725577458,-97.28275096459907,630.971453302976,414.3407378702132,-112.27062903285912,605.8302520956062,270.4110710646282,-57.0915836574508,578.7346818323218,73.90666405239752,-1.149637339883071,521.4718130147518,40.5512561371824,-16.04129620672887,791.7283382176664,60.61316398114984,214.5741585925216,465.4732380526162,642.6193830622562,189.52953434282145,414.6138603494478,357.883076541342,203.4123949083896,274.3055477361418,325.87490464385127,137.0441773506275,74.92472562559156,232.3097200934401,86.94816285871208,49.67115106870846,281.2927820253693,109.44861737843038,103.32609026452032,41.23473218358819,59.42048455470936,40.579515445290646,62.621894693668246,37.37810530633176,113.20945891682004,72.48306658707135,72.7959122058945,72.1702209682482,144.9661331741427,144.9661331741427,1.3676281248256978,1.3676281248256978,22.334437898962367,1.0599820999777876,0
1777556374.263,5.915629629629635,34.75707407407407,28.724074,-12.26663,-15.31607407407408,1.579704,-3.767222,82.11731,-11.59668,1.398691,-3.251953,-51.696777,9.153765,-42.253418,0.0,2.41418,74.295044,11.047363,2.835703,6.146851,39.306641,3.961362,-30.223389,-21.362305,-1.786685,88.775024,-317.504883,-0.02874,11.156616,-75.744629,10.447075,-95.471191,-80.505371,-10.514136,0.291138,-329.589844,-3.017725,-0.488892,65.979004,12.430151,-82.562256,11.779785,27.389443,121.074829,84.04541,2.869233,-2.279663,-73.913574,9.115444,-24.741211,-15.74707,-0.828677,111.84082,91.247559,1.403481,-5.734863,-9.338379,9.618398,-137.010498,3.845215,-0.287402,10.706177,19.65332,-0.119751,-3.169556,-3.723145,0.967588,-104.298706,-5.249023,9.091494,0,7944,38919,46083,30723,0,0,60164,24326,2817,14338,0,0,0,0,0,0,0,26880,0,56838,6400,0,0,35328,0,48140,36352,0,0,54787,0,48643,7943,43273,0,659,49092,independent_20260430_213930,trial_001,subject_001,1777556374.261312,279165.8710316,2503003,1,0,0,1,19.42164346793237,576.6485322702061,823.9286148518528,104.76787065298292,563.1081894482907,811.4911248973565,15.027501432721026,349.9226441723872,869.3819488330952,74.94745155689766,341.8374848460342,856.3401826373719,-119.40728880689409,564.0179523763397,702.9860573153043,-97.84782052397088,622.2571342792481,413.7890179202367,-112.52436161024193,593.6926782842194,270.6031455013116,-56.23937323087513,564.8616767898104,73.1864373780076,-1.840397903433516,507.4699548891231,40.71218472732174,-16.694225401722033,777.6592700336082,60.506610593867215,213.5868255108573,469.1892883616466,644.8754251829776,190.9638470288087,429.14302300616873,359.76856746409265,204.57490928991345,288.0912891407836,329.8708336285419,136.04866263997226,86.92427657175239,239.8603132205409,83.37487351341669,61.89085085932554,290.1565870528887,116.15849173980224,115.8391309636758,42.95530654475701,59.42048455470936,40.579515445290646,62.621894693668246,37.37810530633176,113.20945891682004,72.48306658707135,72.7959122058945,72.1702209682482,144.9661331741427,144.9661331741427,1.3676281248256978,1.3676281248256978,22.334437898962367,1.0599820999777876,0
1777556374.273,5.915629629629635,34.75707407407407,28.724074,-12.26663,-15.31607407407408,1.579704,-3.767222,82.11731,-11.59668,1.398691,-3.251953,-51.696777,9.153765,-42.253418,0.0,2.41418,74.295044,11.047363,2.835703,6.146851,39.306641,3.961362,-30.223389,-21.362305,-1.786685,88.775024,-317.504883,-0.02874,11.156616,-75.744629,10.447075,-95.471191,-80.505371,-10.514136,0.291138,-329.589844,-3.017725,-0.488892,65.979004,12.430151,-82.562256,11.779785,27.389443,121.074829,84.04541,2.869233,-2.279663,-73.913574,9.115444,-24.741211,-15.74707,-0.828677,111.84082,91.247559,1.403481,-5.734863,-9.338379,9.618398,-137.010498,3.845215,-0.287402,10.706177,19.65332,-0.119751,-3.169556,-3.723145,0.967588,-104.298706,-5.249023,9.091494,0,7944,38919,46083,30723,0,0,60164,24326,2817,14338,0,0,0,0,0,0,0,29187,0,8454,0,0,0,53507,0,55051,0,0,0,8968,0,38914,31752,14862,0,659,49093,independent_20260430_213930,trial_001,subject_001,1777556374.2708237,279165.8805743,2503004,1,0,0,1,17.86961730237673,574.5728970292432,826.4605007738612,104.36968572422045,561.0082144452783,814.2397490617998,13.898461523490994,348.84902713869724,872.4379112029667,73.93283279009606,340.7043087566083,859.1003783832816,-120.71937045747548,559.6375063286636,703.8318559659435,-98.25713722444183,612.8555294496153,413.9909881829912,-112.57989038857596,580.6758688225236,271.1828467170432,-57.21192172931274,550.6967171885086,74.11396271814722,-2.458017998771141,493.4688685532318,40.719297500193605,-17.477253135852603,763.665908070121,61.30584653147434,212.857972896535,472.96364505859873,647.8738781700443,192.2011943050027,443.1891766588316,362.6102831750151,205.4788122743292,301.39933218807926,334.70006508250486,136.34738589938425,99.67107069723794,243.83658532849424,80.15585457081922,71.98259476077777,295.0008364934896,122.90638018780687,135.6120241278285,44.96008194942486,59.42048455470936,40.579515445290646,62.621894693668246,37.37810530633176,113.20945891682004,72.48306658707135,72.7959122058945,72.1702209682482,144.9661331741427,144.9661331741427,1.3676281248256978,1.3676281248256978,22.334437898962367,1.0599820999777876,0
1777556374.277,5.751629629629633,34.75707407407407,24.357074,-12.26663,-20.58407407407408,1.579704,-3.767222,81.952515,-5.554199,1.848955,-3.301392,-47.607422,11.0123,-43.731079,-5.249023,3.041675,74.295044,11.047363,2.835703,6.146851,39.306641,3.961362,-30.223389,-21.362305,-1.786685,84.407959,-262.512207,-0.929268,12.123413,-68.237305,8.205337,-96.723633,-64.941406,-9.910591,0.291138,-329.589844,-3.017725,-0.488892,65.979004,12.430151,-82.562256,11.779785,27.389443,126.342773,67.504883,0.689766,-0.005493,-46.875,10.490186,-26.141968,-9.58252,-0.546064,111.84082,91.247559,1.403481,-5.734863,-9.338379,9.618398,-137.010498,3.845215,-0.287402,10.706177,19.65332,-0.119751,-3.169556,-3.723145,0.967588,-104.298706,-5.249023,9.091494,0,7944,38919,46083,30723,0,0,60164,24326,2817,14338,0,0,0,0,0,0,0,29187,0,8454,0,0,0,53507,0,55051,0,0,0,8968,0,38914,31752,14862,0,659,49093,independent_20260430_213930,trial_001,subject_001,1777556374.2813334,279165.8908702,2503005,1,0,0,1,16.761364582721182,573.0136060802595,828.8979974245218,103.3764590443836,559.643603018555,817.2423773016113,13.531584185147995,347.4454884172277,875.7975930414888,73.26938478413122,339.4127398675658,862.1041178864708,-121.66717334391524,554.9916500650986,704.7540297469654,-99.1905879536905,602.6182102611319,413.88341853685614,-112.35166390483587,567.0314578400265,271.8885822343969,-57.53273886958242,536.597308488964,74.53766835374401,-3.160109602548597,479.3868233496324,40.75341569263021,-18.18121961969669,749.752690327911,62.12817921889077,213.0215379770589,476.3623145110752,651.6623347284301,193.32993963522472,456.8213267788364,366.3487885293303,204.5041859447809,314.8633795073103,339.0115950639362,137.0414864634011,114.27637140394,245.5298780124056,77.2509162519268,82.69710405101553,296.41662063949207,128.3323178910339,160.00796723562544,47.18462623194199,59.42048455470936,40.579515445290646,62.621894693668246,37.37810530633176,113.20945891682004,72.48306658707135,72.7959122058945,72.1702209682482,144.9661331741427,144.9661331741427,1.3676281248256978,1.3676281248256978,22.334437898962367,1.0599820999777876,0
1777556374.288,5.751629629629633,34.32807407407407,24.357074,-14.54563,-20.58407407407408,3.814704,-3.767222,81.952515,-5.554199,1.848955,-3.301392,-47.607422,11.0123,-43.731079,-5.249023,3.041675,74.723511,27.648926,2.102827,5.559082,-42.297363,9.685459,-33.409424,-24.291992,12.760664,84.407959,-262.512207,-0.929268,12.123413,-68.237305,8.205337,-96.723633,-64.941406,-9.910591,-24.944458,-192.749023,4.823569,2.054443,-9.460449,26.709258,-86.297607,1.281738,-0.737666,126.342773,67.504883,0.689766,-0.005493,-46.875,10.490186,-26.141968,-9.58252,-0.546064,119.344482,136.047363,0.062271,-5.196533,-28.930664,12.032578,-137.669678,-7.446289,-1.22625,10.706177,19.65332,-0.119751,-3.169556,-3.723145,0.967588,-104.298706,-5.249023,9.091494,0,7944,38919,46083,30723,0,0,60164,24326,2817,14338,0,0,0,0,0,0,0,29187,0,8454,0,0,0,53507,0,55051,0,0,0,8968,0,38914,31752,14862,0,659,49093,independent_20260430_213930,trial_001,subject_001,1777556374.2913342,279165.9007064,2503006,1,0,0,1,15.415765596389033,571.8792830179545,831.7732929814559,102.39112520989246,558.313423601788,820.6221227114804,12.922884923917197,345.8723088954004,879.1754239704472,72.8767683748931,338.0562969898898,865.5711857239571,-122.28229588538224,550.5034604516044,705.9022017530839,-100.19885056105277,591.6905382621779,413.8960920162594,-112.56691461127237,553.5446202063783,272.726854157097,-57.95888321066752,522.4394893482203,75.01386108434089,-3.757821934684196,465.3475232451056,40.84902447878005,-18.875174953875625,735.7637225892242,62.73461515446975,213.5629166654892,479.3863481646167,655.8077621554539,194.07342357761087,470.5438666344844,370.8140695224786,203.9376367019053,328.826951092971,343.599353213148,136.62349616559618,129.786088212952,246.85671615999115,75.4773522234792,94.04640156852057,294.399441826126,133.5124342371975,184.7024186655134,49.550176404020505,59.42048455470936,40.579515445290646,62.621894693668246,37.37810530633176,113.20945891682004,72.48306658707135,72.7959122058945,72.1702209682482,144.9661331741427,144.9661331741427,1.3676281248256978,1.3676281248256978,22.334437898962367,1.0599820999777876,0
1777556374.297,5.751629629629633,34.32807407407407,24.357074,-14.54563,-20.58407407407408,3.814704,-3.767222,81.952515,-5.554199,1.848955,-3.301392,-47.607422,11.0123,-43.731079,-5.249023,3.041675,74.723511,27.648926,2.102827,5.559082,-42.297363,9.685459,-33.409424,-24.291992,12.760664,84.407959,-262.512207,-0.929268,12.123413,-68.237305,8.205337,-96.723633,-64.941406,-9.910591,-24.944458,-192.749023,4.823569,2.054443,-9.460449,26.709258,-86.297607,1.281738,-0.737666,126.342773,67.504883,0.689766,-0.005493,-46.875,10.490186,-26.141968,-9.58252,-0.546064,119.344482,136.047363,0.062271,-5.196533,-28.930664,12.032578,-137.669678,-7.446289,-1.22625,10.706177,19.65332,-0.119751,-3.169556,-3.723145,0.967588,-104.298706,-5.249023,9.091494,0,7944,38919,46083,30723,0,0,60164,24326,2817,14338,0,0,0,0,0,0,0,29187,0,8454,0,0,0,53507,0,55051,0,0,0,8968,0,38914,31752,14862,0,659,49093,independent_20260430_213930,trial_001,subject_001,1777556374.3013334,279165.9109219,2503007,1,0,0,1,14.396491186513682,569.7527109450057,834.5790078256256,101.35780626441132,557.0087624942003,824.3653908328854,12.947192085740868,344.0365824021275,882.5750024695662,73.01274424056315,336.45735129847174,869.0744478793488,-122.60860722712488,545.9134699914176,707.1375113840189,-101.1595421605188,580.2179121627739,414.1363952584289,-112.90508318100466,540.0979283297472,273.37267445515624,-58.296421852273234,508.4064200685774,75.54157121498494,-4.418343290596033,451.0718594409992,41.0449781437153,-19.611650260725177,721.6926138395651,62.97906734357926,214.10629536761604,482.6513301150081,660.5688916823602,194.64345674070216,484.5881148321253,375.9189158991087,204.4010051191081,342.9771603082365,347.79879725901964,136.1266842865743,145.6856376302733,246.59474769685767,74.43553144348768,107.51473794752046,290.84179915636844,138.4949322565429,208.39192498264805,51.76032482810585,59.42048455470936,40.579515445290646,62.621894693668246,37.37810530633176,113.20945891682004,72.48306658707135,72.7959122058945,72.1702209682482,144.9661331741427,144.9661331741427,1.3676281248256978,1.3676281248256978,22.334437898962367,1.0599820999777876,0
1777556374.306,5.751629629629633,34.32807407407407,24.357074,-14.54563,-20.58407407407408,3.814704,-3.767222,81.952515,-5.554199,1.848955,-3.301392,-47.607422,11.0123,-43.731079,-5.249023,3.041675,74.723511,27.648926,2.102827,5.559082,-42.297363,9.685459,-33.409424,-24.291992,12.760664,84.407959,-262.512207,-0.929268,12.123413,-68.237305,8.205337,-96.723633,-64.941406,-9.910591,-24.944458,-192.749023,4.823569,2.054443,-9.460449,26.709258,-86.297607,1.281738,-0.737666,126.342773,67.504883,0.689766,-0.005493,-46.875,10.490186,-26.141968,-9.58252,-0.546064,119.344482,136.047363,0.062271,-5.196533,-28.930664,12.032578,-137.669678,-7.446289,-1.22625,10.706177,19.65332,-0.119751,-3.169556,-3.723145,0.967588,-104.298706,-5.249023,9.091494,0,7944,38919,46083,30723,0,0,60164,24326,2817,14338,0,0,0,0,0,0,0,29187,0,8454,0,0,0,53507,0,55051,0,0,0,8968,0,38914,31752,14862,0,659,49093,independent_20260430_213930,trial_001,subject_001,1777556374.3013334,279165.9109219,2503007,1,0,0,1,14.396491186513682,569.7527109450057,834.5790078256256,101.35780626441132,557.0087624942003,824.3653908328854,12.947192085740868,344.0365824021275,882.5750024695662,73.01274424056315,336.45735129847174,869.0744478793488,-122.60860722712488,545.9134699914176,707.1375113840189,-101.1595421605188,580.2179121627739,414.1363952584289,-112.90508318100466,540.0979283297472,273.37267445515624,-58.296421852273234,508.4064200685774,75.54157121498494,-4.418343290596033,451.0718594409992,41.31493937786475,-19.611650260725177,721.6926138395651,63.19436287830674,214.10629536761604,482.6513301150081,660.5688916823602,194.64345674070216,484.5881148321253,375.9189158991087,204.4010051191081,342.9771603082365,347.79879725901964,136.1266842865743,145.6856376302733,246.59474769685767,74.43553144348768,107.51473794752046,285.01802264567635,138.4949322565429,208.39192498264805,53.70451993612868,59.42048455470936,40.579515445290646,62.621894693668246,37.37810530633176,113.20945891682004,72.48306658707135,72.7959122058945,72.1702209682482,144.9661331741427,144.9661331741427,1.3676281248256978,1.3676281248256978,22.334437898962367,1.0599820999777876,0
1777556374.322,5.871629629629624,33.32907407407407,17.968074,-7.43763,-20.58407407407408,6.006704,-3.767222,82.073364,5.615234,1.451382,-3.356323,-22.644043,12.2625,-44.901123,-3.295898,4.497847,75.723267,16.662598,-1.815425,6.992798,-2.441406,11.227852,-33.288574,-46.325684,6.945557,78.447876,36.376953,0.129331,14.353638,25.634766,1.801055,-97.849731,-24.902344,-5.192402,-23.796387,157.226562,-3.745811,-0.796509,-94.909668,52.517988,-85.182495,-30.639648,-7.165898,126.342773,67.504883,0.689766,-0.005493,-46.875,10.490186,-26.141968,-9.58252,-0.546064,121.536255,147.766113,0.421523,-4.86145,-23.742676,12.324771,-137.911377,-11.535645,-0.493374,10.706177,19.65332,-0.119751,-3.169556,-3.723145,0.967588,-104.298706,-5.249023,9.091494,0,7944,38919,46083,30723,0,0,60164,24326,2817,14338,0,0,0,0,0,0,0,29187,0,8454,0,0,0,53507,0,55051,0,0,0,8968,0,38914,31752,14862,0,659,49093,independent_20260430_213930,trial_001,subject_001,1777556374.321843,279165.9308394,2503009,1,0,0,1,12.094665879750249,566.0089155581154,840.8077554689177,99.42920361971888,554.4592890603325,832.8724495024879,13.445282201167531,340.37433190724005,889.129544105138,73.71625160198647,333.3925714634935,876.2964324132175,-123.67210230247642,537.0483786681748,709.3683253624183,-102.9205138579381,557.1716809763684,414.4169465986195,-114.56326683643093,514.6086704183922,274.2441958914931,-59.87050756157574,479.68753886292086,76.80695831444821,-5.588771093311668,422.3522322641785,41.63676133186286,-20.95666152654019,693.2396555366114,63.40697771568615,215.43009638083583,489.7059221395371,671.2356482277742,195.81860410293285,512.0352600193813,386.8065675330472,205.0885363500114,371.8625182811991,351.53860738768435,135.85124674228177,179.3484228973057,240.04428278416069,72.1037352370251,138.2415300239791,277.2425068039215,146.3945238865017,259.1001078324369,55.18431614553936,59.42048455470936,40.579515445290646,62.621894693668246,37.37810530633176,113.20945891682004,72.48306658707135,72.7959122058945,72.1702209682482,144.9661331741427,144.9661331741427,1.3676281248256978,1.3676281248256978,22.334437898962367,1.0599820999777876,0
1777556374.328,5.871629629629624,33.32907407407407,17.968074,-7.43763,-20.58407407407408,6.006704,-3.767222,82.073364,5.615234,1.451382,-3.356323,-22.644043,12.2625,-44.901123,-3.295898,4.497847,75.723267,16.662598,-1.815425,6.992798,-2.441406,11.227852,-33.288574,-46.325684,6.945557,78.447876,36.376953,0.129331,14.353638,25.634766,1.801055,-97.849731,-24.902344,-5.192402,-23.796387,157.226562,-3.745811,-0.796509,-94.909668,52.517988,-85.182495,-30.639648,-7.165898,126.342773,67.504883,0.689766,-0.005493,-46.875,10.490186,-26.141968,-9.58252,-0.546064,121.536255,147.766113,0.421523,-4.86145,-23.742676,12.324771,-137.911377,-11.535645,-0.493374,10.706177,19.65332,-0.119751,-3.169556,-3.723145,0.967588,-104.298706,-5.249023,9.091494,0,7944,38919,46083,30723,0,0,60164,24326,2817,14338,0,0,0,0,0,0,0,29187,0,8454,0,0,0,53507,0,55051,0,0,0,8968,0,38914,31752,14862,0,659,49093,independent_20260430_213930,trial_001,subject_001,1777556374.331843,279165.9408313,2503010,1,0,0,1,11.3498555342593,565.0454526466434,843.8955985079378,97.97567965035329,553.8063114532816,837.2285837418847,13.796824525281032,338.5411462556087,892.2653212602163,74.12583198749446,331.8897886172431,879.5348378261185,-123.2156141063638,531.404927447154,710.1985378851512,-103.2498617939183,545.7860928274374,414.4081015903645,-115.70710063597366,502.4981008032793,274.3904520329693,-60.57228050410527,465.2812779827101,77.19602825717428,-6.35394644637714,407.9633861662683,42.027183485992616,-21.653180367609227,678.7297920133874,63.62294375803155,216.26970918648303,493.542385377627,676.7995739068128,196.4386453266916,524.8823659705831,392.5118147157945,205.52942584868725,385.9002189446056,352.45728764020095,136.08167067865176,197.35213600684628,235.0623566568176,71.35990389190849,154.20478294885584,266.188692940482,149.5424186405212,286.13950713712734,56.313323122609006,59.42048455470936,40.579515445290646,62.621894693668246,37.37810530633176,113.20945891682004,72.48306658707135,72.7959122058945,72.1702209682482,144.9661331741427,144.9661331741427,1.3676281248256978,1.3676281248256978,22.334437898962367,1.0599820999777876,0
1777556374.35,5.871629629629624,33.32907407407407,17.968074,-7.43763,-20.58407407407408,6.006704,-3.767222,82.073364,5.615234,1.451382,-3.356323,-22.644043,12.2625,-44.901123,-3.295898,4.497847,75.723267,16.662598,-1.815425,6.992798,-2.441406,11.227852,-33.288574,-46.325684,6.945557,78.447876,36.376953,0.129331,14.353638,25.634766,1.801055,-97.849731,-24.902344,-5.192402,-23.796387,157.226562,-3.745811,-0.796509,-94.909668,52.517988,-85.182495,-30.639648,-7.165898,126.342773,67.504883,0.689766,-0.005493,-46.875,10.490186,-26.141968,-9.58252,-0.546064,121.536255,147.766113,0.421523,-4.86145,-23.742676,12.324771,-137.911377,-11.535645,-0.493374,10.706177,19.65332,-0.119751,-3.169556,-3.723145,0.967588,-104.298706,-5.249023,9.091494,0,7944,38919,46083,30723,0,0,60164,24326,2817,14338,0,0,0,0,0,0,0,29187,0,8454,0,0,0,53507,0,55051,0,0,0,8968,0,38914,31752,14862,0,659,49093,independent_20260430_213930,trial_001,subject_001,1777556374.351844,279165.9611461,2503012,1,0,0,1,9.234540193093364,560.6078860576606,849.4832124550138,0.0,0.0,0.0,14.89759651276358,334.5944865696713,897.7864293845188,75.60116880024349,329.04559472537886,885.6018004818087,-123.71377390822626,520.0896679824716,711.235718809123,-104.05054047826444,522.8628957978381,414.5467920966772,-117.80237155177636,478.3359599533495,274.76784469968123,-61.18602978842138,436.5507465285368,77.53634663866964,-7.510057615741311,378.9635724694365,42.45519985061804,-22.84225651711675,649.8130835223758,63.775403440357046,218.1751486574261,501.47436866600975,688.119547218891,197.9788687606387,549.293634926366,404.5914209640704,206.7985557441376,413.4223860573536,353.2914044983892,137.93062650817728,234.9945363104369,221.641826851668,71.84788863177712,187.92197899842648,253.4017440863128,153.75462748985336,345.0945683207446,56.79810470213995,59.42048455470936,40.579515445290646,62.621894693668246,37.37810530633176,113.20945891682004,72.48306658707135,72.7959122058945,72.1702209682482,144.9661331741427,144.9661331741427,1.3676281248256978,1.3676281248256978,22.334437898962367,1.0599820999777876,0
1777556374.361,5.871629629629624,33.32907407407407,17.968074,-7.43763,-20.58407407407408,6.006704,-3.767222,82.073364,5.615234,1.451382,-3.356323,-22.644043,12.2625,-44.901123,-3.295898,4.497847,75.723267,16.662598,-1.815425,6.992798,-2.441406,11.227852,-33.288574,-46.325684,6.945557,78.447876,36.376953,0.129331,14.353638,25.634766,1.801055,-97.849731,-24.902344,-5.192402,-23.796387,157.226562,-3.745811,-0.796509,-94.909668,52.517988,-85.182495,-30.639648,-7.165898,126.342773,67.504883,0.689766,-0.005493,-46.875,10.490186,-26.141968,-9.58252,-0.546064,121.536255,147.766113,0.421523,-4.86145,-23.742676,12.324771,-137.911377,-11.535645,-0.493374,10.706177,19.65332,-0.119751,-3.169556,-3.723145,0.967588,-104.298706,-5.249023,9.091494,0,7944,38919,46083,30723,0,0,60164,24326,2817,14338,0,0,0,0,0,0,0,40711,0,34308,0,0,0,18696,2050,47370,0,0,1026,64781,43521,9472,43016,15891,11521,659,49094,independent_20260430_213930,trial_001,subject_001,1777556374.3613615,279165.9711855,2503013,1,0,0,1,8.140159923178649,558.0018685971081,851.5272492305917,0.0,0.0,0.0,15.645841462683316,332.6168521343113,900.2832260745863,76.34062389223908,327.683916227409,888.2561609156143,-124.02682880909404,513.9871251669731,711.4403345414439,-104.67112630600047,510.7971375012085,414.6471026264072,-118.61860737195542,465.5384270464429,275.0064384565934,-61.79875251094671,421.9567500269886,77.94151991054247,-8.23512839183398,364.2468589767717,42.88425209514447,-23.59436446845459,635.2263346738788,63.86639564338135,219.15394880303523,505.3978768742885,693.6250596565936,198.7001563179094,560.6974456041264,410.7667779655925,207.5379080977385,426.9997039610663,353.2022071138116,138.85052466061552,255.35211730263893,212.80081342284373,73.25220497085091,205.6477475267713,240.8627692882084,155.516296679437,376.7348725352433,56.11537351429798,59.42048455470936,40.579515445290646,62.621894693668246,37.37810530633176,113.20945891682004,72.48306658707135,72.7959122058945,72.1702209682482,144.9661331741427,144.9661331741427,1.3676281248256978,1.3676281248256978,22.334437898962367,1.0599820999777876,0
1777556374.368,6.377629629629624,33.32907407407407,21.237074,-7.43763,-24.594074074074086,9.258704,-15.615222,82.578735,17.150879,1.135239,-2.993774,-22.094727,11.02188,-45.725098,-17.822266,3.611689,75.723267,16.662598,-1.815425,6.992798,-2.441406,11.227852,-33.288574,-46.325684,6.945557,82.716064,189.63623,-1.25978,14.589844,18.615723,5.173242,-97.58606,-18.737793,-5.695356,-23.796387,157.226562,-3.745811,-0.796509,-94.909668,52.517988,-85.182495,-30.639648,-7.165898,130.352783,15.74707,1.887275,2.977295,-57.434082,12.454102,-29.295044,2.502441,1.21667,124.788208,167.236328,-0.799937,-4.356079,-29.541016,12.157119,-138.197021,-13.793945,-0.761616,16.270752,5.554199,-0.00958,-4.01001,-21.240234,-0.296982,-105.073242,-4.333496,9.206455,0,7944,38919,46083,30723,0,0,60164,24326,2817,14338,0,0,0,0,0,0,0,47629,51715,40195,0,0,0,58637,35850,19976,0,0,0,1555,25863,0,26372,32277,49924,659,49095,independent_20260430_213930,trial_001,subject_001,1777556374.3713658,279165.9808577,2503014,1,0,0,1,7.038139729361552,555.2974155340808,852.9462488476801,0.0,0.0,0.0,16.612379329942467,330.6231679208947,902.3268641949207,77.57621170492176,326.120936473295,890.4887459385023,-123.9709276186154,507.1294442917325,711.4752384529506,-105.38718370505718,498.1187203521828,414.6466244309296,-119.3476384315816,451.9390974588101,275.4827319635937,-63.16660169167461,407.378271017772,78.58676501487119,-8.373893604120246,350.0528999690946,43.35624754992131,-24.422239944857324,620.6320915555198,63.86410080579891,219.8538866806,509.4475216861509,698.9114906066004,199.44917856350173,571.7561307988915,416.8929317972294,208.61429818334904,440.5646044725934,352.8464806686988,140.25450743706605,276.53458335063897,203.06558838269729,75.40592448569323,224.49841283824136,226.792096813488,156.34182274820873,408.62417955232246,55.04276835308889,59.42048455470936,40.579515445290646,62.621894693668246,37.37810530633176,113.20945891682004,72.48306658707135,72.7959122058945,72.1702209682482,144.9661331741427,144.9661331741427,1.3676281248256978,1.3676281248256978,22.334437898962367,1.0599820999777876,0
1777556374.382,6.377629629629624,33.389074074074074,21.237074,3.94437,-24.594074074074086,9.258704,-16.016222,82.578735,17.150879,1.135239,-2.993774,-22.094727,11.02188,-45.725098,-17.822266,3.611689,75.662842,97.473145,0.340093,7.932129,35.461426,13.603711,-35.71106,7.446289,0.742456,82.716064,189.63623,-1.25978,14.589844,18.615723,5.173242,-97.58606,-18.737793,-5.695356,-8.146362,242.431641,11.673325,-2.466431,78.857422,4.406836,-86.517334,13.85498,26.311685,130.352783,15.74707,1.887275,2.977295,-57.434082,12.454102,-29.295044,2.502441,1.21667,124.788208,167.236328,-0.799937,-4.356079,-29.541016,12.157119,-138.197021,-13.793945,-0.761616,15.869751,-34.484863,0.881367,-4.65271,-50.537109,0.881367,-105.501709,-17.883301,7.984995,0,7944,38919,46083,30723,0,0,60164,24326,2817,14338,0,0,0,0,0,0,0,47629,51715,40195,0,0,0,58637,35850,19976,0,0,0,1555,25863,0,26372,32277,49924,659,49095,independent_20260430_213930,trial_001,subject_001,1777556374.3814142,279165.9910818,2503015,1,0,0,1,5.949270293535278,552.6431698038423,853.7705796909512,0.0,0.0,0.0,17.799266488317507,328.60411080214936,904.0597870219726,78.75915872952797,324.61455675191166,892.4107314736797,-124.66688989113102,499.8229969223546,711.4239012175632,-106.3132216389833,485.0479020704032,414.8493102375328,-119.8472011537027,437.7166913545322,276.17790832270845,-63.48462536863788,392.6485042061981,79.00316500251213,-8.977431509648518,335.3304415735712,43.848888371967824,-25.207494293229555,605.8694384057084,63.77735665423115,220.732120880208,512.7932655192075,703.9580610102403,200.192693321406,582.2842105026584,422.772107395536,209.9645601577898,454.2806962149665,351.9492962236823,141.87569119039887,298.6754547071044,192.62934242137288,77.74835624208158,244.5365984172532,211.46759326182763,157.4987594394244,441.0861101808298,54.05553594586415,59.42048455470936,40.579515445290646,62.621894693668246,37.37810530633176,113.20945891682004,72.48306658707135,72.7959122058945,72.1702209682482,144.9661331741427,144.9661331741427,1.3676281248256978,1.3676281248256978,22.334437898962367,1.0599820999777876,0
1777556374.39,7.723629629629627,33.389074074074074,28.361074,3.94437,-22.056074074074075,15.317704,-25.563222,83.924561,14.831543,3.118315,-2.658691,-54.626465,14.231206,-47.202759,3.601074,-3.788921,75.662842,97.473145,0.340093,7.932129,35.461426,13.603711,-35.71106,7.446289,0.742456,89.780273,235.839844,2.169888,11.464233,-135.925293,11.179951,-99.28894,56.030273,-0.914897,-8.146362,242.431641,11.673325,-2.466431,78.857422,4.406836,-86.517334,13.85498,26.311685,127.814941,-118.164062,5.240303,3.526611,5.249023,16.654966,-30.778198,21.911621,5.278623,134.857178,227.905273,-1.820215,-1.988525,-75.683594,16.760347,-140.108643,-12.756348,4.550537,16.391602,214.355469,2.327959,-6.9104,-27.46582,-14.74853,-108.094482,-69.091797,20.242705,0,7944,38919,46083,30723,0,0,60164,24326,2817,14338,0,0,0,0,0,0,0,47629,51715,40195,0,0,0,58637,35850,19976,0,0,0,1555,25863,0,26372,32277,49924,659,49095,independent_20260430_213930,trial_001,subject_001,1777556374.391414,279166.0009627,2503016,1,0,0,1,4.803510880543628,549.8965642405245,854.2153077045043,0.0,0.0,0.0,18.97184942005894,326.4778297347849,905.5215291238834,80.09974007000089,323.0693788997561,893.907051715984,-125.13770220689082,493.1690126350924,711.1254763998114,-107.367125775058,471.8409520120039,415.13120978930925,-120.27856731998908,423.0312454087037,276.91463743145664,-63.17214495780144,378.1621121648888,79.28472171786088,-9.50544663279482,320.2939029611678,44.37142187148024,-25.96871742322891,591.2858965347456,63.59554887415291,221.6289532280508,515.7698103105198,708.5826152747121,200.984452884785,592.2848185652924,428.2332427534362,210.8948615260669,468.46930871135,349.9370073658644,144.03298151953763,321.87237634037825,181.8724164374941,80.24149377197784,266.00053523060274,195.24455454634065,158.88471279118647,473.671421057052,53.38682366335058,59.42048455470936,40.579515445290646,62.621894693668246,37.37810530633176,113.20945891682004,72.48306658707135,72.7959122058945,72.1702209682482,144.9661331741427,144.9661331741427,1.3676281248256978,1.3676281248256978,22.334437898962367,1.0599820999777876,0
1777556374.397,7.723629629629627,33.389074074074074,28.361074,3.94437,-22.056074074074075,15.317704,-25.563222,83.924561,14.831543,3.118315,-2.658691,-54.626465,14.231206,-47.202759,3.601074,-3.788921,75.662842,97.473145,0.340093,7.932129,35.461426,13.603711,-35.71106,7.446289,0.742456,89.780273,235.839844,2.169888,11.464233,-135.925293,11.179951,-99.28894,56.030273,-0.914897,-8.146362,242.431641,11.673325,-2.466431,78.857422,4.406836,-86.517334,13.85498,26.311685,127.814941,-118.164062,5.240303,3.526611,5.249023,16.654966,-30.778198,21.911621,5.278623,134.857178,227.905273,-1.820215,-1.988525,-75.683594,16.760347,-140.108643,-12.756348,4.550537,16.391602,214.355469,2.327959,-6.9104,-27.46582,-14.74853,-108.094482,-69.091797,20.242705,0,7944,38919,46083,30723,0,0,60164,24326,2817,14338,0,0,0,0,0,0,0,47629,51715,40195,0,0,0,58637,35850,19976,0,0,0,1555,25863,0,26372,32277,49924,659,49095,independent_20260430_213930,trial_001,subject_001,1777556374.4014175,279166.0106807,2503017,1,0,0,1,3.6415783340314687,547.1879639397438,854.2972602733679,0.0,0.0,0.0,20.526441689210422,324.3723944950468,906.6323060698248,81.53625624918146,321.3949068449953,895.0506932960681,-124.16971700386648,489.7654880006212,710.1733461257985,-108.43911847298013,458.5142393817367,415.3074939500296,-120.6229464705378,408.45704431253455,277.6626960390393,-64.13247635046505,363.34554808183947,79.67833217267166,-10.02114492369526,305.70535235593627,44.91135759902407,-26.6714668223361,576.7398477940259,63.309772126253606,222.55834283396783,518.4014979424139,712.7849558285312,201.7544572513092,601.6027046707783,433.2298927245607,212.63270947874747,482.4313524280385,347.6961323259977,146.26934556983716,345.8938149829908,170.75450372926238,82.94091252150206,288.8938051495646,178.47232687417875,160.83285891058452,506.3287070076443,53.28726799434924,59.42048455470936,40.579515445290646,62.621894693668246,37.37810530633176,113.20945891682004,72.48306658707135,72.7959122058945,72.1702209682482,144.9661331741427,144.9661331741427,1.3676281248256978,1.3676281248256978,22.334437898962367,1.0599820999777876,0
1777556374.407,7.723629629629627,33.389074074074074,28.361074,3.94437,-22.056074074074075,15.317704,-25.563222,83.924561,14.831543,3.118315,-2.658691,-54.626465,14.231206,-47.202759,3.601074,-3.788921,75.662842,97.473145,0.340093,7.932129,35.461426,13.603711,-35.71106,7.446289,0.742456,89.780273,235.839844,2.169888,11.464233,-135.925293,11.179951,-99.28894,56.030273,-0.914897,-8.146362,242.431641,11.673325,-2.466431,78.857422,4.406836,-86.517334,13.85498,26.311685,127.814941,-118.164062,5.240303,3.526611,5.249023,16.654966,-30.778198,21.911621,5.278623,134.857178,227.905273,-1.820215,-1.988525,-75.683594,16.760347,-140.108643,-12.756348,4.550537,16.391602,214.355469,2.327959,-6.9104,-27.46582,-14.74853,-108.094482,-69.091797,20.242705,0,7944,38919,46083,30723,0,0,60164,24326,2817,14338,0,0,0,0,0,0,0,47629,51715,40195,0,0,0,58637,35850,19976,0,0,0,1555,25863,0,26372,32277,49924,659,49095,independent_20260430_213930,trial_001,subject_001,1777556374.4119282,279166.0208258,2503018,1,0,0,1,2.525540846467431,544.4458277937532,854.0725908165566,0.0,0.0,0.0,22.186743426190123,322.14394845395896,907.2435033124634,83.00922537361495,319.7310059173803,895.8296652228552,-125.42905503359762,480.495968987692,710.1212802141853,-109.5473909819586,445.61468880666206,415.4749560926196,-121.266947476825,394.33742836950057,278.35491581628656,-64.45460099809452,349.13933848713606,79.75921479239906,-10.967679565204326,290.7036360946421,45.508245349459486,-27.67036530984988,562.1290999207562,62.90290754554792,223.12392546489883,521.5746422888485,716.4866978194959,202.59348554500443,610.2755190899383,437.8008850574388,214.5450879955688,496.356036106298,344.93993474053053,148.71031613062547,370.78433384893935,159.56063728542804,85.43396447858464,313.2922780340669,161.26395986428415,163.5648986834383,538.8323157226811,54.61456049903568,59.42048455470936,40.579515445290646,62.621894693668246,37.37810530633176,113.20945891682004,72.48306658707135,72.7959122058945,72.1702209682482,144.9661331741427,144.9661331741427,1.3676281248256978,1.3676281248256978,22.334437898962367,1.0599820999777876,0
1777556374.417,7.723629629629627,33.389074074074074,28.361074,3.94437,-22.056074074074075,15.317704,-25.563222,83.924561,14.831543,3.118315,-2.658691,-54.626465,14.231206,-47.202759,3.601074,-3.788921,75.662842,97.473145,0.340093,7.932129,35.461426,13.603711,-35.71106,7.446289,0.742456,89.780273,235.839844,2.169888,11.464233,-135.925293,11.179951,-99.28894,56.030273,-0.914897,-8.146362,242.431641,11.673325,-2.466431,78.857422,4.406836,-86.517334,13.85498,26.311685,127.814941,-118.164062,5.240303,3.526611,5.249023,16.654966,-30.778198,21.911621,5.278623,134.857178,227.905273,-1.820215,-1.988525,-75.683594,16.760347,-140.108643,-12.756348,4.550537,16.391602,214.355469,2.327959,-6.9104,-27.46582,-14.74853,-108.094482,-69.091797,20.242705,0,7944,38919,46083,30723,0,0,60164,24326,2817,14338,0,0,0,0,0,0,0,47629,51715,40195,0,0,0,58637,35850,19976,0,0,0,1555,25863,0,26372,32277,49924,659,49095,independent_20260430_213930,trial_001,subject_001,1777556374.4209309,279166.0306481,2503019,1,0,0,1,1.4665840063941953,541.715981589331,853.5141155784065,0.0,0.0,0.0,23.749846316281072,320.0332528959392,907.2689799822816,84.71043735309836,318.12618517230703,895.9334746411491,-125.8955361465732,473.1110321065534,709.3501482196671,-110.65641034038796,433.088323458057,415.5432317703441,-121.80158733012276,380.98371074442986,278.84359954321604,-64.85405148609424,335.3605695201126,79.87303737334626,-11.536652274357593,276.1882172456327,46.058370451994776,-28.35915780120188,547.5350118605708,62.460858917743,223.91792120483203,523.5436344177643,719.4670892676352,203.37813314146973,618.0785164059813,441.8092554634591,216.42483798736825,510.100414556483,341.90641618632367,151.39937721267123,396.4325105409644,148.3168243440157,87.95643954740622,338.80476489734235,144.62790319240068,167.32536851946972,571.5212577193073,55.72337108753811,59.42048455470936,40.579515445290646,62.621894693668246,37.37810530633176,113.20945891682004,72.48306658707135,72.7959122058945,72.1702209682482,144.9661331741427,144.9661331741427,1.3676281248256978,1.3676281248256978,22.334437898962367,1.0599820999777876,0
1777556374.427,7.723629629629627,33.774074074074065,31.064074,0.18137,-18.650074074074084,15.317704,-17.373222,83.924561,14.831543,3.118315,-2.658691,-54.626465,14.231206,-47.202759,3.601074,-3.788921,75.27832,64.63623,7.34313,6.608276,53.100586,3.276387,-39.473877,-40.161133,-11.922407,92.48291,181.884766,0.589175,10.827026,-114.501953,8.986113,-102.354126,35.522461,-13.986914,-2.142334,38.269043,0.756826,0.192261,51.391602,-1.025068,-87.324829,-2.441406,14.71021,124.40918,-185.180664,3.71228,2.785034,20.996094,16.971108,-30.800171,34.179688,5.158872,134.857178,227.905273,-1.820215,-1.988525,-75.683594,16.760347,-140.108643,-12.756348,4.550537,24.581909,609.191895,1.17835,-6.185303,23.376465,-18.484761,-109.110718,-82.15332,21.440215,0,7944,38919,46083,30723,0,0,60164,24326,2817,14338,0,0,0,0,0,0,0,47629,51715,40195,0,0,0,58637,35850,19976,0,0,0,1555,25863,0,26372,32277,49924,659,49095,independent_20260430_213930,trial_001,subject_001,1777556374.4315422,279166.0409,2503020,1,0,0,1,0.4031140992756277,538.9104537337412,852.4963784057468,0.0,0.0,0.0,25.40467803571065,317.570761489837,906.975506902244,86.40596264583321,316.5826305241068,895.5938078610432,-126.1774160942958,465.8184827488488,708.6188411931012,-111.55922772210845,421.2737593243827,415.377183914889,-122.49567941475102,368.191174025996,279.01295067360905,-65.5097920362463,320.70058029073505,80.13073415194906,-12.238621280806669,261.2415504789475,46.599275456767344,-29.12903319864289,532.8523775287238,61.942066663601096,224.85794336154063,524.609375489184,722.0072287007258,204.23841508792205,625.0883494498629,445.3571310330122,218.3324271971495,523.6064461750275,338.6894882368805,154.5078601034736,422.7679728618425,137.49488995536564,90.76496518766515,365.5478274894912,129.03007737187806,171.64457372858885,604.0418823107582,57.859727067977495,59.42048455470936,40.579515445290646,62.621894693668246,37.37810530633176,113.20945891682004,72.48306658707135,72.7959122058945,72.1702209682482,144.9661331741427,144.9661331741427,1.3676281248256978,1.3676281248256978,22.334437898962367,1.0599820999777876,0
1777556374.437,7.723629629629627,33.774074074074065,31.064074,0.18137,-18.650074074074084,15.317704,-17.373222,83.924561,14.831543,3.118315,-2.658691,-54.626465,14.231206,-47.202759,3.601074,-3.788921,75.27832,64.63623,7.34313,6.608276,53.100586,3.276387,-39.473877,-40.161133,-11.922407,92.48291,181.884766,0.589175,10.827026,-114.501953,8.986113,-102.354126,35.522461,-13.986914,-2.142334,38.269043,0.756826,0.192261,51.391602,-1.025068,-87.324829,-2.441406,14.71021,124.40918,-185.180664,3.71228,2.785034,20.996094,16.971108,-30.800171,34.179688,5.158872,134.857178,227.905273,-1.820215,-1.988525,-75.683594,16.760347,-140.108643,-12.756348,4.550537,24.581909,609.191895,1.17835,-6.185303,23.376465,-18.484761,-109.110718,-82.15332,21.440215,0,7944,38919,46083,30723,0,0,60164,24326,2817,14338,0,0,0,0,0,0,0,47629,51715,40195,0,0,0,58637,35850,19976,0,0,0,1555,25863,0,26372,32277,49924,659,49095,independent_20260430_213930,trial_001,subject_001,1777556374.4412415,279166.050784,2503021,1,0,0,1,-0.6761947512585116,536.0228734257494,851.0715500087314,0.0,0.0,0.0,27.27951463446967,315.39298806849393,906.265462872136,88.32143160359169,315.0641271939683,894.8430155518374,-127.1656908855018,457.8563240625769,707.8133735629331,-112.34574955698244,410.0407455899203,415.0690583358588,-123.34169357994122,356.1294005717028,279.25311266042445,-66.29961374364623,306.5373354661366,80.49599861698442,-12.92034402720002,246.80301692093497,47.16274580706887,-30.04441168842208,518.4163574576393,61.38162185505564,225.37639976527103,526.2176756286327,723.705920411052,205.15178642483065,631.2033489492634,448.37069713284666,220.226771933566,536.6982019972812,335.3584451225599,157.75217784583802,449.975352755117,127.01135642427904,94.07039178105632,393.0279022814684,114.00746509650688,176.52573317395033,636.4865185553225,61.25266545157973,59.42048455470936,40.579515445290646,62.621894693668246,37.37810530633176,113.20945891682004,72.48306658707135,72.7959122058945,72.1702209682482,144.9661331741427,144.9661331741427,1.3676281248256978,1.3676281248256978,22.334437898962367,1.0599820999777876,0
1777556374.455,8.261629629629624,33.774074074074065,36.541074,0.18137,-11.745074074074084,34.000704,9.570778,84.462891,-19.165039,-0.498164,-3.554077,16.174316,13.51749,-48.065186,15.014648,-2.988984,75.27832,64.63623,7.34313,6.608276,53.100586,3.276387,-39.473877,-40.161133,-11.922407,97.575073,129.516602,-1.22625,10.662231,-73.364258,7.846084,-105.325928,-2.380371,-11.965518,-2.142334,38.269043,0.756826,0.192261,51.391602,-1.025068,-87.324829,-2.441406,14.71021,117.504272,-184.020996,2.40939,1.571045,3.112793,14.70063,-31.904297,51.818848,-9.81479,147.595825,263.73291,8.315508,-0.428467,23.254395,18.125508,-140.548096,-25.085449,-4.220024,64.264526,1209.04541,5.561235,-2.39502,118.591309,-3.894302,-107.946167,-64.697266,-3.372188,0,7944,38919,46083,30723,0,0,60164,24326,2817,14338,0,0,0,0,0,0,0,37902,22539,9988,0,0,0,38410,46863,14087,0,0,0,63243,61191,0,0,23309,36354,659,49096,independent_20260430_213930,trial_001,subject_001,1777556374.4512408,279166.060955,2503022,1,0,0,1,-1.7217526030727892,533.1975040761248,849.3268820799979,0.0,0.0,0.0,29.23312488523384,313.34379315255933,905.2254775052456,90.29718919065728,313.5786102532781,893.6209488396411,-127.00760860017164,451.2972491243993,706.7747401890107,-113.10160592221054,399.313930793204,414.82232904995584,-124.07149861235312,344.29836539463287,279.298785431429,-66.95657864018563,292.8682005816549,80.9012711382817,-13.584386393217889,232.14819027193232,47.7032146437242,-30.96147968954861,503.82969153102897,60.77016217197568,225.67192147159216,527.4100383726143,724.7699873997681,206.05552265953983,636.4093563902637,450.8180130761508,222.23308479993227,549.4601863611562,331.9182259595636,161.18356610957105,477.84073802996784,117.156895834175,97.09555395324158,422.8091663914527,100.26496061370396,181.82583077426136,668.6515250363819,66.00789924228019,59.42048455470936,40.579515445290646,62.621894693668246,37.37810530633176,113.20945891682004,72.48306658707135,72.7959122058945,72.1702209682482,144.9661331741427,144.9661331741427,1.3676281248256978,1.3676281248256978,22.334437898962367,1.0599820999777876,0
1777556374.473,8.261629629629624,33.774074074074065,36.541074,0.18137,-11.745074074074084,34.000704,9.570778,84.462891,-19.165039,-0.498164,-3.554077,16.174316,13.51749,-48.065186,15.014648,-2.988984,75.27832,64.63623,7.34313,6.608276,53.100586,3.276387,-39.473877,-40.161133,-11.922407,97.575073,129.516602,-1.22625,10.662231,-73.364258,7.846084,-105.325928,-2.380371,-11.965518,-2.142334,38.269043,0.756826,0.192261,51.391602,-1.025068,-87.324829,-2.441406,14.71021,117.504272,-184.020996,2.40939,1.571045,3.112793,14.70063,-31.904297,51.818848,-9.81479,147.595825,263.73291,8.315508,-0.428467,23.254395,18.125508,-140.548096,-25.085449,-4.220024,64.264526,1209.04541,5.561235,-2.39502,118.591309,-3.894302,-107.946167,-64.697266,-3.372188,0,7944,38919,46083,30723,0,0,60164,24326,2817,14338,0,0,0,0,0,0,0,37902,22539,9988,0,0,0,38410,46863,14087,0,0,0,63243,61191,0,0,23309,36354,659,49096,independent_20260430_213930,trial_001,subject_001,1777556374.4717586,279166.0809391,2503024,1,0,0,1,-3.5641583003895696,527.9747223009,845.1481182876145,85.20577790399197,534.3430610721209,849.3021153275523,33.525774323465455,309.4657642321279,902.2275061945192,94.279422907019,310.9905593320433,890.2079395747384,-127.1057743389756,438.34047406598495,704.4011049065934,-114.51662520296732,377.8757170715777,413.9326353539551,-125.53036024543852,320.4904402008742,279.559710571953,-67.56915160924767,264.13353902471164,81.62437305840537,-15.10248642816949,202.81928494041787,48.11423046571076,-32.85662831994261,474.89233276593137,60.15415691840619,225.92433938953323,528.3563696982217,724.5737091136203,207.98066779142195,644.4994996862376,453.7155593420324,226.19416535810475,574.1279583498509,324.89872619362194,168.82826862124256,534.8129746710151,99.56965566824564,105.3452457272299,483.2782181864702,87.23949065917117,192.40324793253947,731.5773324721426,71.95892749062284,59.42048455470936,40.579515445290646,62.621894693668246,37.37810530633176,113.20945891682004,72.48306658707135,72.7959122058945,72.1702209682482,144.9661331741427,144.9661331741427,1.3676281248256978,1.3676281248256978,22.334437898962367,1.0599820999777876,0
1777556374.48,8.261629629629624,33.774074074074065,36.541074,0.18137,-11.745074074074084,34.000704,9.570778,84.462891,-19.165039,-0.498164,-3.554077,16.174316,13.51749,-48.065186,15.014648,-2.988984,75.27832,64.63623,7.34313,6.608276,53.100586,3.276387,-39.473877,-40.161133,-11.922407,97.575073,129.516602,-1.22625,10.662231,-73.364258,7.846084,-105.325928,-2.380371,-11.965518,-2.142334,38.269043,0.756826,0.192261,51.391602,-1.025068,-87.324829,-2.441406,14.71021,117.504272,-184.020996,2.40939,1.571045,3.112793,14.70063,-31.904297,51.818848,-9.81479,147.595825,263.73291,8.315508,-0.428467,23.254395,18.125508,-140.548096,-25.085449,-4.220024,64.264526,1209.04541,5.561235,-2.39502,118.591309,-3.894302,-107.946167,-64.697266,-3.372188,0,7944,38919,46083,30723,0,0,60164,24326,2817,14338,0,0,0,0,0,0,0,41482,12551,57605,0,0,0,53507,51209,51205,0,0,0,29953,0,0,0,17923,0,659,49097,independent_20260430_213930,trial_001,subject_001,1777556374.4812746,279166.0907829,2503025,1,0,0,1,-4.394205262303686,525.6541531668912,842.8138466566926,83.64225742677712,531.7067711239755,846.8467113033832,35.45461267396225,307.6778369738318,900.2398040088055,96.21550554321404,309.96220821502203,888.1262155035962,-126.97005730694188,432.1562985916068,703.0057139786151,-115.21801286848556,367.2700684381135,413.45574023848417,-126.0163577674305,308.3863112795746,279.7485951059391,-68.06724456844968,250.0519092852247,82.42730990590582,-15.794184915909382,188.2827415730968,48.53923121671786,-33.74503069975127,460.3781839281711,59.498052813124936,226.076869992462,528.1011738541185,723.2652168141458,208.95127804968268,647.449115895006,454.2803433257873,228.5560557559137,586.1400076345881,321.54096198623245,173.21531216218457,563.7253611557321,92.83557222968469,110.0217693078405,513.8980829855949,75.54362989406279,196.7559486225749,762.1938188865603,79.58711287588463,59.42048455470936,40.579515445290646,62.621894693668246,37.37810530633176,113.20945891682004,72.48306658707135,72.7959122058945,72.1702209682482,144.9661331741427,144.9661331741427,1.3676281248256978,1.3676281248256978,22.334437898962367,1.0599820999777876,0
1777556374.488,8.261629629629624,27.44607407407408,36.541074,-4.66363,-8.900074074074084,34.000704,22.863778,84.462891,-19.165039,-0.498164,-3.554077,16.174316,13.51749,-48.065186,15.014648,-2.988984,81.606445,115.661621,-10.202783,9.492188,12.512207,17.090859,-35.255127,2.197266,-8.238867,97.575073,129.516602,-1.22625,10.662231,-73.364258,7.846084,-105.325928,-2.380371,-11.965518,-1.895142,2.441406,0.713716,0.384521,1.159668,-0.306563,-87.313843,2.01416,10.744058,114.658813,-190.063477,1.863325,0.472412,70.922852,16.439414,-31.453857,54.077148,-11.812236,147.595825,263.73291,8.315508,-0.428467,23.254395,18.125508,-140.548096,-25.085449,-4.220024,77.557983,764.099121,-3.161426,-0.670166,-108.825684,17.1675,-108.468018,-135.986328,-5.652246,0,7944,38919,46083,30723,0,0,60164,24326,2817,14338,0,0,0,0,0,0,0,41482,12551,57605,0,0,0,53507,51209,51205,0,0,0,29953,0,0,0,17923,0,659,49097,independent_20260430_213930,trial_001,subject_001,1777556374.4912755,279166.1007997,2503026,1,0,0,1,-5.099826726909202,523.7138245361695,840.4480386642113,82.71321205937777,530.4286489647554,844.294244388376,37.53050183073878,306.221085709164,897.9913963019352,98.10049102706408,309.01911654828234,885.7786954912541,-126.8026214135333,426.6493465454136,701.6332881300503,-115.74251723978378,356.55085698150936,413.0501559154324,-126.52134720274064,296.1750844153271,279.9982548163412,-68.39982666843271,235.7627793923816,82.9040418658865,-16.25532627115935,173.61243553782242,49.003415905039255,-34.44744361744721,445.7957299264808,58.83569912510074,226.21914632126325,527.5623752814884,721.1829263066794,209.7713582887576,649.8373145700244,454.2678677460332,231.0516717311092,598.1413484006838,318.02578404131003,177.76266221283157,592.4165073774202,87.51893665609298,115.244532108738,544.1362222836827,65.2112494567809,200.02149259317,791.9562141078526,88.60379221507367,59.42048455470936,40.579515445290646,62.621894693668246,37.37810530633176,113.20945891682004,72.48306658707135,72.7959122058945,72.1702209682482,144.9661331741427,144.9661331741427,1.3676281248256978,1.3676281248256978,22.334437898962367,1.0599820999777876,0
1777556374.497,7.942629629629636,27.44607407407408,35.311074,-4.66363,-1.8190740740740807,51.946704,19.490778,84.144287,29.052734,3.429668,-3.88916,11.71875,10.667417,-46.999512,-4.516602,-0.795146,81.606445,115.661621,-10.202783,9.492188,12.512207,17.090859,-35.255127,2.197266,-8.238867,102.672729,66.40625,3.913462,10.365601,170.959473,11.299702,-100.942383,-16.906738,-5.144502,-1.895142,2.441406,0.713716,0.384521,1.159668,-0.306563,-87.313843,2.01416,10.744058,107.578125,-206.237793,-1.585503,-2.488403,107.23877,17.019009,-28.652344,52.67334,-3.563789,155.791626,88.195801,-0.253872,1.389771,-67.626953,11.678115,-140.454712,-20.568848,-12.525952,82.380981,-233.703613,14.68147,5.614014,26.672363,1.959126,-107.523193,-104.553223,64.344595,0,7944,38919,46083,30723,0,0,60164,24326,2817,14338,0,0,0,0,0,0,0,41482,12551,57605,0,0,0,53507,51209,51205,0,0,0,29953,0,0,0,17923,0,659,49097,independent_20260430_213930,trial_001,subject_001,1777556374.5017798,279166.1107151,2503027,1,0,0,1,-5.814496709613304,521.9396594466348,838.0391483609724,81.99947244544887,529.8807874176277,841.639638007341,39.61717921664733,304.9671231023576,895.4693292240443,99.84283139915092,308.36807841948246,883.1116053189809,-126.53989777497932,421.26043326806746,700.1038660785117,-116.14186743788744,346.30678452468555,412.7036556684873,-126.77313298098376,284.22890136687795,280.3236688249021,-68.55525886761998,221.48316459144013,83.86307462895009,-16.8357099348895,159.007523033873,49.560169812312914,-35.29860928692224,431.2160805984591,58.15116637673899,226.3170629034105,526.8095165246656,718.399901169982,210.44303253357108,651.79920863439,453.6637853396353,233.35054714356383,610.1842806212782,314.6975229529304,182.41670080338903,620.6039433329936,83.74625068804045,120.94138274089352,573.6003027299528,56.14221337107645,201.8286702157106,820.4724791546714,98.79104883788354,59.42048455470936,40.579515445290646,62.621894693668246,37.37810530633176,113.20945891682004,72.48306658707135,72.7959122058945,72.1702209682482,144.9661331741427,144.9661331741427,1.3676281248256978,1.3676281248256978,22.334437898962367,1.0599820999777876,0
1777556374.507,7.942629629629636,27.44607407407408,35.311074,-4.66363,-1.8190740740740807,51.946704,19.490778,84.144287,29.052734,3.429668,-3.88916,11.71875,10.667417,-46.999512,-4.516602,-0.795146,81.606445,115.661621,-10.202783,9.492188,12.512207,17.090859,-35.255127,2.197266,-8.238867,102.672729,66.40625,3.913462,10.365601,170.959473,11.299702,-100.942383,-16.906738,-5.144502,-1.895142,2.441406,0.713716,0.384521,1.159668,-0.306563,-87.313843,2.01416,10.744058,107.578125,-206.237793,-1.585503,-2.488403,107.23877,17.019009,-28.652344,52.67334,-3.563789,155.791626,88.195801,-0.253872,1.389771,-67.626953,11.678115,-140.454712,-20.568848,-12.525952,82.380981,-233.703613,14.68147,5.614014,26.672363,1.959126,-107.523193,-104.553223,64.344595,0,7944,38919,46083,30723,0,0,60164,24326,2817,14338,0,0,0,0,0,0,0,41482,12551,57605,0,0,0,53507,51209,51205,0,0,0,29953,0,0,0,17923,0,659,49097,independent_20260430_213930,trial_001,subject_001,1777556374.511786,279166.1208901,2503028,1,0,0,1,-6.368175251617106,520.4679997096401,835.6839950022022,81.42269450783155,529.6339950173822,839.0042528928593,41.4389654009837,304.1108955580607,892.5791604675727,101.46563061169424,307.90864555189467,879.9781467610235,-126.24578023689918,416.34332234279526,698.3868658631169,-116.33214591032603,336.38901227133863,412.186418835128,-127.15450987414415,272.38092181768195,280.6787253378894,-68.94230991391957,207.2549912146185,84.72981857531029,-17.52112412145905,144.33308549726354,50.27257972914072,-36.00636498670886,416.5884801464829,57.4701418994736,226.3129543010548,525.8629172333315,715.031108043571,211.0226686364651,653.709476159795,452.6186565810419,235.8222644212993,622.2428505549613,312.0964655846309,187.2917278878204,647.6942251595692,81.68898734969194,127.06435219447545,601.727889180388,48.39269475827787,202.11053172252053,847.0085860243327,109.73749612204377,59.42048455470936,40.579515445290646,62.621894693668246,37.37810530633176,113.20945891682004,72.48306658707135,72.7959122058945,72.1702209682482,144.9661331741427,144.9661331741427,1.3676281248256978,1.3676281248256978,22.334437898962367,1.0599820999777876,0
1777556374.516,7.942629629629636,27.44607407407408,35.311074,-4.66363,-1.8190740740740807,51.946704,19.490778,84.144287,29.052734,3.429668,-3.88916,11.71875,10.667417,-46.999512,-4.516602,-0.795146,81.606445,115.661621,-10.202783,9.492188,12.512207,17.090859,-35.255127,2.197266,-8.238867,102.672729,66.40625,3.913462,10.365601,170.959473,11.299702,-100.942383,-16.906738,-5.144502,-1.895142,2.441406,0.713716,0.384521,1.159668,-0.306563,-87.313843,2.01416,10.744058,107.578125,-206.237793,-1.585503,-2.488403,107.23877,17.019009,-28.652344,52.67334,-3.563789,155.791626,88.195801,-0.253872,1.389771,-67.626953,11.678115,-140.454712,-20.568848,-12.525952,82.380981,-233.703613,14.68147,5.614014,26.672363,1.959126,-107.523193,-104.553223,64.344595,0,7944,38919,46083,30723,0,0,60164,24326,2817,14338,0,0,0,0,0,0,0,41482,12551,57605,0,0,0,53507,51209,51205,0,0,0,29953,0,0,0,17923,0,659,49097,independent_20260430_213930,trial_001,subject_001,1777556374.511786,279166.1208901,2503028,1,0,0,1,-6.368175251617106,520.4679997096401,835.6839950022022,81.42269450783155,529.6339950173822,839.0042528928593,41.4389654009837,304.1108955580607,892.5791604675727,101.46563061169424,307.90864555189467,879.9781467610235,-126.24578023689918,416.34332234279526,698.3868658631169,-116.33214591032603,336.38901227133863,412.186418835128,-127.15450987414415,272.38092181768195,280.6787253378894,-68.94230991391957,207.2549912146185,84.72981857531029,-17.52112412145905,144.33308549726354,51.047998263039375,-36.00636498670886,416.5884801464829,56.795244115529336,226.3129543010548,525.8629172333315,715.031108043571,211.0226686364651,653.709476159795,452.6186565810419,235.8222644212993,622.2428505549613,312.0964655846309,187.2917278878204,647.6942251595692,81.68898734969194,127.06435219447545,601.727889180388,41.98878691826936,202.11053172252053,847.0085860243327,120.81025558315662,59.42048455470936,40.579515445290646,62.621894693668246,37.37810530633176,113.20945891682004,72.48306658707135,72.7959122058945,72.1702209682482,144.9661331741427,144.9661331741427,1.3676281248256978,1.3676281248256978,22.334437898962367,1.0599820999777876,0
1777556374.528,7.942629629629636,21.34807407407408,36.497074,-10.74963,1.289925925925928,51.946704,13.502778,84.144287,29.052734,3.429668,-3.88916,11.71875,10.667417,-46.999512,-4.516602,-0.795146,87.703857,138.183594,1.22146,9.266968,23.681641,8.138276,-35.952759,5.187988,-1.777104,103.859253,52.91748,0.493374,10.629272,94.909668,10.681787,-99.041748,-58.410645,-5.915698,-1.697388,6.713867,-0.421523,0.730591,9.643555,0.641865,-87.341309,-0.915527,9.637559,104.468994,-201.721191,-1.029858,-3.751831,70.251465,16.846567,-27.773438,68.969727,-1.997446,155.791626,88.195801,-0.253872,1.389771,-67.626953,11.678115,-140.454712,-20.568848,-12.525952,76.393433,-303.283691,10.854229,6.734619,82.092285,-8.63165,-106.66626,-38.024902,9.551338,0,7944,38919,46083,30723,0,0,60164,24326,2817,14338,0,0,0,0,0,0,0,41482,12551,57605,0,0,0,53507,51209,51205,0,0,0,29953,0,0,0,17923,0,659,49097,independent_20260430_213930,trial_001,subject_001,1777556374.531785,279166.1407096,2503030,1,0,0,1,-6.896010386785256,518.9334760053421,830.3515284662786,80.39972244186724,529.8862709730674,833.3339211645623,44.68065229966818,303.2662771042512,885.9510944409744,104.36752281680886,308.03914618735666,873.3282731365471,-125.89113461486264,407.7844154940435,694.2759452358106,-116.88322976621092,317.5902931294621,410.9767832261596,-127.79074692760706,249.732242558558,281.25153067805456,-69.64848159626517,179.02878252695717,86.91916709480758,-18.66458213900383,115.25707786491888,51.92888429084897,-37.5706603081548,387.44131768876525,56.14868460976483,226.3177246079489,524.3639918937926,707.6731836649906,211.39243287423608,657.9053368563788,449.9417645613584,241.02271591917795,645.208269463228,308.5931914300852,195.5165313360324,696.6545701390813,81.27804797869743,139.06760389151395,652.6441382059979,36.90463155660245,198.56963705941075,891.9141309699676,131.35749452608582,59.42048455470936,40.579515445290646,62.621894693668246,37.37810530633176,113.20945891682004,72.48306658707135,72.7959122058945,72.1702209682482,144.9661331741427,144.9661331741427,1.3676281248256978,1.3676281248256978,22.334437898962367,1.0599820999777876,0
1777556374.537,7.942629629629636,21.34807407407408,36.497074,-10.74963,1.289925925925928,51.946704,13.502778,84.144287,29.052734,3.429668,-3.88916,11.71875,10.667417,-46.999512,-4.516602,-0.795146,87.703857,138.183594,1.22146,9.266968,23.681641,8.138276,-35.952759,5.187988,-1.777104,103.859253,52.91748,0.493374,10.629272,94.909668,10.681787,-99.041748,-58.410645,-5.915698,-1.697388,6.713867,-0.421523,0.730591,9.643555,0.641865,-87.341309,-0.915527,9.637559,104.468994,-201.721191,-1.029858,-3.751831,70.251465,16.846567,-27.773438,68.969727,-1.997446,155.791626,88.195801,-0.253872,1.389771,-67.626953,11.678115,-140.454712,-20.568848,-12.525952,76.393433,-303.283691,10.854229,6.734619,82.092285,-8.63165,-106.66626,-38.024902,9.551338,0,7944,38919,46083,30723,0,0,60164,24326,2817,14338,0,0,0,0,0,0,0,26886,0,7939,0,0,0,31489,48896,2820,0,0,0,0,0,0,0,46080,0,659,49098,independent_20260430_213930,trial_001,subject_001,1777556374.5417874,279166.1507046,2503031,1,0,0,1,-7.199473500644882,518.6155804593807,827.2496496300705,80.171475013406,530.4060358290282,830.4804136841128,46.25785378932571,303.37208562119883,882.7704418062274,105.84298268585644,308.5208195802485,869.8341225614571,-125.7216639534393,404.2984819646262,692.0255587529991,-116.94579497863722,308.9615079224752,410.2606280186183,-128.18972182292188,238.9974880709528,281.5166270311785,-70.28751312194319,165.08006055804657,88.3610128091842,-19.510818480143225,100.639184327132,53.08915044748201,-38.4009669282578,372.9353052050015,55.52093851986903,226.617245128314,524.5662832494552,704.3601124142552,211.2115516376544,660.0901516629848,448.4418445098947,243.39617439408408,655.2533573776675,307.38443486831,198.63554167721207,717.4868819074585,82.52986248753268,144.07957096289866,674.6121150407114,33.00996896338768,195.90610604763523,909.7339600185708,140.58170732624004,59.42048455470936,40.579515445290646,62.621894693668246,37.37810530633176,113.20945891682004,72.48306658707135,72.7959122058945,72.1702209682482,144.9661331741427,144.9661331741427,1.3676281248256978,1.3676281248256978,22.334437898962367,1.0599820999777876,0
1777556374.548,7.942629629629636,21.34807407407408,36.497074,-10.74963,1.289925925925928,51.946704,13.502778,84.144287,29.052734,3.429668,-3.88916,11.71875,10.667417,-46.999512,-4.516602,-0.795146,87.703857,138.183594,1.22146,9.266968,23.681641,8.138276,-35.952759,5.187988,-1.777104,103.859253,52.91748,0.493374,10.629272,94.909668,10.681787,-99.041748,-58.410645,-5.915698,-1.697388,6.713867,-0.421523,0.730591,9.643555,0.641865,-87.341309,-0.915527,9.637559,104.468994,-201.721191,-1.029858,-3.751831,70.251465,16.846567,-27.773438,68.969727,-1.997446,155.791626,88.195801,-0.253872,1.389771,-67.626953,11.678115,-140.454712,-20.568848,-12.525952,76.393433,-303.283691,10.854229,6.734619,82.092285,-8.63165,-106.66626,-38.024902,9.551338,0,7944,38919,46083,30723,0,0,60164,24326,2817,14338,0,0,0,0,0,0,0,26886,0,7939,0,0,0,31489,48896,2820,0,0,0,0,0,0,0,46080,0,659,49098,independent_20260430_213930,trial_001,subject_001,1777556374.5517848,279166.1608978,2503032,1,0,0,1,-7.330793338567444,518.6309765396367,823.9932814743705,79.90243689245251,531.121338279022,827.3349871291587,47.81013212222984,303.8290225396867,879.5343168963522,107.3788368994734,309.4898359227196,866.5673882194544,-125.60171372932751,401.19992666561126,689.6311114899728,-117.00616900423006,300.9023757281512,409.5017043374998,-128.4971563284484,228.7623246158828,282.06305052830555,-70.77999497014561,151.30537798090035,89.94425380346219,-20.242095117872,86.04888831911721,54.46824668087424,-39.14865703208518,358.36099272877084,54.87170153829618,227.1360302037091,525.8250025509258,701.7309403610869,211.10902269514736,662.3423998885122,447.0839203063452,245.47821033209087,663.7678193201909,306.2971015046897,200.6938375901694,735.1043082587703,83.67111815048577,147.70348709565445,693.7717270844945,30.20040587161887,193.6549147676228,924.2261337209392,147.8322067782371,59.42048455470936,40.579515445290646,62.621894693668246,37.37810530633176,113.20945891682004,72.48306658707135,72.7959122058945,72.1702209682482,144.9661331741427,144.9661331741427,1.3676281248256978,1.3676281248256978,22.334437898962367,1.0599820999777876,0
1777556374.559,7.942629629629636,21.34807407407408,36.497074,-10.74963,1.289925925925928,51.946704,13.502778,84.144287,29.052734,3.429668,-3.88916,11.71875,10.667417,-46.999512,-4.516602,-0.795146,87.703857,138.183594,1.22146,9.266968,23.681641,8.138276,-35.952759,5.187988,-1.777104,103.859253,52.91748,0.493374,10.629272,94.909668,10.681787,-99.041748,-58.410645,-5.915698,-1.697388,6.713867,-0.421523,0.730591,9.643555,0.641865,-87.341309,-0.915527,9.637559,104.468994,-201.721191,-1.029858,-3.751831,70.251465,16.846567,-27.773438,68.969727,-1.997446,155.791626,88.195801,-0.253872,1.389771,-67.626953,11.678115,-140.454712,-20.568848,-12.525952,76.393433,-303.283691,10.854229,6.734619,82.092285,-8.63165,-106.66626,-38.024902,9.551338,0,7944,38919,46083,30723,0,0,60164,24326,2817,14338,0,0,0,0,0,0,0,26886,0,7939,0,0,0,31489,48896,2820,0,0,0,0,0,0,0,46080,0,659,49098,independent_20260430_213930,trial_001,subject_001,1777556374.5617857,279166.1710467,2503033,1,0,0,1,-7.547340265480664,519.3796202556152,820.7335563856226,80.12265735711088,532.4539053491415,824.3371139535927,49.30756619546888,304.5932839364659,876.3697633152254,108.8521838365285,310.6965981931449,863.1528221226862,-125.38555834122516,398.8552261930982,687.0414230852839,-116.88332058178024,293.390495319228,408.7069098389491,-128.7104331029723,218.8652186125309,282.53083875512453,-71.47589245297318,137.7461972745944,91.93863245551312,-21.151781368054746,71.54120828057358,55.27230790983842,-40.15716371178182,343.9214121475775,54.26959198352711,227.6043955255836,528.363780410339,699.7032540331626,211.2335691393859,664.1677153195152,445.3214944038619,247.0188347052083,670.3936901194032,304.9236451067956,201.8649877782145,749.2720277680542,84.57594780278657,149.54477784120482,709.7173168822889,28.28912611029512,192.2519278298306,935.4810611055892,153.3101507924666,59.42048455470936,40.579515445290646,62.621894693668246,37.37810530633176,113.20945891682004,72.48306658707135,72.7959122058945,72.1702209682482,144.9661331741427,144.9661331741427,1.3676281248256978,1.3676281248256978,22.334437898962367,1.0599820999777876,0
1777556374.585,7.854629629629628,21.34807407407408,36.497074,-10.70063,1.289925925925928,60.010704,13.502778,84.056396,-28.808594,-0.062271,-2.323608,65.368652,7.994575,-43.846436,-19.714355,-0.900527,87.703857,138.183594,1.22146,9.266968,23.681641,8.138276,-35.952759,5.187988,-1.777104,103.859253,52.91748,0.493374,10.629272,94.909668,10.681787,-99.041748,-58.410645,-5.915698,-1.647949,6.713867,-0.387993,0.812988,4.577637,0.244292,-87.434692,-0.671387,9.896221,104.468994,-201.721191,-1.029858,-3.751831,70.251465,16.846567,-27.773438,68.969727,-1.997446,153.665771,-147.827148,1.978286,3.240967,52.246094,4.018843,-140.987549,8.483887,-5.096602,76.393433,-303.283691,10.854229,6.734619,82.092285,-8.63165,-106.66626,-38.024902,9.551338,0,7944,38919,46083,30723,0,0,60164,24326,2817,14338,0,0,0,0,0,0,0,0,0,0,0,0,0,0,0,0,0,0,0,0,0,0,0,0,0,659,49099,independent_20260430_213930,trial_001,subject_001,1777556374.581807,279166.1907354,2503035,1,0,0,1,-7.424666488767267,520.7775281534205,813.9726491901065,80.05172782868159,535.6073405071829,818.5192217012371,52.48878602560216,307.062702318484,869.955962247785,111.870534333013,313.97676647062565,856.8285531969394,-124.45849906920094,394.9975773060179,681.9365342224445,-116.2558063788434,280.7573848155748,407.2126933551184,-128.88276596694018,200.8330095473096,284.40688738796445,-72.6973445181094,110.97337966908516,96.86898888181824,-22.746677293027915,43.212204510994894,56.83247696757411,-41.86436360611687,315.23081421135726,53.66329576925087,227.3465601109129,536.3039596398871,696.5283253373823,212.6563011105092,667.6081202558612,440.7026365127538,248.01737583622247,678.3482393765494,300.3669902067063,201.2784644695883,766.1608809699618,83.21263912245657,148.41144719391258,730.3998713508406,27.39349975719817,192.5329566125354,948.583580629287,155.57107552786843,59.42048455470936,40.579515445290646,62.621894693668246,37.37810530633176,113.20945891682004,72.48306658707135,72.7959122058945,72.1702209682482,144.9661331741427,144.9661331741427,1.3676281248256978,1.3676281248256978,22.334437898962367,1.0599820999777876,0
1777556374.594,7.854629629629628,21.34807407407408,36.497074,-10.70063,1.289925925925928,60.010704,13.502778,84.056396,-28.808594,-0.062271,-2.323608,65.368652,7.994575,-43.846436,-19.714355,-0.900527,87.703857,138.183594,1.22146,9.266968,23.681641,8.138276,-35.952759,5.187988,-1.777104,103.859253,52.91748,0.493374,10.629272,94.909668,10.681787,-99.041748,-58.410645,-5.915698,-1.647949,6.713867,-0.387993,0.812988,4.577637,0.244292,-87.434692,-0.671387,9.896221,104.468994,-201.721191,-1.029858,-3.751831,70.251465,16.846567,-27.773438,68.969727,-1.997446,153.665771,-147.827148,1.978286,3.240967,52.246094,4.018843,-140.987549,8.483887,-5.096602,76.393433,-303.283691,10.854229,6.734619,82.092285,-8.63165,-106.66626,-38.024902,9.551338,0,7944,38919,46083,30723,0,0,60164,24326,2817,14338,0,0,0,0,0,0,0,0,0,0,0,0,0,0,0,0,0,0,0,0,0,0,0,0,0,659,49099,independent_20260430_213930,trial_001,subject_001,1777556374.5908127,279166.2005374,2503036,1,0,0,1,-6.972173148565435,521.3825331418498,810.7948940526602,80.01535605923924,537.600489301227,815.9428718276606,54.32592430218422,308.8471515796185,867.0077678782663,113.7173689090727,316.01326825051336,853.9957581439305,-123.76274063234985,393.7437542201428,679.5140450944085,-115.94511866104172,275.5917642163968,406.58537488520005,-128.92623389685,192.64316369301005,285.86119531330394,-73.23644420985012,98.13246248981822,100.2057355580121,-23.38931771305869,29.18279297294572,59.3610477131845,-42.674852319077466,300.8524002671396,53.02429470832821,226.9583545646976,540.845242115628,694.9542449308173,213.0608545168909,669.7964186499361,437.9229798507876,247.4577578171815,679.9338792563764,297.0846066944775,199.8591891612915,768.7069983603594,80.5885085877099,145.8338530873376,735.0538774886312,26.385730137855,193.8644334116464,950.9489771416642,154.90009312931713,59.42048455470936,40.579515445290646,62.621894693668246,37.37810530633176,113.20945891682004,72.48306658707135,72.7959122058945,72.1702209682482,144.9661331741427,144.9661331741427,1.3676281248256978,1.3676281248256978,22.334437898962367,1.0599820999777876,0
1777556374.605,7.854629629629628,21.34807407407408,36.497074,-10.70063,1.289925925925928,60.010704,13.502778,84.056396,-28.808594,-0.062271,-2.323608,65.368652,7.994575,-43.846436,-19.714355,-0.900527,87.703857,138.183594,1.22146,9.266968,23.681641,8.138276,-35.952759,5.187988,-1.777104,103.859253,52.91748,0.493374,10.629272,94.909668,10.681787,-99.041748,-58.410645,-5.915698,-1.647949,6.713867,-0.387993,0.812988,4.577637,0.244292,-87.434692,-0.671387,9.896221,104.468994,-201.721191,-1.029858,-3.751831,70.251465,16.846567,-27.773438,68.969727,-1.997446,153.665771,-147.827148,1.978286,3.240967,52.246094,4.018843,-140.987549,8.483887,-5.096602,76.393433,-303.283691,10.854229,6.734619,82.092285,-8.63165,-106.66626,-38.024902,9.551338,0,7944,38919,46083,30723,0,0,60164,24326,2817,14338,0,0,0,0,0,0,0,0,0,0,0,0,0,0,0,0,0,0,0,0,0,0,0,0,0,659,49099,independent_20260430_213930,trial_001,subject_001,1777556374.6018114,279166.2108826,2503037,1,0,0,1,-6.66813033841423,522.9200027131844,807.7598331810076,80.16177348870423,539.9546931357287,813.5536397218358,56.24134545665223,311.03030763125776,864.2799613769032,115.80362327230064,318.5660206802024,851.4242189424822,-122.8261206895492,393.1019747231905,677.2056707820065,-115.34489705107995,270.95005201364216,406.10059380601535,-128.9143847517643,185.12981102479569,287.55546487974703,-74.60574380089687,85.28243470369034,104.29688092705284,-24.070465898024,15.336836780010334,62.99755390536168,-43.68031182391342,286.52301075462736,52.403048151524565,226.38222186379028,545.1925724565364,693.4009618577011,213.07041094702632,672.4761583803937,434.8308739391566,246.369511513504,680.3169715112207,293.3983285652647,197.8090564387128,767.6128259540038,76.62982857665884,142.5950762126118,735.5965893815884,25.878544568811083,195.4201126561761,950.8323703011048,151.35016971554722,59.42048455470936,40.579515445290646,62.621894693668246,37.37810530633176,113.20945891682004,72.48306658707135,72.7959122058945,72.1702209682482,144.9661331741427,144.9661331741427,1.3676281248256978,1.3676281248256978,22.334437898962367,1.0599820999777876,0
1777556374.609,7.854629629629628,13.235074074074078,32.135074,-12.11263,10.122925925925928,60.010704,4.021778,84.056396,-28.808594,-0.062271,-2.323608,65.368652,7.994575,-43.846436,-19.714355,-0.900527,95.817261,159.851074,0.182021,9.53064,53.222656,9.297466,-33.711548,-15.380859,-1.432222,105.595093,33.752441,0.148491,10.969849,-97.961426,10.815908,-102.019043,20.996094,-3.875142,-1.323853,10.070801,-0.100591,1.071167,8.972168,0.617915,-87.434692,2.685547,10.538086,95.635986,-152.22168,1.930386,-7.904663,74.09668,9.695039,-25.757446,72.265625,-3.305127,153.665771,-147.827148,1.978286,3.240967,52.246094,4.018843,-140.987549,8.483887,-5.096602,64.786377,-264.160156,5.666616,8.778076,15.930176,-0.392783,-105.320435,-12.145996,13.733042,0,7944,38919,46083,30723,0,0,60164,24326,2817,14338,0,0,0,0,0,0,0,0,0,0,0,0,0,0,0,0,0,0,0,0,0,0,0,0,0,659,49099,independent_20260430_213930,trial_001,subject_001,1777556374.611825,279166.2208588,2503038,1,0,0,1,-6.174861254024085,524.967743161758,804.9767889291926,80.55744632802451,542.6326656957064,811.169473317745,58.51474929526772,313.7682132900068,861.8979931837683,117.88346312988836,321.5765391613936,849.1113450993906,-121.59481793107012,393.0504147900334,674.7663313788688,-114.77304121299764,267.5824355294196,405.5281294613122,-129.0419209021312,178.48110408391557,289.5563229333259,-75.81384193105791,73.29324204641124,108.74873005564147,-24.69429977109161,1.6122726494611272,67.96980620235414,-44.53829301238074,272.31380230363214,51.825741730708586,226.0815749994925,549.3300978883904,691.6484194284776,212.61488137104564,675.2339207661208,431.4508509500768,244.6356178652813,679.7274404455717,289.2861195907513,195.0446133485606,762.6069018436959,72.17365865066265,139.32714978648033,729.571394708406,25.798664184225814,195.1222373336694,949.3675849675486,145.22235478610196,59.42048455470936,40.579515445290646,61.16487830325179,38.8351216967482,113.20945891682004,72.48306658707135,72.7959122058945,72.1702209682482,144.9661331741427,144.9661331741427,1.3676281248256978,1.3676281248256978,22.334437898962367,1.0599820999777876,0
1777556374.617,6.986629629629633,13.235074074074078,25.615074,-12.11263,15.840925925925916,62.855704,-0.416222,83.188477,-23.803711,0.330513,-1.444702,55.053711,4.818779,-42.149048,-24.169922,-0.134121,95.817261,159.851074,0.182021,9.53064,53.222656,9.297466,-33.711548,-15.380859,-1.432222,107.18811,35.15625,4.061953,10.310669,123.413086,8.746611,-99.585571,-24.047852,-2.093247,-1.323853,10.070801,-0.100591,1.071167,8.972168,0.617915,-87.434692,2.685547,10.538086,89.917603,-140.075684,1.346001,-10.310669,171.508789,7.213799,-21.121216,49.865723,-5.728887,147.678223,-219.055176,-0.455054,1.455688,63.110352,2.533931,-140.267944,5.249023,-9.431587,54.360352,-381.04248,5.839058,7.992554,-9.70459,2.687212,-105.161133,46.325684,13.948594,0,7944,38919,46083,30723,0,0,60164,24326,2817,14338,0,0,0,0,0,0,0,0,0,0,0,0,0,0,0,0,0,0,0,0,0,0,0,0,0,659,49099,independent_20260430_213930,trial_001,subject_001,1777556374.6213462,279166.2307041,2503039,1,0,0,1,-5.360816283955328,527.491380352952,802.2756606418827,81.30845412786599,545.6913164243516,808.8802697791059,60.934164366632,316.8831030991894,859.7679470257303,120.34182493785929,325.2048627899282,847.039879518584,-119.94554239507306,393.5912064187404,672.2309423479787,-114.09870843634836,265.1759590368736,404.9391104450272,-129.12598370329815,173.03595923510866,291.79974342283845,-77.11027418653539,62.146064664595606,113.80649723278998,-24.94173207725416,-12.18147890634732,74.4891417736888,-45.37617592909674,258.1588001473965,51.23680844916231,226.5675639037621,553.4079468850531,689.6296948368409,211.9384149945937,678.064364855201,427.8298564527648,242.29047815372184,678.2571875377807,284.896452949654,193.1634437538781,753.0742230628026,69.817813752839,137.0878177756785,718.3006113434,26.09517907788951,192.83107709051976,944.7991227816798,136.9791452402725,59.42048455470936,40.579515445290646,61.16487830325179,38.8351216967482,113.20945891682004,72.48306658707135,72.7959122058945,72.1702209682482,144.9661331741427,144.9661331741427,1.3676281248256978,1.3676281248256978,22.334437898962367,1.0599820999777876,0
1777556374.63,6.849629629629632,13.235074074074078,27.411074,-12.11263,21.268925925925927,59.306704,-0.416222,83.051147,10.314941,0.440684,-0.379028,62.255859,3.836821,-40.259399,-20.019531,0.684976,95.817261,159.851074,0.182021,9.53064,53.222656,9.297466,-33.711548,-15.380859,-1.432222,108.984375,25.695801,-7.170688,10.046997,-2.380371,7.951465,-96.547852,6.408691,-2.212998,-1.323853,10.070801,-0.100591,1.071167,8.972168,0.617915,-87.434692,2.685547,10.538086,84.490356,-106.140137,-1.556763,-10.947876,171.936035,3.966152,-14.749146,18.127441,-4.449946,138.411255,-294.006348,0.229922,-0.76355,97.167969,3.491938,-138.521118,-7.263184,-6.09772,54.360352,-381.04248,5.839058,7.992554,-9.70459,2.687212,-105.161133,46.325684,13.948594,0,7944,38919,46083,30723,0,0,60164,24326,2817,14338,0,0,0,0,0,0,0,0,0,0,0,0,0,0,0,0,0,0,0,0,0,0,0,0,0,659,49100,independent_20260430_213930,trial_001,subject_001,1777556374.6313443,279166.2409433,2503040,1,0,0,1,-4.270614359799965,530.5318890820599,799.6860300810416,82.39154707919111,549.1535861490888,806.6250685694924,63.39667494540599,320.4827986409693,857.8868756435422,122.71050947881002,329.30425551460314,845.2304416623108,-118.28543144360006,394.6966790898442,669.8755274082511,-113.33517026551873,263.88872118924104,404.2573124188726,-129.19847183690186,168.20564182783747,294.0788548650109,-78.0611642261629,51.638674302988846,118.76869757770883,-26.331995606961165,-24.95113750814328,82.71801343621252,-46.32956043019119,244.0809634551564,50.57313093670604,227.70003370024068,557.2523908141973,687.2780618720902,210.7078282562709,680.3866689161661,423.6833504604486,239.5868828063954,676.1233333914946,280.6022058493894,192.39780869301345,744.5767678650097,67.97195139220607,135.87916305774044,706.9326928859766,26.70017884405477,191.12099598403543,939.6950382411666,127.16116632621484,59.42048455470936,40.579515445290646,61.16487830325179,38.8351216967482,113.20945891682004,72.48306658707135,72.7959122058945,72.1702209682482,144.9661331741427,144.9661331741427,1.3676281248256978,1.3676281248256978,22.334437898962367,1.0599820999777876,2
1777556374.637,6.849629629629632,13.235074074074078,27.411074,-12.11263,21.268925925925927,59.306704,-0.416222,83.051147,10.314941,0.440684,-0.379028,62.255859,3.836821,-40.259399,-20.019531,0.684976,95.817261,159.851074,0.182021,9.53064,53.222656,9.297466,-33.711548,-15.380859,-1.432222,108.984375,25.695801,-7.170688,10.046997,-2.380371,7.951465,-96.547852,6.408691,-2.212998,-1.323853,10.070801,-0.100591,1.071167,8.972168,0.617915,-87.434692,2.685547,10.538086,84.490356,-106.140137,-1.556763,-10.947876,171.936035,3.966152,-14.749146,18.127441,-4.449946,138.411255,-294.006348,0.229922,-0.76355,97.167969,3.491938,-138.521118,-7.263184,-6.09772,54.360352,-381.04248,5.839058,7.992554,-9.70459,2.687212,-105.161133,46.325684,13.948594,0,7944,38919,46083,30723,0,0,60164,24326,2817,14338,0,0,0,0,0,0,0,0,0,0,0,0,0,0,0,0,0,0,0,0,0,0,0,0,0,659,49101,independent_20260430_213930,trial_001,subject_001,1777556374.6413453,279166.2506486,2503041,1,0,0,1,-2.7619245712812392,533.7001191350375,797.2539456835603,83.82700543264436,552.8457982340011,804.4843278540916,65.87670340969959,324.1222334969459,856.4450870124954,125.3387572903754,333.5224313068771,843.8335355929332,-116.51658022191718,396.577404401282,667.4410015072026,-112.65647525269976,263.7106399518105,403.4067780119672,-129.25846793996433,164.57538533383033,296.5888184508248,-79.63599877286237,41.71871920907542,124.87716406428862,-27.72369998622352,-36.500422097809576,92.75322393288396,-47.33881820628466,230.54410165606345,49.83113462941374,229.18150818907424,560.6203801349322,684.5110261631195,209.26914551603284,682.6151682454627,419.822538788453,236.7098023196313,673.8776561647354,277.0574743217325,191.4020732345134,736.0033556818762,66.29935711894143,135.28583240520598,694.9186145449005,27.946354845052824,187.68309694691297,935.3430085024436,115.26817801361436,59.42048455470936,40.579515445290646,61.16487830325179,38.8351216967482,113.20945891682004,72.48306658707135,72.7959122058945,72.1702209682482,144.9661331741427,144.9661331741427,1.3676281248256978,1.3676281248256978,22.334437898962367,1.0599820999777876,2
1777556374.652,6.849629629629632,13.235074074074078,27.411074,-12.11263,21.268925925925927,59.306704,-0.416222,83.051147,10.314941,0.440684,-0.379028,62.255859,3.836821,-40.259399,-20.019531,0.684976,95.817261,159.851074,0.182021,9.53064,53.222656,9.297466,-33.711548,-15.380859,-1.432222,108.984375,25.695801,-7.170688,10.046997,-2.380371,7.951465,-96.547852,6.408691,-2.212998,-1.323853,10.070801,-0.100591,1.071167,8.972168,0.617915,-87.434692,2.685547,10.538086,84.490356,-106.140137,-1.556763,-10.947876,171.936035,3.966152,-14.749146,18.127441,-4.449946,138.411255,-294.006348,0.229922,-0.76355,97.167969,3.491938,-138.521118,-7.263184,-6.09772,54.360352,-381.04248,5.839058,7.992554,-9.70459,2.687212,-105.161133,46.325684,13.948594,0,7944,38919,46083,30723,0,0,60164,24326,2817,14338,0,0,0,0,0,0,0,0,0,0,0,0,0,0,0,0,0,0,0,0,0,0,0,0,0,659,49101,independent_20260430_213930,trial_001,subject_001,1777556374.6513455,279166.2609476,2503042,1,0,0,1,-1.0544187260010411,536.9512990220896,794.9487024221855,85.5087081117468,556.6236098273113,802.4354502555282,68.17802076406696,327.8232816983911,855.2260164582278,128.2767932158203,337.39281870910594,842.9755875774464,-114.4913200661786,399.1150495596374,665.0734931459103,-111.81385902185136,264.64103403887754,402.61611057953553,-129.31032844856313,162.35121279417868,299.45249997965755,-81.69892698226269,33.029552813063496,132.0755578994841,-28.51574165215648,-48.28882284305103,104.7830238753395,-48.612662998036,217.0042295665665,48.84038971717419,231.08600362045576,563.3702912754694,681.95974396657,208.29601163357137,685.1398613606503,417.7399853092981,233.9870093261067,672.593462048842,275.4003754227185,190.99943360390856,727.1542327736545,66.26545322996756,134.70131146129546,683.2547379377506,29.102563147447547,184.5046707395907,929.5734358817213,103.68619469687056,59.42048455470936,40.579515445290646,61.16487830325179,38.8351216967482,113.20945891682004,72.48306658707135,72.7959122058945,72.1702209682482,144.9661331741427,144.9661331741427,1.3676281248256978,1.3676281248256978,22.334437898962367,1.0599820999777876,2
1777556374.662,7.459629629629632,1.7710740740740647,27.411074,-14.45763,21.268925925925927,52.880704,-3.915222,83.660889,14.221191,-0.335303,0.346069,56.030273,6.380332,-38.182983,-10.620117,0.01437,107.281494,126.159668,-1.135239,8.091431,144.104004,9.014854,-24.763184,4.394531,-0.234712,108.984375,25.695801,-7.170688,10.046997,-2.380371,7.951465,-96.547852,6.408691,-2.212998,-0.280151,21.484375,-0.316143,1.71936,9.94873,-0.656235,-87.176514,5.737305,10.188413,84.490356,-106.140137,-1.556763,-10.947876,171.936035,3.966152,-14.749146,18.127441,-4.449946,126.557007,-353.57666,-1.130449,-2.636719,87.036133,3.156636,-135.631714,-21.972656,-7.630532,41.594238,-358.093262,-0.086221,5.581055,-51.452637,4.742139,-104.425049,66.833496,9.307046,0,7944,38919,46083,30723,0,0,60164,24326,2817,14338,0,0,0,0,0,0,0,0,0,0,0,0,0,0,0,0,0,0,0,0,0,0,0,0,0,659,49101,independent_20260430_213930,trial_001,subject_001,1777556374.6618557,279166.2708875,2503043,1,0,0,1,0.985585590168576,540.1400220871598,793.0816699503732,87.39122179878991,560.2579833716269,800.779436228244,70.51891944665053,331.20711699509064,854.3413466410952,130.59275522368327,341.067987088313,842.7889332026981,-112.17515373586755,402.4734577510624,662.6414250306043,-110.67938393143574,267.1135602141688,401.5916850403144,-129.14519776897907,161.3785691375773,302.45750065899455,-83.37975970246657,25.749047579178715,139.30860468583884,-29.19665508987593,-57.63485503832746,118.70092678196607,-49.68568904771042,203.68044685826405,47.37574473004434,233.8036355978466,565.6861717106599,680.4377562255033,207.64661910476656,688.1209250787524,417.7209736389415,232.0669496147891,673.348311578732,275.8616083271064,189.3840095030339,718.0991846810946,65.10152637194764,134.63246101521892,671.1928906118277,30.44619942897487,181.44373260230293,921.760655005128,92.35826030121272,59.42048455470936,40.579515445290646,61.16487830325179,38.8351216967482,113.20945891682004,72.48306658707135,72.7959122058945,72.1702209682482,144.9661331741427,144.9661331741427,1.3676281248256978,1.3676281248256978,22.334437898962367,1.0599820999777876,2
1777556374.68,7.459629629629632,1.7710740740740647,27.411074,-14.45763,21.268925925925927,52.880704,-3.915222,83.660889,14.221191,-0.335303,0.346069,56.030273,6.380332,-38.182983,-10.620117,0.01437,107.281494,126.159668,-1.135239,8.091431,144.104004,9.014854,-24.763184,4.394531,-0.234712,108.984375,25.695801,-7.170688,10.046997,-2.380371,7.951465,-96.547852,6.408691,-2.212998,-0.280151,21.484375,-0.316143,1.71936,9.94873,-0.656235,-87.176514,5.737305,10.188413,84.490356,-106.140137,-1.556763,-10.947876,171.936035,3.966152,-14.749146,18.127441,-4.449946,126.557007,-353.57666,-1.130449,-2.636719,87.036133,3.156636,-135.631714,-21.972656,-7.630532,41.594238,-358.093262,-0.086221,5.581055,-51.452637,4.742139,-104.425049,66.833496,9.307046,0,7944,38919,46083,30723,0,0,60164,24326,2817,14338,0,0,0,0,0,0,0,0,0,0,0,0,0,0,0,0,0,0,0,0,0,0,0,0,0,659,49101,independent_20260430_213930,trial_001,subject_001,1777556374.6813717,279166.2909437,2503045,1,0,0,1,5.165167574317549,546.2560513635603,790.7906050190934,91.35157355424332,566.3747492844158,799.6730214183392,72.5918317811735,336.8555072515006,853.6753792054108,133.1288711565276,346.56319396438295,844.1879125941074,-106.82227256300663,410.5878355832779,657.8842010909246,-108.52494484560854,277.38886595120306,398.60657000373817,-128.32048738916473,164.68940985628478,308.70415680689365,-86.13561116908906,16.04659981798797,156.5805755042468,-31.95108006726205,-71.17606390072423,134.10215741714342,-51.499877732586405,178.73658035462157,44.73633674509525,239.16787588940417,570.6102921068239,680.8658387570575,207.3062341271842,695.5649683903546,420.4388069703026,235.93631649566385,676.9023348601252,278.6087647164365,188.898358750136,697.346146686898,65.2371706781881,135.49336460380636,645.6818728548551,31.936236379978546,180.51384007147536,902.4661562480168,81.85361472695611,59.42048455470936,40.579515445290646,61.16487830325179,38.8351216967482,113.20945891682004,72.48306658707135,72.7959122058945,72.1702209682482,144.9661331741427,144.9661331741427,1.3676281248256978,1.3676281248256978,22.334437898962367,1.0599820999777876,2
1777556374.695,7.613629629629628,1.7710740740740647,19.018074,-14.04563,26.250925925925927,47.315704,-3.915222,83.814697,7.93457,-0.450264,0.571289,49.865723,7.079678,-37.441406,-8.911133,0.086221,107.281494,126.159668,-1.135239,8.091431,144.104004,9.014854,-24.763184,4.394531,-0.234712,112.055054,70.678711,0.708926,9.343872,57.434082,8.099956,-95.828247,4.760742,-0.962798,0.131836,28.015137,-0.124541,1.884155,13.73291,-0.129331,-87.094116,6.530762,9.010063,79.508057,-60.119629,-1.039438,-10.222778,100.036621,3.846401,-8.151855,-6.347656,-5.249883,120.992432,-371.154785,-1.470542,-2.91687,62.194824,4.138594,-134.604492,-22.705078,-8.234077,41.594238,-358.093262,-0.086221,5.581055,-51.452637,4.742139,-104.425049,66.833496,9.307046,0,7944,38919,46083,30723,0,0,60164,24326,2817,14338,0,0,0,0,0,0,0,0,0,0,0,0,0,0,0,0,0,0,0,0,0,0,0,0,0,659,49101,independent_20260430_213930,trial_001,subject_001,1777556374.69137,279166.3007841,2503046,1,0,0,1,7.588370348579815,549.1368667541759,790.6095899141081,93.78709469418436,568.8595701352697,800.4763563440782,72.79348016669383,339.102735206767,853.4755048640675,133.64851616120026,348.5533173619521,844.8870694253906,-103.98836928979232,415.1212397987123,655.8327370568813,-107.5717390164937,285.4106728766742,396.7011515429823,-127.52488539008594,169.0396679211604,311.66613897855893,-86.8482456669836,13.930351887671204,166.26417217422778,-32.82526265510069,-74.27917550196703,151.13945378878503,-51.95884942273764,167.2412187574662,41.979890361513625,241.1243549909049,573.4307676185103,682.5389779732918,208.2208987808912,699.3129613557667,420.61837092063945,240.2932715787569,677.0171523688105,279.80132792882307,188.66397323517447,684.9831597365312,65.39335845792425,135.71261499155983,632.2130956887294,33.54343267925074,181.89264775015224,889.1442434832624,72.60740316203366,59.42048455470936,40.579515445290646,61.16487830325179,38.8351216967482,113.20945891682004,72.48306658707135,72.7959122058945,72.1702209682482,144.9661331741427,144.9661331741427,1.3676281248256978,1.3676281248256978,22.334437898962367,1.0599820999777876,2
