timestamp,torso_angle,left_hip_angle,left_knee_angle,left_ankle_angle,right_hip_angle,right_knee_angle,right_ankle_angle,imu1ang_x,imu1vel_x,imu1acc_x,imu1ang_y,imu1vel_y,imu1acc_y,imu1ang_z,imu1vel_z,imu1acc_z,imu2ang_x,imu2vel_x,imu2acc_x,imu2ang_y,imu2vel_y,imu2acc_y,imu2ang_z,imu2vel_z,imu2acc_z,imu3ang_x,imu3vel_x,imu3acc_x,imu3ang_y,imu3vel_y,imu3acc_y,imu3ang_z,imu3vel_z,imu3acc_z,imu4ang_x,imu4vel_x,imu4acc_x,imu4ang_y,imu4vel_y,imu4acc_y,imu4ang_z,imu4vel_z,imu4acc_z,imu5ang_x,imu5vel_x,imu5acc_x,imu5ang_y,imu5vel_y,imu5acc_y,imu5ang_z,imu5vel_z,imu5acc_z,imu6ang_x,imu6vel_x,imu6acc_x,imu6ang_y,imu6vel_y,imu6acc_y,imu6ang_z,imu6vel_z,imu6acc_z,imu7ang_x,imu7vel_x,imu7acc_x,imu7ang_y,imu7vel_y,imu7acc_y,imu7ang_z,imu7vel_z,imu7acc_z,L_1,L_2,L_3,L_4,L_5,L_6,L_7,L_8,L_9,L_10,L_11,L_12,L_13,L_14,L_15,L_16,L_17,L_18,R_1,R_2,R_3,R_4,R_5,R_6,R_7,R_8,R_9,R_10,R_11,R_12,R_13,R_14,R_15,R_16,R_17,R_18,frame_id_left,frame_id_right,vicon_Session_ID,vicon_Trial_ID,vicon_Subject_ID,vicon_Vicon_Recv_Timestamp,vicon_Vicon_Recv_Timestamp_Mono,vicon_Vicon_Frame_Num,vicon_Vicon_Subject_Name,vicon_Vicon_Gap_Flag,vicon_Vicon_Gap_Size,vicon_Vicon_Original_Valid_Flag,vicon_Vicon_LASI_X,vicon_Vicon_LASI_Y,vicon_Vicon_LASI_Z,vicon_Vicon_RASI_X,vicon_Vicon_RASI_Y,vicon_Vicon_RASI_Z,vicon_Vicon_LPSI_X,vicon_Vicon_LPSI_Y,vicon_Vicon_LPSI_Z,vicon_Vicon_RPSI_X,vicon_Vicon_RPSI_Y,vicon_Vicon_RPSI_Z,vicon_Vicon_LTHI_X,vicon_Vicon_LTHI_Y,vicon_Vicon_LTHI_Z,vicon_Vicon_LKNE_X,vicon_Vicon_LKNE_Y,vicon_Vicon_LKNE_Z,vicon_Vicon_LTIB_X,vicon_Vicon_LTIB_Y,vicon_Vicon_LTIB_Z,vicon_Vicon_LANK_X,vicon_Vicon_LANK_Y,vicon_Vicon_LANK_Z,vicon_Vicon_LHEE_X,vicon_Vicon_LHEE_Y,vicon_Vicon_LHEE_Z,vicon_Vicon_LTOE_X,vicon_Vicon_LTOE_Y,vicon_Vicon_LTOE_Z,vicon_Vicon_RTHI_X,vicon_Vicon_RTHI_Y,vicon_Vicon_RTHI_Z,vicon_Vicon_RKNE_X,vicon_Vicon_RKNE_Y,vicon_Vicon_RKNE_Z,vicon_Vicon_RTIB_X,vicon_Vicon_RTIB_Y,vicon_Vicon_RTIB_Z,vicon_Vicon_RANK_X,vicon_Vicon_RANK_Y,vicon_Vicon_RANK_Z,vicon_Vicon_RHEE_X,vicon_Vicon_RHEE_Y,vicon_Vicon_RHEE_Z,vicon_Vicon_RTOE_X,vicon_Vicon_RTOE_Y,vicon_Vicon_RTOE_Z,left_pct_stance,left_pct_swing,right_pct_stance,right_pct_swing,step_frequency,step_length,left_step_length,right_step_length,left_stride_length,right_stride_length,left_step_speed,right_step_speed,step_width,cycle_time,phase_label
1777556074.342,3.4326296296296306,30.489074074074068,73.213074,-13.99663,9.144925925925918,17.492704,-6.376222,79.634399,-13.916016,-0.359253,2.757568,-36.804199,6.935977,-41.253662,22.216797,0.541274,78.563232,-156.494141,1.513652,9.909668,-214.172363,4.478687,-23.236084,7.995605,-6.12646,150.430298,-174.743652,2.371069,-10.887451,-39.489746,1.666934,-104.27124,-46.75293,-8.655601,41.627197,-371.948242,1.293311,-2.493896,34.545898,3.894302,-87.544556,-36.865234,8.674761,96.61377,151.062012,-2.897974,-11.096191,-108.947754,8.770562,-15.754395,30.578613,-1.413062,103.293457,33.26416,-3.879932,-4.493408,-150.939941,8.669971,-122.025146,37.109375,-2.960244,2.416992,5.67627,0.349673,-0.895386,7.873535,0.512534,-101.975098,0.732422,10.566826,0,7944,38919,46083,30723,0,0,60164,24326,2817,14338,0,0,0,0,0,0,0,0,0,37404,50708,59652,0,0,0,1824,56082,8965,0,0,0,34057,25602,0,0,659,43324,independent_20260430_213431,trial_001,subject_001,1777556074.3460865,278865.9557864,2473012,1,0,0,1,47.167561169205534,652.0867533644142,811.1709243172049,134.27157405190673,637.9936962474088,804.7543190331958,34.337648338539786,428.19276985721535,862.7571335169752,94.1497300823957,419.1948299513198,860.1110157660077,-97.01405356273584,651.2938845187207,698.0599354674332,-83.46642402663153,752.4970268332653,425.08518538814633,-94.98787801169073,782.4861429812601,282.6755530620255,-35.28802826799768,863.6395189865507,88.63758430608331,20.37873252632291,836.8428339552411,29.649502523885005,3.8847287617585216,1066.903705032984,160.58276838500132,236.5562598192653,503.9078770845677,658.8805689262821,186.3672149802456,391.3672853152861,389.5813753513276,196.2160657838484,288.42360489064345,289.84562322635963,116.9434847020778,173.54459798236073,99.5903897227011,59.0487431483405,102.41912355543732,78.16572181575471,113.645018380486,357.32607962265405,48.18145252824517,58.87255424559282,41.127445754407184,60.4736503807207,39.52634961927931,112.1535262135154,73.93380207153535,74.42523310309032,73.44237103998037,147.8676041430707,147.8676041430707,1.3819894347824666,1.3819894347824666,21.21441625387997,1.069961900007911,2
1777556074.359,2.4056296296296296,33.08707407407407,73.213074,-19.54963,9.144925925925918,18.926704,-6.376222,78.607178,-2.258301,1.25978,0.0,-55.541992,5.863008,-45.247192,18.920898,0.570015,75.964966,-137.634277,2.270479,8.876953,-200.98877,2.347119,-26.174927,28.991699,-4.382886,150.430298,-174.743652,2.371069,-10.887451,-39.489746,1.666934,-104.27124,-46.75293,-8.655601,36.073608,-369.689941,2.385439,-1.812744,34.423828,4.799619,-87.566528,-25.268555,9.259146,96.61377,151.062012,-2.897974,-11.096191,-108.947754,8.770562,-15.754395,30.578613,-1.413062,104.727173,35.583496,7.515571,-4.740601,-15.869141,9.206455,-125.205688,18.188477,-1.001118,2.416992,5.67627,0.349673,-0.895386,7.873535,0.512534,-101.975098,0.732422,10.566826,0,7944,38919,46083,30723,0,0,60164,24326,2817,14338,0,0,0,0,0,0,0,0,0,37404,50708,59652,0,0,0,1824,56082,8965,0,0,0,34057,25602,0,0,659,43324,independent_20260430_213431,trial_001,subject_001,1777556074.3560865,278865.9655571,2473013,1,0,0,1,47.42790169519163,654.1916904614995,809.6230208280463,134.4080642808256,639.5468022493084,802.9319188953397,33.09770727869861,430.7326924181429,861.7348739143779,93.00749809691644,421.3507374204953,859.0081203118223,-96.71612098970994,653.9551250543693,696.3859485816592,-82.01669278284483,754.3350657447517,422.6049974396873,-93.2413533544633,781.022581690672,279.6612149121931,-35.16486406737912,857.4943107347996,85.65046161745096,22.353271116840105,830.8480896896149,29.69789022145329,5.828350815552341,1063.7679806198014,152.68747350394884,236.0490736876698,503.58441364504,657.3204953051041,186.07345798325872,388.6842600394186,389.26583884326607,196.37622844575665,283.22334214689016,292.0424970723708,117.64273829696369,162.34335766620586,104.89767841959808,58.95093332862777,89.02045240079137,87.84016686369448,113.20168524442612,342.9148940213554,47.8302822839437,58.87255424559282,41.127445754407184,60.4736503807207,39.52634961927931,112.1535262135154,73.93380207153535,74.42523310309032,73.44237103998037,147.8676041430707,147.8676041430707,1.3819894347824666,1.3819894347824666,21.21441625387997,1.069961900007911,2
1777556074.369,2.4056296296296296,33.08707407407407,73.213074,-19.54963,9.144925925925918,18.926704,-6.376222,78.607178,-2.258301,1.25978,0.0,-55.541992,5.863008,-45.247192,18.920898,0.570015,75.964966,-137.634277,2.270479,8.876953,-200.98877,2.347119,-26.174927,28.991699,-4.382886,150.430298,-174.743652,2.371069,-10.887451,-39.489746,1.666934,-104.27124,-46.75293,-8.655601,36.073608,-369.689941,2.385439,-1.812744,34.423828,4.799619,-87.566528,-25.268555,9.259146,96.61377,151.062012,-2.897974,-11.096191,-108.947754,8.770562,-15.754395,30.578613,-1.413062,104.727173,35.583496,7.515571,-4.740601,-15.869141,9.206455,-125.205688,18.188477,-1.001118,2.416992,5.67627,0.349673,-0.895386,7.873535,0.512534,-101.975098,0.732422,10.566826,0,7944,38919,46083,30723,0,0,60164,24326,2817,14338,0,0,0,0,0,0,0,0,0,37404,50708,59652,0,0,0,1824,56082,8965,0,0,0,34057,25602,0,0,659,43324,independent_20260430_213431,trial_001,subject_001,1777556074.3666084,278865.9759078,2473014,1,0,0,1,47.72185983025823,656.6312595699586,808.238776110001,134.5463555404296,641.6099204391323,801.3169385692443,31.82889297734953,433.8340824523156,860.9503163095634,91.74999238713048,423.8769230870964,858.1565317978385,-96.59382392054948,657.0659306324347,694.7497976382497,-80.01835712996036,756.3878863178633,420.2045762051709,-91.64307160914878,778.5758139338607,276.55377446125766,-33.317376386851954,847.6579723053887,82.0919355570918,21.98133277170685,818.5966486630266,30.07247076519237,8.325619081476392,1058.052759461019,142.4758927418536,235.4722620541468,503.66746298063737,655.938664510579,186.02478032532824,387.7608789238103,388.2028819235847,196.68820821318903,278.98633056390094,294.29131604102616,118.6378967214439,151.7683157514304,110.77617498917388,58.74208924782625,76.56999605772194,98.90100337556086,112.8408603628406,328.7780761203367,47.311087590490814,58.87255424559282,41.127445754407184,60.4736503807207,39.52634961927931,112.1535262135154,73.93380207153535,74.42523310309032,73.44237103998037,147.8676041430707,147.8676041430707,1.3819894347824666,1.3819894347824666,21.21441625387997,1.069961900007911,2
1777556074.389,2.4056296296296296,33.08707407407407,73.213074,-19.54963,9.144925925925918,18.926704,-6.376222,78.607178,-2.258301,1.25978,0.0,-55.541992,5.863008,-45.247192,18.920898,0.570015,75.964966,-137.634277,2.270479,8.876953,-200.98877,2.347119,-26.174927,28.991699,-4.382886,150.430298,-174.743652,2.371069,-10.887451,-39.489746,1.666934,-104.27124,-46.75293,-8.655601,36.073608,-369.689941,2.385439,-1.812744,34.423828,4.799619,-87.566528,-25.268555,9.259146,96.61377,151.062012,-2.897974,-11.096191,-108.947754,8.770562,-15.754395,30.578613,-1.413062,104.727173,35.583496,7.515571,-4.740601,-15.869141,9.206455,-125.205688,18.188477,-1.001118,2.416992,5.67627,0.349673,-0.895386,7.873535,0.512534,-101.975098,0.732422,10.566826,0,7944,38919,46083,30723,0,0,60164,24326,2817,14338,0,0,0,0,0,0,0,0,0,37404,50708,59652,0,0,0,1824,56082,8965,0,0,0,34057,25602,0,0,659,43324,independent_20260430_213431,trial_001,subject_001,1777556074.3859382,278865.9952613,2473016,1,0,0,1,48.24571253403995,662.8159211693941,805.7488902755791,134.8145373770031,646.9819735032162,798.4887575364945,29.381692528512463,440.9149458601622,860.088282362657,89.05796255496297,430.25914497290216,857.1665495806966,-95.98465087576558,664.5732182673263,691.2678096312698,-75.47748134740624,759.6848280976636,414.8219613751298,-88.17965755485014,771.3580884131561,270.5448825457825,-33.52963259618079,827.3912766094694,74.6720444040535,21.099136471725902,793.877667838172,30.695914304457794,11.87563106184747,1043.1111107145034,130.5028953125557,234.22421057472383,505.7180995791574,653.2822319892535,186.61596679816105,389.1197013328009,384.7431843177321,197.6619716499587,273.4208691377588,299.03286445656886,120.57802497035355,133.77709498968628,123.63971391340532,60.329509377901886,55.92369657147387,112.1829797690366,112.38333055039284,301.3719410494666,45.800798032166206,58.87255424559282,41.127445754407184,60.4736503807207,39.52634961927931,112.1535262135154,73.93380207153535,74.42523310309032,73.44237103998037,147.8676041430707,147.8676041430707,1.3819894347824666,1.3819894347824666,21.21441625387997,1.069961900007911,2
1777556074.398,2.4056296296296296,33.08707407407407,73.213074,-19.54963,9.144925925925918,18.926704,-6.376222,78.607178,-2.258301,1.25978,0.0,-55.541992,5.863008,-45.247192,18.920898,0.570015,75.964966,-137.634277,2.270479,8.876953,-200.98877,2.347119,-26.174927,28.991699,-4.382886,150.430298,-174.743652,2.371069,-10.887451,-39.489746,1.666934,-104.27124,-46.75293,-8.655601,36.073608,-369.689941,2.385439,-1.812744,34.423828,4.799619,-87.566528,-25.268555,9.259146,96.61377,151.062012,-2.897974,-11.096191,-108.947754,8.770562,-15.754395,30.578613,-1.413062,104.727173,35.583496,7.515571,-4.740601,-15.869141,9.206455,-125.205688,18.188477,-1.001118,2.416992,5.67627,0.349673,-0.895386,7.873535,0.512534,-101.975098,0.732422,10.566826,0,7944,38919,46083,30723,0,0,60164,24326,2817,14338,0,0,0,0,0,0,0,0,0,37404,50708,59652,0,0,0,1824,56082,8965,0,0,0,34057,25602,0,0,659,43324,independent_20260430_213431,trial_001,subject_001,1777556074.3959377,278866.0054514,2473017,1,0,0,1,48.44389409879971,666.3828713370287,804.5767887442505,134.8599733379568,649.8641854815046,797.3478866125611,27.903918891512987,444.5781788586559,859.992958599171,87.53554545313764,433.7397956178288,856.7945047693884,-94.82599408161582,668.4836653015705,689.8694196356059,-74.10005733650294,759.9473638937641,412.3026880246941,-86.18301296930264,767.8800988677738,268.2453458347467,-33.87621588527574,818.7666329279369,74.5071692165197,21.059897068255808,781.9927793229433,31.328471496840265,13.200585151025344,1035.7510414224005,118.49125746083963,233.4667658153062,508.1981987287775,651.7978280459936,187.7174667186752,391.3992704295006,383.0697828923165,198.36884569516,272.45509944290365,301.6114268308057,121.85874592748236,126.62174816260996,130.88124827584258,60.95793959264625,47.96657290638267,128.04074984914183,112.00831052665691,287.84627503810555,44.02642238531432,58.87255424559282,41.127445754407184,60.4736503807207,39.52634961927931,112.1535262135154,73.93380207153535,74.42523310309032,73.44237103998037,147.8676041430707,147.8676041430707,1.3819894347824666,1.3819894347824666,21.21441625387997,1.069961900007911,2
1777556074.413,2.4056296296296296,37.125074074074064,65.797074,-9.32763,-2.335074074074072,18.926704,-8.436222,78.607178,-2.258301,1.25978,0.0,-55.541992,5.863008,-45.247192,18.920898,0.570015,71.92749,-69.824219,2.984194,5.789795,-137.145996,1.19751,-31.426392,47.424316,-3.161426,127.518311,-333.740234,1.944756,-4.191284,-51.757812,3.065625,-102.672729,-92.407227,-5.661826,23.384399,-350.097656,5.546865,-1.246948,33.630371,3.851191,-86.824951,38.146973,11.749966,108.094482,135.620117,3.420088,-9.42627,-148.071289,9.374106,-25.966187,-1.77002,-0.229922,104.727173,35.583496,7.515571,-4.740601,-15.869141,9.206455,-125.205688,18.188477,-1.001118,3.389282,19.40918,0.0479,-1.257935,-1.77002,0.201182,-102.090454,-1.77002,8.837622,0,7944,38919,46083,30723,0,0,60164,24326,2817,14338,0,0,0,0,0,0,0,0,0,37404,50708,59652,0,0,0,1824,56082,8965,0,0,0,34057,25602,0,0,659,43324,independent_20260430_213431,trial_001,subject_001,1777556074.416451,278866.0255668,2473019,1,0,0,1,48.37562933491456,673.387781893017,803.2306585251204,134.49856040854291,655.4960118222701,796.2575347638708,25.56837855411633,450.8790949509558,860.128668772254,85.62137957608735,439.4597516043626,855.951757189594,-93.30736387369,675.2103993684508,690.297061235711,-74.6086151854156,760.7998830344708,412.2672256043722,-84.1559668687096,765.2950131370377,268.38975079095246,-34.2419104376478,802.4051189125106,74.93163601807062,19.75832463777131,758.3746191119277,32.18433839377821,12.908577557729956,1022.069125520385,106.392356740858,231.91276424621788,516.0803000970416,648.5098501796607,190.42960730268248,401.3765770198248,378.4111964023268,200.36021571571777,275.8621719145791,306.9334280727172,125.44868837487746,117.72400709772748,146.76077067533242,64.91140290569692,38.110532326830274,145.89646178195613,111.45845735305222,261.5560501921383,42.30398702789215,58.87255424559282,41.127445754407184,60.4736503807207,39.52634961927931,112.1535262135154,73.93380207153535,74.42523310309032,73.44237103998037,147.8676041430707,147.8676041430707,1.3819894347824666,1.3819894347824666,21.21441625387997,1.069961900007911,2
1777556074.425,2.4776296296296323,37.125074074074064,65.797074,-14.53463,-2.335074074074072,9.402704,-8.436222,78.678589,-2.868652,0.953218,-0.76355,-46.447754,7.223379,-47.49939,0.671387,0.574805,71.92749,-69.824219,2.984194,5.789795,-137.145996,1.19751,-31.426392,47.424316,-3.161426,127.518311,-333.740234,1.944756,-4.191284,-51.757812,3.065625,-102.672729,-92.407227,-5.661826,18.17688,-344.421387,4.92895,-0.758057,61.340332,5.163662,-85.78125,58.166504,14.341377,108.094482,135.620117,3.420088,-9.42627,-148.071289,9.374106,-25.966187,-1.77002,-0.229922,106.682739,50.109863,-1.489702,-5.427246,-36.499023,8.157437,-124.859619,19.287109,-1.719624,3.389282,19.40918,0.0479,-1.257935,-1.77002,0.201182,-102.090454,-1.77002,8.837622,0,7944,38919,46083,30723,0,0,60164,24326,2817,14338,0,0,0,0,0,0,0,0,0,37404,50708,59652,0,0,0,1824,56082,8965,0,0,0,34057,25602,0,0,659,43324,independent_20260430_213431,trial_001,subject_001,1777556074.426454,278866.035639,2473020,1,0,0,1,47.83169459524272,676.1437978174612,803.7594736411259,133.77189453473474,658.0485818328857,796.581933090755,25.37115225042432,453.14160513380017,860.6235442671685,85.1115543615003,441.9726323190998,855.439620662444,-93.29684043960054,677.5303651006317,691.6692822400627,-74.89943429380345,762.5338200536362,413.73541858834426,-86.24729874866335,764.8106625348199,269.8058176568181,-35.74109903694226,793.0328809296856,74.08161050975801,18.03808620743217,745.7342263812003,33.26424728625253,12.407078117271212,1013.8545653045676,94.7878042771234,231.0633791186719,521.1358032798906,646.8789544355066,191.6039219518252,409.7515140884266,375.2245449669255,201.83962826576493,281.0205949996028,309.3369722605213,127.87145210038926,116.21796770849733,156.2674202036746,67.27747158003316,37.62867632798667,165.10526940143714,111.57690473179808,250.3841732353906,40.966378674027794,58.87255424559282,41.127445754407184,60.4736503807207,39.52634961927931,112.1535262135154,73.93380207153535,74.42523310309032,73.44237103998037,147.8676041430707,147.8676041430707,1.3819894347824666,1.3819894347824666,21.21441625387997,1.069961900007911,2
1777556074.434,2.389629629629624,37.125074074074064,43.364074,-21.18163,-11.141074074074083,10.566704,-8.436222,78.590698,-8.300781,1.087339,-0.878906,-45.227051,7.898774,-48.169556,-0.915527,1.374741,71.92749,-69.824219,2.984194,5.789795,-137.145996,1.19751,-31.426392,47.424316,-3.161426,101.046753,-397.766113,1.642983,3.131104,19.592285,8.890313,-100.365601,-114.257812,-10.327324,11.530151,-324.34082,1.058599,0.285645,66.345215,6.547983,-84.407959,51.879883,16.688496,116.900024,100.646973,1.087339,-5.861206,-122.314453,9.177715,-32.980957,-10.498047,-0.560435,107.84729,53.833008,0.756826,-5.509644,-52.612305,9.77168,-125.941772,19.897461,-1.465752,3.389282,19.40918,0.0479,-1.257935,-1.77002,0.201182,-102.090454,-1.77002,8.837622,0,7944,38919,46083,30723,0,0,60164,24326,2817,14338,0,0,0,0,0,0,0,0,0,37404,50708,59652,0,0,0,1824,56082,8965,0,0,0,34057,25602,0,0,659,43324,independent_20260430_213431,trial_001,subject_001,1777556074.436451,278866.0454731,2473021,1,0,0,1,46.7935401165058,678.4206312151388,805.15696019146,132.56747233124136,660.403518427245,797.3782484497746,25.686557994857573,454.75487622456455,861.2129648534781,85.52512306685144,443.8116296508799,854.9629345401653,-94.2875151099258,679.0013076697301,693.3267955182586,-75.38172713557957,764.6214088119519,415.3641170672975,-89.56873891680574,763.723453148136,270.70493997041814,-37.59138151697888,782.7383765383312,73.67927789464618,16.440598514022124,732.2168481976387,34.5157569206397,11.464420456799186,1001.5825987172392,84.22093028639765,230.37482000990445,526.853152442586,645.1854579945293,192.9594913316845,419.9291011106877,371.69235804541887,203.4795627885009,288.28327264288504,311.2969758283328,130.62312017239523,116.49038537201132,166.9547058575952,69.71083787008203,40.33224895089436,185.03680197962845,112.18887367803792,240.84008095545948,40.14822992727252,58.87255424559282,41.127445754407184,60.4736503807207,39.52634961927931,112.1535262135154,73.93380207153535,74.42523310309032,73.44237103998037,147.8676041430707,147.8676041430707,1.3819894347824666,1.3819894347824666,21.21441625387997,1.069961900007911,2
1777556074.444,2.389629629629624,37.125074074074064,43.364074,-21.18163,-11.141074074074083,10.566704,-8.436222,78.590698,-8.300781,1.087339,-0.878906,-45.227051,7.898774,-48.169556,-0.915527,1.374741,71.92749,-69.824219,2.984194,5.789795,-137.145996,1.19751,-31.426392,47.424316,-3.161426,101.046753,-397.766113,1.642983,3.131104,19.592285,8.890313,-100.365601,-114.257812,-10.327324,11.530151,-324.34082,1.058599,0.285645,66.345215,6.547983,-84.407959,51.879883,16.688496,116.900024,100.646973,1.087339,-5.861206,-122.314453,9.177715,-32.980957,-10.498047,-0.560435,107.84729,53.833008,0.756826,-5.509644,-52.612305,9.77168,-125.941772,19.897461,-1.465752,3.389282,19.40918,0.0479,-1.257935,-1.77002,0.201182,-102.090454,-1.77002,8.837622,0,7944,38919,46083,30723,0,0,60164,24326,2817,14338,0,0,0,0,0,0,0,0,0,37404,50708,59652,0,0,0,1824,56082,8965,0,0,0,34057,25602,0,0,659,43324,independent_20260430_213431,trial_001,subject_001,1777556074.44645,278866.0553999,2473022,1,0,0,1,45.23396756728546,680.2551629515698,807.011884024364,130.89205060644923,662.6042531176895,798.524704569744,26.45339430709007,455.6990797731981,861.7806480328334,86.25703136186243,445.3140191170735,854.5629669210459,-95.90647781875674,680.1617364733717,695.031411096969,-76.1672518996793,766.1229965644937,416.383224086579,-92.157156398316,761.3359906923346,271.2927202476207,-38.64230341393908,770.8225103397095,73.37058237872441,15.060019677768254,718.5276598231718,35.904370392717,9.13946743386342,988.5709433520768,75.15181547210997,229.6266478299741,533.0581229195731,643.6849635679594,194.25019089596705,431.41671435768814,368.077917403703,205.0894228500806,297.5919683263219,313.01948006879894,133.2943633521459,119.21966932924524,178.23495503098013,71.89016568300268,46.52572902293596,204.6626092607796,112.5199470515038,232.8728142174295,39.91942397600497,58.87255424559282,41.127445754407184,60.4736503807207,39.52634961927931,112.1535262135154,73.93380207153535,74.42523310309032,73.44237103998037,147.8676041430707,147.8676041430707,1.3819894347824666,1.3819894347824666,21.21441625387997,1.069961900007911,2
1777556074.458,1.8946296296296337,38.23407407407407,43.364074,-4.67463,-11.141074074074083,3.743704,-10.237222,78.096313,-18.432617,2.193838,-1.115112,-26.489258,8.732241,-49.405518,0.0,2.577041,70.817871,8.850098,2.48124,5.19104,78.00293,3.578159,-30.783691,-17.700195,-1.614243,101.046753,-397.766113,1.642983,3.131104,19.592285,8.890313,-100.365601,-114.257812,-10.327324,1.565552,-337.95166,-4.325405,2.285156,87.341309,12.770244,-83.419189,7.080078,24.649541,116.900024,100.646973,1.087339,-5.861206,-122.314453,9.177715,-32.980957,-10.498047,-0.560435,109.830322,60.668945,1.633403,-5.597534,-33.508301,10.274634,-127.424927,17.883301,-2.371069,4.707642,23.498535,0.0479,-1.713867,-9.58252,0.368833,-102.321167,-4.150391,9.896221,0,7944,38919,46083,30723,0,0,60164,24326,2817,14338,0,0,0,0,0,0,0,0,0,37404,50708,59652,0,0,0,1824,56082,8965,0,0,0,34057,25602,0,0,659,43324,independent_20260430_213431,trial_001,subject_001,1777556074.4559572,278866.0655039,2473023,1,0,0,1,42.77049891422424,681.2357817051037,809.2215685594608,128.76823147211175,664.4739470427974,799.8681577087484,26.902684634641272,456.4255257090301,862.1865594030012,86.93046090927025,446.3027199357916,854.0782348956549,-96.90806362144468,681.0201052072046,697.1230084232342,-76.8770563745504,766.6457710891882,416.8175562974594,-93.78497619702384,756.6976919318837,272.0773508648625,-39.86866400968762,758.0957752986253,73.04921948946156,13.8737421252453,704.6294871382327,37.26617239467867,7.18772111664638,974.7772845419248,67.88740035578522,228.97163647064608,539.6167444684012,642.6070681992632,195.4494402107618,443.9563283025113,364.9485769958681,206.4943840768993,308.3239143758626,314.75429995829114,134.4801190005812,123.83966799321838,188.39176962761547,75.36086698687829,55.32510574926859,224.1189054706096,113.79327434909024,226.37765529623107,40.2524053344263,58.87255424559282,41.127445754407184,60.4736503807207,39.52634961927931,112.1535262135154,73.93380207153535,74.42523310309032,73.44237103998037,147.8676041430707,147.8676041430707,1.3819894347824666,1.3819894347824666,21.21441625387997,1.069961900007911,0
1777556074.466,1.8946296296296337,38.23407407407407,43.364074,-4.67463,-11.141074074074083,3.743704,-10.237222,78.096313,-18.432617,2.193838,-1.115112,-26.489258,8.732241,-49.405518,0.0,2.577041,70.817871,8.850098,2.48124,5.19104,78.00293,3.578159,-30.783691,-17.700195,-1.614243,101.046753,-397.766113,1.642983,3.131104,19.592285,8.890313,-100.365601,-114.257812,-10.327324,1.565552,-337.95166,-4.325405,2.285156,87.341309,12.770244,-83.419189,7.080078,24.649541,116.900024,100.646973,1.087339,-5.861206,-122.314453,9.177715,-32.980957,-10.498047,-0.560435,109.830322,60.668945,1.633403,-5.597534,-33.508301,10.274634,-127.424927,17.883301,-2.371069,4.707642,23.498535,0.0479,-1.713867,-9.58252,0.368833,-102.321167,-4.150391,9.896221,0,7944,38919,46083,30723,0,0,60164,24326,2817,14338,0,0,0,0,0,0,0,0,0,37404,50708,59652,0,0,0,1824,56082,8965,0,0,0,34057,25602,0,0,659,43324,independent_20260430_213431,trial_001,subject_001,1777556074.4659631,278866.0757271,2473024,1,0,0,1,40.34793511196985,681.4214883971326,811.5547665316581,126.35992682941988,666.0893700740954,801.5254835731417,28.005360290148747,457.2515507268244,862.9135940817687,87.49254180550355,447.1006377445268,853.7504299401456,-98.11072110193294,681.4297234233945,699.1692552450531,-77.66054920915894,765.43794085835,416.9970723535312,-95.50641274663492,750.9199977866926,272.85625328873607,-40.91968783281863,745.2056831688095,72.83075981430606,12.613877434525278,690.5396474520497,38.46340451336746,6.066084248203066,960.7666656168548,62.60269755400308,228.44723629487447,546.2276731401197,641.9491023847644,196.6442385490452,457.1498625833175,362.4044584881024,207.5862660469312,320.07369669504874,316.861214970472,136.35694748891075,130.46556036110783,199.82180924508592,79.15847034243397,68.5591293669152,242.172370209976,114.72546596496728,220.026030097506,41.0957374835681,58.87255424559282,41.127445754407184,60.4736503807207,39.52634961927931,112.1535262135154,73.93380207153535,74.42523310309032,73.44237103998037,147.8676041430707,147.8676041430707,1.3819894347824666,1.3819894347824666,21.21441625387997,1.069961900007911,0
1777556074.476,1.8946296296296337,37.47607407407408,31.163074,-3.24163,-14.88707407407408,3.743704,-11.259222,78.096313,-18.432617,2.193838,-1.115112,-26.489258,8.732241,-49.405518,0.0,2.577041,71.575928,15.991211,-3.209326,5.971069,30.517578,6.571934,-29.042358,8.483887,1.26457,87.736816,-352.050781,-3.400928,7.218018,-47.119141,10.135723,-101.66748,-65.917969,-9.589658,-10.310669,-324.157715,-8.416099,4.328613,46.142578,20.300186,-86.209717,-114.746094,20.692969,120.646362,105.34668,2.174678,-3.482666,-102.844238,8.463999,-36.463623,-9.70459,-1.422642,109.830322,60.668945,1.633403,-5.597534,-33.508301,10.274634,-127.424927,17.883301,-2.371069,5.668945,33.996582,0.239502,-1.862183,-9.82666,0.680186,-102.491455,-4.577637,9.168135,0,7944,38919,46083,30723,0,0,60164,24326,2817,14338,0,0,0,0,0,0,0,0,0,37404,50708,59652,0,0,0,1824,56082,8965,0,0,0,34057,25602,0,0,659,43324,independent_20260430_213431,trial_001,subject_001,1777556074.4764726,278866.0855792,2473025,1,0,0,1,37.87162010262177,682.0558368394558,813.9538096278236,123.92639945644436,667.3034061733837,803.4688230486673,28.144831446893583,457.5831847593378,863.7263040072877,87.62899498512692,447.6156910862376,853.8285549411473,-99.65129920253392,681.3106466519888,700.4098070720078,-78.52198775114553,761.7662918402086,417.02885430803695,-96.97934872879654,744.4552697275444,272.9668177488141,-41.89147078339037,732.5058796347734,72.7246849169338,11.535839970290755,676.5892153351351,39.263972378364414,5.068884064222556,947.1238130024574,59.3954878323601,228.2392764420513,552.6923619542707,641.995407604892,198.05663946724303,471.1128768397568,360.75864293176494,208.809434046216,332.8881172819985,319.6472902255251,138.96321860507135,138.817269897268,210.63194724999065,83.32725817523016,87.46534001057977,258.8246464141604,115.85019671748516,212.83447174165929,42.432227079005614,58.87255424559282,41.127445754407184,60.4736503807207,39.52634961927931,112.1535262135154,73.93380207153535,74.42523310309032,73.44237103998037,147.8676041430707,147.8676041430707,1.3819894347824666,1.3819894347824666,21.21441625387997,1.069961900007911,0
1777556074.497,1.8946296296296337,37.47607407407408,31.163074,-3.24163,-14.88707407407408,3.743704,-11.259222,78.096313,-18.432617,2.193838,-1.115112,-26.489258,8.732241,-49.405518,0.0,2.577041,71.575928,15.991211,-3.209326,5.971069,30.517578,6.571934,-29.042358,8.483887,1.26457,87.736816,-352.050781,-3.400928,7.218018,-47.119141,10.135723,-101.66748,-65.917969,-9.589658,-10.310669,-324.157715,-8.416099,4.328613,46.142578,20.300186,-86.209717,-114.746094,20.692969,120.646362,105.34668,2.174678,-3.482666,-102.844238,8.463999,-36.463623,-9.70459,-1.422642,109.830322,60.668945,1.633403,-5.597534,-33.508301,10.274634,-127.424927,17.883301,-2.371069,5.668945,33.996582,0.239502,-1.862183,-9.82666,0.680186,-102.491455,-4.577637,9.168135,0,7944,38919,46083,30723,0,0,60164,24326,2817,14338,0,0,0,0,0,0,0,0,0,37404,50708,59652,0,0,0,1824,56082,8965,0,0,0,34057,25602,0,0,659,43324,independent_20260430_213431,trial_001,subject_001,1777556074.502978,278866.1125738,2473027,1,0,0,1,33.8845279377861,683.2535160585801,818.8243829325717,120.5796825705976,667.5148720412318,807.9698573025797,26.888211807617896,457.90603627961815,866.9744989388083,86.38868911444318,448.0422260657319,855.7515773777212,-102.8017007992632,678.3461337019285,700.5570223944071,-81.28734340768307,747.9653591528337,415.4360137380227,-98.57516472377786,728.6023224533845,271.4644944957276,-43.412735142815,706.1643182634288,72.72365806398642,10.207569820105578,648.9018240420726,39.82515896240465,3.345016718738088,919.2566072650322,58.1922803631461,227.31624759135843,563.5986539706447,643.9699473112347,200.7970284499216,500.6615595691064,360.09622945468203,211.5145557618492,360.7448523957526,325.9181173294465,140.7615034041236,164.1939203486779,228.41901776549025,89.32507407179881,137.16181396855268,272.4300107796379,119.87841374263915,200.3039264657932,44.111914956981096,58.87255424559282,41.127445754407184,60.4736503807207,39.52634961927931,112.1535262135154,73.93380207153535,74.42523310309032,73.44237103998037,147.8676041430707,147.8676041430707,1.3819894347824666,1.3819894347824666,21.21441625387997,1.069961900007911,0
1777556074.513,1.8946296296296337,37.47607407407408,31.163074,-3.24163,-14.88707407407408,3.743704,-11.259222,78.096313,-18.432617,2.193838,-1.115112,-26.489258,8.732241,-49.405518,0.0,2.577041,71.575928,15.991211,-3.209326,5.971069,30.517578,6.571934,-29.042358,8.483887,1.26457,87.736816,-352.050781,-3.400928,7.218018,-47.119141,10.135723,-101.66748,-65.917969,-9.589658,-10.310669,-324.157715,-8.416099,4.328613,46.142578,20.300186,-86.209717,-114.746094,20.692969,120.646362,105.34668,2.174678,-3.482666,-102.844238,8.463999,-36.463623,-9.70459,-1.422642,109.830322,60.668945,1.633403,-5.597534,-33.508301,10.274634,-127.424927,17.883301,-2.371069,5.668945,33.996582,0.239502,-1.862183,-9.82666,0.680186,-102.491455,-4.577637,9.168135,0,7944,38919,46083,30723,0,0,60164,24326,2817,14338,0,0,0,0,0,0,0,0,0,2329,18962,56323,0,0,0,12061,59919,36611,0,0,0,18440,43266,0,0,659,43325,independent_20260430_213431,trial_001,subject_001,1777556074.515987,278866.1257423,2473029,1,0,0,1,31.352802039076987,682.5273727439289,823.9523907168365,117.9421580861293,666.9472262253516,813.1933508802242,23.918097352617025,456.9411423039759,872.0876707935506,83.65631028692657,447.5036287996445,860.1621685889279,-105.68144757159584,672.3716371270025,702.0197922130634,-82.74244812308496,732.8779235941178,414.16565034800175,-98.97364300337716,706.9900847326472,271.34827519609314,-44.26486019803233,678.7375144777161,73.16487081097023,8.995716621695715,620.9168606168041,40.1789584557984,1.785252208555056,891.4756447277372,58.70060556727388,225.7891190156956,571.7940975409585,648.4795356774393,203.97724730066847,530.306701858801,363.3922803676838,212.9625570276357,388.9517656348789,333.46797346550414,141.10154487349575,188.89632804084573,242.18165630318208,83.95766185479363,163.84789571660886,282.3844367220033,132.78948920409013,224.0106774393126,46.09452255524221,58.87255424559282,41.127445754407184,60.4736503807207,39.52634961927931,112.1535262135154,73.93380207153535,74.42523310309032,73.44237103998037,147.8676041430707,147.8676041430707,1.3819894347824666,1.3819894347824666,21.21441625387997,1.069961900007911,0
1777556074.527,1.8946296296296337,37.53607407407407,31.163074,-8.03663,-14.88707407407408,4.590704,-10.671222,78.096313,-18.432617,2.193838,-1.115112,-26.489258,8.732241,-49.405518,0.0,2.577041,71.515503,-9.887695,-1.293311,4.559326,-106.079102,12.099639,-30.866089,16.601562,10.159673,87.736816,-352.050781,-3.400928,7.218018,-47.119141,10.135723,-101.66748,-65.917969,-9.589658,-15.106201,-305.969238,-3.889512,4.421997,31.860352,24.079526,-88.126831,-120.788574,18.844014,120.646362,105.34668,2.174678,-3.482666,-102.844238,8.463999,-36.463623,-9.70459,-1.422642,114.422607,102.355957,2.902764,-5.460205,-20.874023,9.85311,-129.633179,5.004883,0.292192,6.256714,39.0625,0.03353,-1.917114,-11.779785,0.411943,-102.562866,-5.126953,9.80521,0,7944,38919,46083,30723,0,0,60164,24326,2817,14338,0,0,0,0,0,0,0,0,0,48402,25612,56065,0,0,0,15128,45577,54784,0,0,0,55813,29442,0,0,659,43326,independent_20260430_213431,trial_001,subject_001,1777556074.5259895,278866.1354961,2473030,1,0,0,1,30.36349905234494,682.187735271943,826.6288885756478,117.03995049788598,666.0933928933542,816.2122684916234,22.66324733752373,456.2381234715008,875.2479356667551,82.51096482331901,446.7049539255897,863.026731198004,-106.63271948000228,668.7473973110785,703.1176877467419,-82.87499404837467,723.5719101522699,414.6495547215276,-99.00385146559684,694.0757312248803,271.92442704267023,-44.63725275878375,664.9442536898775,73.53487989572841,8.360339285922862,606.8008755799137,40.35837387714681,1.0703816145604816,877.3630142356053,59.35124209962792,225.54413907123907,575.6854448804183,651.7696869973018,205.46454173583464,544.7123796049262,366.3668766231088,213.29223310802072,403.0931898659874,337.8930885381582,142.5942136308559,202.8822305608217,244.6654906606203,81.02458937770767,174.33788226703294,289.2720575623364,139.30417280659822,246.75766446883048,48.28770877651232,58.87255424559282,41.127445754407184,60.4736503807207,39.52634961927931,112.1535262135154,73.93380207153535,74.42523310309032,73.44237103998037,147.8676041430707,147.8676041430707,1.3819894347824666,1.3819894347824666,21.21441625387997,1.069961900007911,0
1777556074.54,1.515629629629629,37.53607407407407,13.991074,-13.93663,-20.20507407407408,6.276704,-10.671222,77.717285,10.009766,0.124541,-1.203003,-42.358398,10.384805,-51.37207,-8.239746,3.606899,71.515503,-9.887695,-1.293311,4.559326,-106.079102,12.099639,-30.866089,16.601562,10.159673,71.262817,-115.17334,1.125659,9.0802,-21.54541,3.913462,-108.220825,-36.376953,-6.18873,-21.005859,-275.32959,0.292192,3.735352,-14.770508,28.582163,-90.021973,-88.684082,9.77168,125.963745,52.246094,2.45729,-0.549316,-82.03125,11.668535,-39.506836,-4.211426,-0.914897,116.109009,114.196777,0.852627,-5.333862,-28.625488,10.830278,-129.995728,2.685547,-0.938848,6.256714,39.0625,0.03353,-1.917114,-11.779785,0.411943,-102.562866,-5.126953,9.80521,0,7944,38919,46083,30723,0,0,60164,24326,2817,14338,0,0,0,0,0,0,0,0,0,53774,60678,1536,0,0,0,9492,43524,0,0,0,0,15108,3075,11521,0,659,43327,independent_20260430_213431,trial_001,subject_001,1777556074.535984,278866.1455884,2473031,1,0,0,1,29.5279502048114,680.7134993921541,829.1910720237435,116.23263467311548,665.1220852126804,819.5314640995712,21.8458630884856,455.3022024406913,878.5709013312685,81.71872133184384,445.85593252903885,866.545961438413,-107.2117022442944,665.0522418190601,704.2368322994912,-83.84604968295363,713.4653936773751,414.1050606141451,-99.01387031764595,680.5385898613513,272.6685603819556,-44.90783595459396,650.7939860443233,73.73851388132397,7.65202868173614,592.7787880485159,40.42593743343903,0.3477106465134869,863.4204261935944,60.61597278533733,225.79402525974083,579.1741635603025,655.7556770577081,206.52080648497068,559.011270454199,370.3104577409719,214.2015480827558,417.31604354750414,343.16131502916653,143.46689534265957,218.6344600865528,247.11484703445777,78.84893940431094,185.44588707517923,292.2570984505551,144.60335079763138,271.4652492769703,50.62002423376333,58.87255424559282,41.127445754407184,60.4736503807207,39.52634961927931,112.1535262135154,73.93380207153535,74.42523310309032,73.44237103998037,147.8676041430707,147.8676041430707,1.3819894347824666,1.3819894347824666,21.21441625387997,1.069961900007911,0
1777556074.541,1.515629629629629,37.53607407407407,13.991074,-13.93663,-20.20507407407408,6.276704,-10.671222,77.717285,10.009766,0.124541,-1.203003,-42.358398,10.384805,-51.37207,-8.239746,3.606899,71.515503,-9.887695,-1.293311,4.559326,-106.079102,12.099639,-30.866089,16.601562,10.159673,71.262817,-115.17334,1.125659,9.0802,-21.54541,3.913462,-108.220825,-36.376953,-6.18873,-21.005859,-275.32959,0.292192,3.735352,-14.770508,28.582163,-90.021973,-88.684082,9.77168,125.963745,52.246094,2.45729,-0.549316,-82.03125,11.668535,-39.506836,-4.211426,-0.914897,116.109009,114.196777,0.852627,-5.333862,-28.625488,10.830278,-129.995728,2.685547,-0.938848,6.256714,39.0625,0.03353,-1.917114,-11.779785,0.411943,-102.562866,-5.126953,9.80521,0,7944,38919,46083,30723,0,0,60164,24326,2817,14338,0,0,0,0,0,0,0,0,0,1293,11522,0,0,0,0,34576,40960,0,0,0,0,12035,1284,54275,0,659,43328,independent_20260430_213431,trial_001,subject_001,1777556074.5459845,278866.1556508,2473032,1,0,0,1,28.73690857347094,679.4184850176996,831.9419801136473,115.0099231199198,665.3413115011273,823.133645775673,21.24240532238917,454.0866929126432,881.8916510277652,80.96240331828481,444.7049212819854,869.6885010986115,-107.56709164412344,661.4372059010763,705.5584525659864,-84.70514278086381,702.3123229974079,413.9102264837043,-99.21588431132623,666.5395829853192,273.1604992029542,-46.10255000838426,636.7901333844396,74.66697815916245,7.059833962305547,578.5932802333183,40.68870540388716,-0.3774736055016489,849.462501049772,61.26696980994067,226.2023036003145,582.3374140282718,660.030263765109,207.431706341799,573.5276216044796,374.8636975577832,214.26830418502848,432.00303621444095,347.062006479764,143.32028245348928,234.39746962898533,247.95555326218565,77.94735334999092,198.6670064875858,291.7688164009661,149.93763119443724,294.95342206162223,52.92888738755843,58.87255424559282,41.127445754407184,60.4736503807207,39.52634961927931,112.1535262135154,73.93380207153535,74.42523310309032,73.44237103998037,147.8676041430707,147.8676041430707,1.3819894347824666,1.3819894347824666,21.21441625387997,1.069961900007911,0
1777556074.559,2.2906296296296347,37.19607407407408,13.991074,-2.99363,-20.20507407407408,5.808704,-14.110222,78.491821,24.414062,1.528022,-1.340332,-24.353027,12.521162,-52.536621,0.366211,4.047583,71.856079,15.563965,-0.579595,4.498901,-22.521973,11.328442,-32.772217,-22.888184,9.374106,71.262817,-115.17334,1.125659,9.0802,-21.54541,3.913462,-108.220825,-36.376953,-6.18873,-26.537476,-69.458008,4.785249,2.543335,-28.259277,30.119766,-90.74707,3.479004,-7.980205,125.963745,52.246094,2.45729,-0.549316,-82.03125,11.668535,-39.506836,-4.211426,-0.914897,120.959473,146.789551,1.049019,-4.625244,-48.095703,12.808564,-131.412964,-1.525879,-1.757944,9.09668,58.47168,0.383203,-1.972046,-2.990723,0.795146,-102.782593,-2.01416,11.141631,0,7944,38919,46083,30723,0,0,60164,24326,2817,14338,0,0,0,0,0,0,0,40453,0,39691,0,0,0,26369,0,2829,0,0,20736,56068,0,29697,65029,59400,0,659,43329,independent_20260430_213431,trial_001,subject_001,1777556074.5559907,278866.1657439,2473033,1,0,0,1,27.960432354852934,678.070606248517,834.8682024755975,114.28307662374912,663.9828860615851,826.8167441761777,20.81544034980424,452.8383223204217,885.3024592607763,80.7608085813949,443.5039086117026,873.2105361028499,-107.66310704397102,657.6044471047168,706.988910474752,-85.88052799576911,690.3530426853395,413.9737082474469,-99.58141822871336,652.8269318185976,273.7317940097196,-45.70937888155479,622.473874972386,74.73684632948097,6.453216615319071,564.4516511448611,40.93292891346712,-1.2634667203369645,835.4037558824298,61.74769043081826,226.84684712354712,585.7022498785719,664.6772255760897,208.0965088557681,588.1104249229527,379.5080970043581,214.87408226928667,446.8671919544738,350.3600264605058,143.69493012902544,250.8289657807738,246.1336798368316,77.68465695788058,213.5160558722495,289.33196533410575,154.33353363790206,319.1785318606932,55.15568556351515,58.87255424559282,41.127445754407184,60.4736503807207,39.52634961927931,112.1535262135154,73.93380207153535,74.42523310309032,73.44237103998037,147.8676041430707,147.8676041430707,1.3819894347824666,1.3819894347824666,21.21441625387997,1.069961900007911,0
1777556074.561,2.2906296296296347,37.19607407407408,13.991074,-2.99363,-20.20507407407408,5.808704,-14.110222,78.491821,24.414062,1.528022,-1.340332,-24.353027,12.521162,-52.536621,0.366211,4.047583,71.856079,15.563965,-0.579595,4.498901,-22.521973,11.328442,-32.772217,-22.888184,9.374106,71.262817,-115.17334,1.125659,9.0802,-21.54541,3.913462,-108.220825,-36.376953,-6.18873,-26.537476,-69.458008,4.785249,2.543335,-28.259277,30.119766,-90.74707,3.479004,-7.980205,125.963745,52.246094,2.45729,-0.549316,-82.03125,11.668535,-39.506836,-4.211426,-0.914897,120.959473,146.789551,1.049019,-4.625244,-48.095703,12.808564,-131.412964,-1.525879,-1.757944,9.09668,58.47168,0.383203,-1.972046,-2.990723,0.795146,-102.782593,-2.01416,11.141631,0,7944,38919,46083,30723,0,0,60164,24326,2817,14338,0,0,0,0,0,0,0,40453,0,39691,0,0,0,26369,0,2829,0,0,20736,56068,0,29697,65029,59400,0,659,43329,independent_20260430_213431,trial_001,subject_001,1777556074.5559907,278866.1657439,2473033,1,0,0,1,27.960432354852934,678.070606248517,834.8682024755975,114.28307662374912,663.9828860615851,826.8167441761777,20.81544034980424,452.8383223204217,885.3024592607763,80.7608085813949,443.5039086117026,873.2105361028499,-107.66310704397102,657.6044471047168,706.988910474752,-85.88052799576911,690.3530426853395,413.9737082474469,-99.58141822871336,652.8269318185976,273.7317940097196,-45.70937888155479,622.473874972386,74.73684632948097,6.453216615319071,564.4516511448611,41.27682074824206,-1.2634667203369645,835.4037558824298,62.00974082732667,226.84684712354712,585.7022498785719,664.6772255760897,208.0965088557681,588.1104249229527,379.5080970043581,214.87408226928667,446.8671919544738,350.3600264605058,143.69493012902544,250.8289657807738,246.1336798368316,77.68465695788058,213.5160558722495,283.78512282698927,154.33353363790206,319.1785318606932,57.09307825354688,58.87255424559282,41.127445754407184,60.4736503807207,39.52634961927931,112.1535262135154,73.93380207153535,74.42523310309032,73.44237103998037,147.8676041430707,147.8676041430707,1.3819894347824666,1.3819894347824666,21.21441625387997,1.069961900007911,0
1777556074.575,2.2906296296296347,37.28407407407407,14.645074,-2.99363,-21.781074074074084,9.237704,-17.285222,78.491821,24.414062,1.528022,-1.340332,-24.353027,12.521162,-52.536621,0.366211,4.047583,71.768188,3.479004,-1.302891,5.053711,-57.495117,10.197993,-34.233398,-37.963867,7.031777,72.25708,107.23877,-2.236948,10.140381,40.771484,0.991538,-107.462769,-4.394531,-6.16478,-26.537476,-69.458008,4.785249,2.543335,-28.259277,30.119766,-90.74707,3.479004,-7.980205,127.540283,35.27832,2.692002,0.889893,-53.466797,12.25292,-41.264648,-1.708984,-1.17835,125.963745,170.410156,-0.114961,-3.872681,-28.442383,12.190649,-132.154541,-9.033203,-1.125659,10.772095,50.78125,0.752036,-1.933594,-4.760742,2.730322,-102.854004,-4.089355,10.097402,0,7944,38919,46083,30723,0,0,60164,24326,2817,14338,0,0,0,0,0,0,0,40453,0,39691,0,0,0,26369,0,2829,0,0,20736,56068,0,29697,65029,59400,0,659,43329,independent_20260430_213431,trial_001,subject_001,1777556074.5760138,278866.1855289,2473035,1,0,0,1,26.198630306881867,675.0857352060945,841.086270672438,113.0469994076166,663.0794487492919,835.3737251540783,20.62644227457495,449.8226392527682,891.7613895167658,80.8117421104773,441.00144623279897,879.9515634661099,-108.07831871041658,649.4023943446072,709.6839060312342,-88.07374280562352,667.1188215972649,414.529511137111,-101.67999409934066,627.0365850757272,274.74188256782685,-46.728245340122896,594.0202896449075,75.71966820467182,5.035318781546177,535.830950439321,41.69698787168616,-2.7219266039418706,807.0551519150373,62.15539085648548,228.1895986288805,593.0379233830896,674.7591689590047,209.30737456572945,616.0597894840982,389.5808782159469,216.6008859252371,476.5789805922226,352.61151046385146,144.16522614524607,285.8918597202802,238.8994545469204,76.91393843177543,245.0506691093966,274.5682486079064,161.5729600125746,369.4216391883139,58.71444310344196,58.87255424559282,41.127445754407184,60.4736503807207,39.52634961927931,112.1535262135154,73.93380207153535,74.42523310309032,73.44237103998037,147.8676041430707,147.8676041430707,1.3819894347824666,1.3819894347824666,21.21441625387997,1.069961900007911,0
1777556074.589,2.2906296296296347,37.28407407407407,14.645074,-2.99363,-21.781074074074084,9.237704,-17.285222,78.491821,24.414062,1.528022,-1.340332,-24.353027,12.521162,-52.536621,0.366211,4.047583,71.768188,3.479004,-1.302891,5.053711,-57.495117,10.197993,-34.233398,-37.963867,7.031777,72.25708,107.23877,-2.236948,10.140381,40.771484,0.991538,-107.462769,-4.394531,-6.16478,-26.537476,-69.458008,4.785249,2.543335,-28.259277,30.119766,-90.74707,3.479004,-7.980205,127.540283,35.27832,2.692002,0.889893,-53.466797,12.25292,-41.264648,-1.708984,-1.17835,125.963745,170.410156,-0.114961,-3.872681,-28.442383,12.190649,-132.154541,-9.033203,-1.125659,10.772095,50.78125,0.752036,-1.933594,-4.760742,2.730322,-102.854004,-4.089355,10.097402,0,7944,38919,46083,30723,0,0,60164,24326,2817,14338,0,0,0,0,0,0,0,40453,0,39691,0,0,0,26369,0,2829,0,0,20736,56068,0,29697,65029,59400,0,659,43329,independent_20260430_213431,trial_001,subject_001,1777556074.5860138,278866.1956573,2473036,1,0,0,1,25.360842158562992,673.5575980880752,844.1983475241938,112.2724457463929,662.0264226925947,839.6799298140963,21.030045247046687,448.0979394741761,894.6907465040981,81.06223831606533,439.7467417938778,882.9260853259918,-108.24709056088432,644.4862345641494,710.5051154517772,-88.94742584710033,655.8578399121942,414.5435788110913,-103.07315198876684,614.7230525932813,275.1354454990085,-48.18523438157627,579.9378037275295,76.59717318563777,4.279088805156247,521.638850892762,42.11895785172741,-3.3478463425130163,792.8190298456483,62.28916913405313,228.91082635550205,597.0309088619101,680.0931630746885,210.02240502440085,629.2124653358409,395.04890086935967,217.4077014188485,490.9371479893082,353.05004147664584,145.70780915635206,303.9823576277409,234.09831582904687,76.79596928362707,261.68140421835096,264.2527949024508,163.9017205800851,396.7623753273783,59.599020172204206,58.87255424559282,41.127445754407184,60.4736503807207,39.52634961927931,112.1535262135154,73.93380207153535,74.42523310309032,73.44237103998037,147.8676041430707,147.8676041430707,1.3819894347824666,1.3819894347824666,21.21441625387997,1.069961900007911,0
1777556074.606,2.2906296296296347,37.28407407407407,14.645074,-2.99363,-21.781074074074084,9.237704,-17.285222,78.491821,24.414062,1.528022,-1.340332,-24.353027,12.521162,-52.536621,0.366211,4.047583,71.768188,3.479004,-1.302891,5.053711,-57.495117,10.197993,-34.233398,-37.963867,7.031777,72.25708,107.23877,-2.236948,10.140381,40.771484,0.991538,-107.462769,-4.394531,-6.16478,-26.537476,-69.458008,4.785249,2.543335,-28.259277,30.119766,-90.74707,3.479004,-7.980205,127.540283,35.27832,2.692002,0.889893,-53.466797,12.25292,-41.264648,-1.708984,-1.17835,125.963745,170.410156,-0.114961,-3.872681,-28.442383,12.190649,-132.154541,-9.033203,-1.125659,10.772095,50.78125,0.752036,-1.933594,-4.760742,2.730322,-102.854004,-4.089355,10.097402,0,7944,38919,46083,30723,0,0,60164,24326,2817,14338,0,0,0,0,0,0,0,40453,0,39691,0,0,0,26369,0,2829,0,0,20736,56068,0,29697,65029,59400,0,659,43329,independent_20260430_213431,trial_001,subject_001,1777556074.6061263,278866.2158564,2473038,1,0,0,1,23.44721485036085,669.3972145692289,849.5996469021883,110.58518977069456,659.8462594024174,847.5564846815147,22.06729056218413,444.5851859672204,899.8233034058758,82.60317738668121,437.24849003022575,888.325806510264,-109.01785007248716,633.3949405867106,711.3419453960566,-90.59595269957062,633.3955103694708,414.640898570791,-105.4739118136561,590.5845219367203,275.4409247092154,-48.82930809826334,551.3707206330521,77.062566993376,2.739569000782329,492.6728542462326,42.535094666673096,-4.824056669732566,764.0836572923323,62.397266790795626,230.44841037222275,605.8303248443368,690.4514490646847,211.5691306046737,653.8271505057741,406.18214872867935,218.45675309742663,518.9227669552043,352.84136219283755,146.37953464414,342.91544248535064,218.82366396766648,77.90106677319898,295.6382655687321,252.6052111732069,167.40763937697315,456.668889087999,59.52843783982527,58.87255424559282,41.127445754407184,60.4736503807207,39.52634961927931,112.1535262135154,73.93380207153535,74.42523310309032,73.44237103998037,147.8676041430707,147.8676041430707,1.3819894347824666,1.3819894347824666,21.21441625387997,1.069961900007911,0
1777556074.616,2.2906296296296347,37.28407407407407,14.645074,-2.99363,-21.781074074074084,9.237704,-17.285222,78.491821,24.414062,1.528022,-1.340332,-24.353027,12.521162,-52.536621,0.366211,4.047583,71.768188,3.479004,-1.302891,5.053711,-57.495117,10.197993,-34.233398,-37.963867,7.031777,72.25708,107.23877,-2.236948,10.140381,40.771484,0.991538,-107.462769,-4.394531,-6.16478,-26.537476,-69.458008,4.785249,2.543335,-28.259277,30.119766,-90.74707,3.479004,-7.980205,127.540283,35.27832,2.692002,0.889893,-53.466797,12.25292,-41.264648,-1.708984,-1.17835,125.963745,170.410156,-0.114961,-3.872681,-28.442383,12.190649,-132.154541,-9.033203,-1.125659,10.772095,50.78125,0.752036,-1.933594,-4.760742,2.730322,-102.854004,-4.089355,10.097402,0,7944,38919,46083,30723,0,0,60164,24326,2817,14338,0,0,0,0,0,0,0,40453,0,39691,0,0,0,26369,0,2829,0,0,20736,56068,0,29697,65029,59400,0,659,43329,independent_20260430_213431,trial_001,subject_001,1777556074.6162183,278866.2258955,2473039,1,0,0,1,22.267347939463782,666.8497202873274,851.5165772343971,109.54172880859215,658.5347540193409,850.769629641501,23.07470409961638,442.46653934724753,901.8452676761036,83.70818051779008,435.8787941472828,890.2889387205432,-109.5710480159868,627.1063660530723,711.6041619011991,-91.52559389023452,621.531228248915,414.65681186591536,-106.33662897282028,578.139438195407,275.7278043451684,-49.66454968639973,537.1657333802837,77.51422822360274,2.6799698355301,478.6354865551793,42.9722030316982,-5.622618732660382,749.7081377146927,62.411185099193766,231.5372355778285,610.1105756249609,695.4303316046215,212.3382458348308,665.3615645746247,411.787036267737,219.67734543340447,532.6851936488086,352.45748477209025,147.12832285415217,363.5924611422713,209.5091203894632,79.05494363717554,313.62189900838234,238.8166366643201,168.64188660384724,488.3196012725703,58.68268789823922,58.87255424559282,41.127445754407184,60.4736503807207,39.52634961927931,112.1535262135154,73.93380207153535,74.42523310309032,73.44237103998037,147.8676041430707,147.8676041430707,1.3819894347824666,1.3819894347824666,21.21441625387997,1.069961900007911,0
1777556074.623,2.2906296296296347,37.28407407407407,14.645074,-2.99363,-21.781074074074084,9.237704,-17.285222,78.491821,24.414062,1.528022,-1.340332,-24.353027,12.521162,-52.536621,0.366211,4.047583,71.768188,3.479004,-1.302891,5.053711,-57.495117,10.197993,-34.233398,-37.963867,7.031777,72.25708,107.23877,-2.236948,10.140381,40.771484,0.991538,-107.462769,-4.394531,-6.16478,-26.537476,-69.458008,4.785249,2.543335,-28.259277,30.119766,-90.74707,3.479004,-7.980205,127.540283,35.27832,2.692002,0.889893,-53.466797,12.25292,-41.264648,-1.708984,-1.17835,125.963745,170.410156,-0.114961,-3.872681,-28.442383,12.190649,-132.154541,-9.033203,-1.125659,10.772095,50.78125,0.752036,-1.933594,-4.760742,2.730322,-102.854004,-4.089355,10.097402,0,7944,38919,46083,30723,0,0,60164,24326,2817,14338,0,0,0,0,0,0,0,40453,0,39691,0,0,0,26369,0,2829,0,0,20736,56068,0,29697,65029,59400,0,659,43329,independent_20260430_213431,trial_001,subject_001,1777556074.626219,278866.2357368,2473040,1,0,0,1,20.957973649376623,664.252171319019,852.7744907157219,108.36617968150814,657.1737249769463,853.2814710093703,24.376234189388747,440.48075585666953,903.446003629329,85.2387383865329,434.4652746062416,892.1677416024546,-110.13125738721834,620.6217317692743,711.6295730169255,-92.4693676139862,609.4191981839186,414.9252844617303,-107.22298909319642,565.3078326829298,276.2189387861565,-50.95330796881364,522.909904726847,78.16917573401825,2.15332471186216,463.943277690504,43.44948852786108,-6.407310825732745,735.0476868630152,62.349256275406766,232.3115512266943,614.8199084045813,700.3129906798865,213.1504856382204,676.3522365599288,417.3757796181904,220.550874209268,546.372902880197,351.5280281745199,148.22643241973077,385.2033821784708,199.41756606957605,80.64673639945586,332.9486711327633,224.2442600109184,169.55307398899456,520.2762596233644,57.06241600585533,58.87255424559282,41.127445754407184,60.4736503807207,39.52634961927931,112.1535262135154,73.93380207153535,74.42523310309032,73.44237103998037,147.8676041430707,147.8676041430707,1.3819894347824666,1.3819894347824666,21.21441625387997,1.069961900007911,0
1777556074.633,3.1146296296296327,37.28407407407407,22.292074,6.79537,-21.781074074074084,12.934704,-17.285222,79.315796,16.906738,1.805845,-0.900879,-13.366699,11.491304,-53.234253,-13.549805,3.975732,71.768188,3.479004,-1.302891,5.053711,-57.495117,10.197993,-34.233398,-37.963867,7.031777,79.815674,76.416016,4.660708,8.33313,55.297852,30.009595,-106.122437,22.949219,14.633569,-15.754395,368.286133,5.273833,-1.389771,49.499512,-4.708608,-89.626465,-46.325684,6.346802,127.540283,35.27832,2.692002,0.889893,-53.466797,12.25292,-41.264648,-1.708984,-1.17835,129.660645,187.438965,-2.965034,-3.103638,-66.040039,13.028906,-132.929077,-3.356934,-0.368833,10.772095,50.78125,0.752036,-1.933594,-4.760742,2.730322,-102.854004,-4.089355,10.097402,0,7944,38919,46083,30723,0,0,60164,24326,2817,14338,0,0,0,0,0,0,0,40453,0,39691,0,0,0,26369,0,2829,0,0,20736,56068,0,29697,65029,59400,0,659,43329,independent_20260430_213431,trial_001,subject_001,1777556074.6362195,278866.245858,2473041,1,0,0,1,19.766925648988195,662.2926524582292,853.5302212028757,107.0820825477922,655.7386716922822,855.0653011235395,25.8364318526969,438.3554271944268,904.6939856310876,86.71155044802259,433.0408910069183,893.547985749926,-110.51093559349498,613.8637314337178,711.4909269666925,-93.61151374263636,597.083673109923,415.033420243953,-108.0262600288817,551.6624925166798,276.809050819584,-50.75761552925816,508.2743432073301,78.18180536542962,1.4406832336460027,449.3995004506939,43.91374614939306,-7.283334734529885,720.548074692967,62.22377300664681,233.32467943051307,618.8075020850406,704.953191077199,213.86976413671863,686.8730075723412,422.75634435965145,221.7515615892776,560.3272120855594,350.1643432501781,149.61079030992644,407.7163156309433,188.8011164069456,82.64055960399385,353.88564950320506,208.85872439877696,170.4546617825138,552.24686600261,55.91633057365428,58.87255424559282,41.127445754407184,60.4736503807207,39.52634961927931,112.1535262135154,73.93380207153535,74.42523310309032,73.44237103998037,147.8676041430707,147.8676041430707,1.3819894347824666,1.3819894347824666,21.21441625387997,1.069961900007911,0
1777556074.644,3.762629629629629,35.72907407407408,22.292074,8.61837,-21.781074074074084,20.531704,-25.097222,79.963989,26.611328,2.42855,-1.170044,-44.006348,13.718672,-54.371338,17.822266,-5.106182,73.322754,63.415527,4.517007,5.630493,-16.052246,19.265537,-36.282349,2.13623,-4.445156,79.815674,76.416016,4.660708,8.33313,55.297852,30.009595,-106.122437,22.949219,14.633569,-6.37207,296.142578,7.510781,-1.818237,63.964844,2.783013,-89.818726,6.530762,12.353511,127.540283,35.27832,2.692002,0.889893,-53.466797,12.25292,-41.264648,-1.708984,-1.17835,137.25769,231.018066,1.825005,-1.159058,-55.419922,18.456021,-134.412231,-18.005371,5.934858,11.661987,-39.794922,0.450264,-2.515869,-58.227539,1.791475,-103.540649,-19.470215,8.789722,0,7944,38919,46083,30723,0,0,60164,24326,2817,14338,0,0,0,0,0,0,0,40453,0,39691,0,0,0,26369,0,2829,0,0,20736,56068,0,29697,65029,59400,0,659,43329,independent_20260430_213431,trial_001,subject_001,1777556074.646218,278866.2557174,2473042,1,0,0,1,18.232654537532493,659.6246829746484,853.972990747271,105.7422995757302,654.3338008104452,856.2383953329195,27.476140321747888,436.1367563412584,905.6134927567304,88.50214294121662,431.4953271224683,894.6361191519995,-110.9659556970508,606.1611229615572,711.2007791535586,-94.56322030914696,584.4623371031929,415.06283452016567,-108.58830273951364,537.5297936958233,277.42743188721846,-51.42966182280543,493.9332453444789,78.61444892057705,0.6720515559218656,434.1289766994232,44.404034020615015,-7.99896964745925,705.8160445968288,61.996028085638216,234.767715072558,620.7100865573283,709.384767411793,214.52671056154665,696.7419325521098,427.7759750641291,223.0356893645552,574.1971680235976,348.19752096734453,151.1295021184209,431.1142694454708,177.78407305467056,84.58049563836587,376.0244179873544,192.1698985723123,171.74520701002766,584.2546057928831,55.73748723622451,58.87255424559282,41.127445754407184,60.4736503807207,39.52634961927931,112.1535262135154,73.93380207153535,74.42523310309032,73.44237103998037,147.8676041430707,147.8676041430707,1.3819894347824666,1.3819894347824666,21.21441625387997,1.069961900007911,0
1777556074.651,3.762629629629629,35.72907407407408,22.292074,8.61837,-21.781074074074084,20.531704,-25.097222,79.963989,26.611328,2.42855,-1.170044,-44.006348,13.718672,-54.371338,17.822266,-5.106182,73.322754,63.415527,4.517007,5.630493,-16.052246,19.265537,-36.282349,2.13623,-4.445156,79.815674,76.416016,4.660708,8.33313,55.297852,30.009595,-106.122437,22.949219,14.633569,-6.37207,296.142578,7.510781,-1.818237,63.964844,2.783013,-89.818726,6.530762,12.353511,127.540283,35.27832,2.692002,0.889893,-53.466797,12.25292,-41.264648,-1.708984,-1.17835,137.25769,231.018066,1.825005,-1.159058,-55.419922,18.456021,-134.412231,-18.005371,5.934858,11.661987,-39.794922,0.450264,-2.515869,-58.227539,1.791475,-103.540649,-19.470215,8.789722,0,7944,38919,46083,30723,0,0,60164,24326,2817,14338,0,0,0,0,0,0,0,29965,38144,9994,0,0,0,32265,0,22794,0,0,3331,50956,0,0,54534,2063,0,659,43330,independent_20260430_213431,trial_001,subject_001,1777556074.646218,278866.2557174,2473042,1,0,0,1,18.232654537532493,659.6246829746484,853.972990747271,105.7422995757302,654.3338008104452,856.2383953329195,27.476140321747888,436.1367563412584,905.6134927567304,88.50214294121662,431.4953271224683,894.6361191519995,-110.9659556970508,606.1611229615572,711.2007791535586,-94.56322030914696,584.4623371031929,415.06283452016567,-108.58830273951364,537.5297936958233,277.42743188721846,-51.42966182280543,493.9332453444789,78.61444892057705,0.6720515559218656,434.1289766994232,44.84474107577402,-7.99896964745925,705.8160445968288,61.75759809459859,234.767715072558,620.7100865573283,709.384767411793,214.52671056154665,696.7419325521098,427.7759750641291,223.0356893645552,574.1971680235976,348.19752096734453,151.1295021184209,431.1142694454708,177.78407305467056,84.58049563836587,376.0244179873544,175.53946381892877,171.74520701002766,584.2546057928831,55.33697970830632,58.87255424559282,41.127445754407184,60.4736503807207,39.52634961927931,112.1535262135154,73.93380207153535,74.42523310309032,73.44237103998037,147.8676041430707,147.8676041430707,1.3819894347824666,1.3819894347824666,21.21441625387997,1.069961900007911,0
1777556074.664,4.443629629629626,35.72907407407408,27.707074,12.89237,-16.52407407407408,24.315704,-25.097222,80.645142,46.081543,1.23583,-1.571045,-28.137207,12.779824,-54.783325,21.789551,-8.243657,73.322754,63.415527,4.517007,5.630493,-16.052246,19.265537,-36.282349,2.13623,-4.445156,86.786499,189.758301,4.684658,6.256714,-73.059082,7.256909,-111.253052,23.803711,-12.161909,-2.098389,131.408691,5.982759,0.049438,129.272461,15.064673,-90.192261,4.333496,31.987881,122.283325,-167.175293,4.186494,1.257935,44.433594,16.923208,-42.687378,35.949707,3.285967,141.04248,256.591797,3.233276,-0.637207,-24.108887,19.418818,-134.533081,-15.869141,5.824688,11.661987,-39.794922,0.450264,-2.515869,-58.227539,1.791475,-103.540649,-19.470215,8.789722,0,7944,38919,46083,30723,0,0,60164,24326,2817,14338,0,0,0,0,0,0,0,31763,36103,15113,0,0,0,33295,11015,39177,0,0,0,10255,0,0,44800,41228,0,659,43331,independent_20260430_213431,trial_001,subject_001,1777556074.6667385,278866.2758948,2473044,1,0,0,1,15.249779468877357,654.1433990042547,853.912457154656,0.0,0.0,0.0,31.267282445517942,431.65770119365385,906.1762918972462,93.24967253323224,428.619375102116,895.4234145585191,-111.8563931591907,593.6278096243225,709.8133275236266,-96.63983756480118,559.1340894376754,414.9773781143681,-109.3219356031722,509.5663670319887,278.4643047053368,-51.41799574986351,464.3443756197718,78.77187823267116,-0.8759300080902792,404.3966915611048,45.30987263631085,-9.610983755575877,676.552549702376,61.43018277820462,236.55596262498267,626.2346105160809,716.4444456652346,215.8515161778472,714.3846290232918,436.5237267438416,225.0514526666136,602.1200685424197,342.1979226764877,154.84936820287965,480.5447656251814,155.15199914357015,88.0555825786009,423.8422277130786,158.41506481838485,176.5272711527556,648.864057358955,56.40376488343831,58.87255424559282,41.127445754407184,60.4736503807207,39.52634961927931,112.1535262135154,73.93380207153535,74.42523310309032,73.44237103998037,147.8676041430707,147.8676041430707,1.3819894347824666,1.3819894347824666,21.21441625387997,1.069961900007911,0
1777556074.675,4.443629629629626,35.72907407407408,27.707074,12.89237,-16.52407407407408,24.315704,-25.097222,80.645142,46.081543,1.23583,-1.571045,-28.137207,12.779824,-54.783325,21.789551,-8.243657,73.322754,63.415527,4.517007,5.630493,-16.052246,19.265537,-36.282349,2.13623,-4.445156,86.786499,189.758301,4.684658,6.256714,-73.059082,7.256909,-111.253052,23.803711,-12.161909,-2.098389,131.408691,5.982759,0.049438,129.272461,15.064673,-90.192261,4.333496,31.987881,122.283325,-167.175293,4.186494,1.257935,44.433594,16.923208,-42.687378,35.949707,3.285967,141.04248,256.591797,3.233276,-0.637207,-24.108887,19.418818,-134.533081,-15.869141,5.824688,11.661987,-39.794922,0.450264,-2.515869,-58.227539,1.791475,-103.540649,-19.470215,8.789722,0,7944,38919,46083,30723,0,0,60164,24326,2817,14338,0,0,0,0,0,0,0,25617,26637,20746,0,0,0,27656,34317,41740,0,0,0,34563,64515,0,0,25346,0,659,43332,independent_20260430_213431,trial_001,subject_001,1777556074.6762502,278866.2856935,2473045,1,0,0,1,0.0,0.0,0.0,0.0,0.0,0.0,33.215153013636034,429.4053743878023,906.1187866371056,93.36805421689476,426.64972123711294,895.230852194518,-112.37590203991364,586.46643213068,708.8148161883732,-97.38431465958064,546.9512677921755,414.8340362354994,-109.7800736593909,496.1635511470153,278.7714344646662,-52.06415886452267,450.65100913678685,79.12480926507676,-1.3660789529296795,389.6842005818088,45.729343060993,-10.29844328090666,661.8684270117158,61.11420598395157,237.3125250131108,628.2775350179005,719.1103237298213,216.4367309334729,722.0707201732466,440.2125820329916,226.39781258871497,615.6660924689546,339.0138066410308,156.21471067910997,506.3491722095856,143.9418682753293,89.58267517822539,449.5966958406223,141.78029807011805,179.96602449295915,681.3119458285372,57.31734073392027,58.87255424559282,41.127445754407184,60.4736503807207,39.52634961927931,112.1535262135154,73.93380207153535,74.42523310309032,73.44237103998037,147.8676041430707,147.8676041430707,1.3819894347824666,1.3819894347824666,21.21441625387997,1.069961900007911,0
1777556074.681,4.443629629629626,35.72907407407408,27.707074,12.89237,-16.52407407407408,24.315704,-25.097222,80.645142,46.081543,1.23583,-1.571045,-28.137207,12.779824,-54.783325,21.789551,-8.243657,73.322754,63.415527,4.517007,5.630493,-16.052246,19.265537,-36.282349,2.13623,-4.445156,86.786499,189.758301,4.684658,6.256714,-73.059082,7.256909,-111.253052,23.803711,-12.161909,-2.098389,131.408691,5.982759,0.049438,129.272461,15.064673,-90.192261,4.333496,31.987881,122.283325,-167.175293,4.186494,1.257935,44.433594,16.923208,-42.687378,35.949707,3.285967,141.04248,256.591797,3.233276,-0.637207,-24.108887,19.418818,-134.533081,-15.869141,5.824688,11.661987,-39.794922,0.450264,-2.515869,-58.227539,1.791475,-103.540649,-19.470215,8.789722,0,7944,38919,46083,30723,0,0,60164,24326,2817,14338,0,0,0,0,0,0,0,25617,26637,20746,0,0,0,27656,34317,41740,0,0,0,34563,64515,0,0,25346,0,659,43332,independent_20260430_213431,trial_001,subject_001,1777556074.6762502,278866.2856935,2473045,1,0,0,1,0.0,0.0,0.0,0.0,0.0,0.0,33.215153013636034,429.4053743878023,906.1187866371056,93.36805421689476,426.64972123711294,895.230852194518,-112.37590203991364,586.46643213068,708.8148161883732,-97.38431465958064,546.9512677921755,414.8340362354994,-109.7800736593909,496.1635511470153,278.7714344646662,-52.06415886452267,450.65100913678685,79.12480926507676,-1.3660789529296795,389.6842005818088,46.11327098934534,-10.29844328090666,661.8684270117158,60.73442958207775,237.3125250131108,628.2775350179005,719.1103237298213,216.4367309334729,722.0707201732466,440.2125820329916,226.39781258871497,615.6660924689546,339.0138066410308,156.21471067910997,506.3491722095856,143.9418682753293,89.58267517822539,449.5966958406223,126.15288867934132,179.96602449295915,681.3119458285372,59.353655404843884,58.87255424559282,41.127445754407184,60.4736503807207,39.52634961927931,112.1535262135154,73.93380207153535,74.42523310309032,73.44237103998037,147.8676041430707,147.8676041430707,1.3819894347824666,1.3819894347824666,21.21441625387997,1.069961900007911,0
1777556074.695,4.613629629629628,35.39407407407407,27.707074,7.53137,-16.52407407407408,38.136704,-19.592222,80.81543,-13.977051,-2.629731,-2.098389,18.188477,13.134287,-54.678955,14.038086,-3.305127,73.657837,87.646484,10.633887,5.147095,96.496582,-0.153281,-39.276123,-43.518066,-10.514136,86.786499,189.758301,4.684658,6.256714,-73.059082,7.256909,-111.253052,23.803711,-12.161909,-0.488892,28.137207,-3.616479,1.224976,29.968262,-0.359253,-90.357056,1.037598,16.128062,122.283325,-167.175293,4.186494,1.257935,44.433594,16.923208,-42.687378,35.949707,3.285967,149.606323,235.290527,3.7027,-0.812988,11.291504,16.674126,-133.813477,-7.202148,-6.571934,28.547974,830.871582,4.014053,-2.416992,83.740234,-18.968555,-106.325684,-61.584473,23.523882,0,7944,38919,46083,30723,0,0,60164,24326,2817,14338,0,0,0,0,0,0,0,25617,26637,20746,0,0,0,27656,34317,41740,0,0,0,34563,64515,0,0,25346,0,659,43332,independent_20260430_213431,trial_001,subject_001,1777556074.696249,278866.3056558,2473047,1,0,0,1,11.157464589397314,645.9308243069364,850.9220541280337,98.88794828866068,646.2474105887709,855.5195215435488,37.01928306156281,424.9065899101417,904.4441496961906,98.07291284552832,423.8129197151723,893.7891082661735,-112.98307311283163,572.2576129752845,706.7200415164765,-98.78893788566047,524.3169323876685,414.0193342772165,-110.57021412077496,471.0738749560358,278.8817811566293,-52.68695451229917,421.62242885146856,79.41582964325137,-2.4337485131750083,360.17158740151746,46.50880854798304,-11.769086225805014,632.5799854131687,60.29321230010284,238.57522294441088,632.1206588578875,722.6319411799604,217.6455294378587,734.9265277440044,446.0054349177236,228.67358701953728,641.8107477256531,332.18082509799075,160.9341843919542,560.3014552070437,122.75875293217716,93.2539343063432,505.7956951267591,111.09145483176472,188.97449247185,745.4648782137313,62.66251420755786,58.87255424559282,41.127445754407184,60.4736503807207,39.52634961927931,112.1535262135154,73.93380207153535,74.42523310309032,73.44237103998037,147.8676041430707,147.8676041430707,1.3819894347824666,1.3819894347824666,21.21441625387997,1.069961900007911,0
1777556074.714,4.613629629629628,35.39407407407407,27.707074,7.53137,-16.52407407407408,38.136704,-19.592222,80.81543,-13.977051,-2.629731,-2.098389,18.188477,13.134287,-54.678955,14.038086,-3.305127,73.657837,87.646484,10.633887,5.147095,96.496582,-0.153281,-39.276123,-43.518066,-10.514136,86.786499,189.758301,4.684658,6.256714,-73.059082,7.256909,-111.253052,23.803711,-12.161909,-0.488892,28.137207,-3.616479,1.224976,29.968262,-0.359253,-90.357056,1.037598,16.128062,122.283325,-167.175293,4.186494,1.257935,44.433594,16.923208,-42.687378,35.949707,3.285967,149.606323,235.290527,3.7027,-0.812988,11.291504,16.674126,-133.813477,-7.202148,-6.571934,28.547974,830.871582,4.014053,-2.416992,83.740234,-18.968555,-106.325684,-61.584473,23.523882,0,7944,38919,46083,30723,0,0,60164,24326,2817,14338,0,0,0,0,0,0,0,25617,26637,20746,0,0,0,27656,34317,41740,0,0,0,34563,64515,0,0,25346,0,659,43332,independent_20260430_213431,trial_001,subject_001,1777556074.7167652,278866.3258992,2473049,1,0,0,1,8.867730930298327,640.6120107862204,847.1717983796399,96.69475559205364,643.5500837325274,852.4369205421681,40.89149840299031,420.47868082736784,901.4249019688506,101.8633074279219,421.0451187353535,890.7052141068701,-113.82386450112092,558.4013599867593,704.2823065348281,-99.87202546409448,503.3435781447725,412.8010354419254,-111.7360958835958,447.78192731875873,278.762374804457,-53.97739539000129,392.7879845823658,80.08381711766981,-3.430047193588229,330.81400351525923,46.77179180900179,-13.58144308675104,603.543810192506,59.835449049364655,239.32589833906604,634.3692290835862,723.3212891618838,218.7507438549472,744.5086005509611,449.522513779736,231.19613395965192,666.9187517686664,324.8327721385027,166.22191980012644,616.4969046433365,104.37553392000156,98.0664553971161,565.9205622358445,97.27842811497986,199.1740490415263,808.0418436534943,66.97035125605638,58.87255424559282,41.127445754407184,60.4736503807207,39.52634961927931,112.1535262135154,73.93380207153535,74.42523310309032,73.44237103998037,147.8676041430707,147.8676041430707,1.3819894347824666,1.3819894347824666,21.21441625387997,1.069961900007911,0
1777556074.73,4.613629629629628,31.181074074074075,32.212074,2.76337,-9.729074074074076,38.136704,6.087778,80.81543,-13.977051,-2.629731,-2.098389,18.188477,13.134287,-54.678955,14.038086,-3.305127,77.871094,137.634277,-8.090376,7.575073,105.285645,11.06499,-35.727539,-37.29248,-7.941885,91.625977,119.995117,-4.287085,6.465454,-74.035645,8.966953,-114.433594,6.591797,-11.122471,-0.41748,-2.380371,-0.407153,1.241455,0.427246,-0.138911,-90.32959,3.356934,12.23376,115.488281,-197.692871,0.340093,-0.472412,50.170898,15.031143,-41.951294,33.447266,-8.847202,149.606323,235.290527,3.7027,-0.812988,11.291504,16.674126,-133.813477,-7.202148,-6.571934,62.792358,1065.368652,1.470542,1.472168,67.260742,1.21667,-104.842529,-78.00293,-6.979087,0,7944,38919,46083,30723,0,0,60164,24326,2817,14338,0,0,0,0,0,0,0,25617,26637,20746,0,0,0,27656,34317,41740,0,0,0,34563,64515,0,0,25346,0,659,43332,independent_20260430_213431,trial_001,subject_001,1777556074.7257714,278866.3355538,2473050,1,0,0,1,7.840659730782335,638.2545186397946,844.9905801786285,95.71797724994364,642.2617041373635,850.3417747711818,42.92241842532314,418.5909185867328,899.5069589563213,103.66665182467791,419.7750635243965,888.5654106232373,-113.79576650803637,552.415170589833,702.8860955617838,-100.498349159431,493.2185580948458,412.19296543233344,-112.39805775514031,436.2114071111178,278.6583894162479,-54.59324012353185,378.785801187992,80.63169539662577,-4.2864844518122505,316.015525768714,47.06053560128703,-14.418461194968035,588.8845967382975,59.29675060929429,239.79881416092985,634.8692540411097,722.5081568196132,219.19224011455248,748.1846528639086,450.4079445178446,232.57655359429447,679.0965670154685,321.0127296078236,168.9612604136945,645.0992938726903,96.15822684453828,100.88732172298702,596.844196313771,83.9927818594683,203.835428709754,838.6346784642752,73.13777188128995,58.87255424559282,41.127445754407184,60.4736503807207,39.52634961927931,112.1535262135154,73.93380207153535,74.42523310309032,73.44237103998037,147.8676041430707,147.8676041430707,1.3819894347824666,1.3819894347824666,21.21441625387997,1.069961900007911,0
1777556074.731,4.613629629629628,31.181074074074075,32.212074,2.76337,-9.729074074074076,38.136704,6.087778,80.81543,-13.977051,-2.629731,-2.098389,18.188477,13.134287,-54.678955,14.038086,-3.305127,77.871094,137.634277,-8.090376,7.575073,105.285645,11.06499,-35.727539,-37.29248,-7.941885,91.625977,119.995117,-4.287085,6.465454,-74.035645,8.966953,-114.433594,6.591797,-11.122471,-0.41748,-2.380371,-0.407153,1.241455,0.427246,-0.138911,-90.32959,3.356934,12.23376,115.488281,-197.692871,0.340093,-0.472412,50.170898,15.031143,-41.951294,33.447266,-8.847202,149.606323,235.290527,3.7027,-0.812988,11.291504,16.674126,-133.813477,-7.202148,-6.571934,62.792358,1065.368652,1.470542,1.472168,67.260742,1.21667,-104.842529,-78.00293,-6.979087,0,7944,38919,46083,30723,0,0,60164,24326,2817,14338,0,0,0,0,0,0,0,25617,26637,20746,0,0,0,27656,34317,41740,0,0,0,34563,64515,0,0,25346,0,659,43332,independent_20260430_213431,trial_001,subject_001,1777556074.735859,278866.345538,2473051,1,0,0,1,6.998558097501848,636.2045571113043,842.7722375954089,94.86330428360404,641.1360869509882,848.020504222653,44.86566291264998,416.63497079308087,897.3945545871271,105.59397480029456,418.5752493655688,886.22959817696,-113.71056257797996,546.4194256617413,701.3642262193309,-101.00685402595592,483.2918672227962,411.4758978015591,-112.96898238615988,424.5849645888805,278.71475752377694,-54.92079168261405,364.8359847857197,81.04533605493971,-4.938791276261519,301.29724115907675,47.41466718742964,-15.232069455826467,574.2102093965393,58.68672377535712,239.7463514426304,634.7116866866614,720.9865643881857,219.636543851162,751.2439192646594,450.7320313213903,234.20714081718955,691.1369376607519,317.460538417596,172.18260729191667,673.9517664536111,89.67261709002126,104.29675765998456,627.6184535249369,72.01222822532884,207.6453556077835,868.6685743297716,81.13927788082007,58.87255424559282,41.127445754407184,60.4736503807207,39.52634961927931,112.1535262135154,73.93380207153535,74.42523310309032,73.44237103998037,147.8676041430707,147.8676041430707,1.3819894347824666,1.3819894347824666,21.21441625387997,1.069961900007911,0
1777556074.746,4.130629629629624,31.181074074074075,31.317074,2.76337,-2.7530740740740782,49.672704,18.749778,80.332031,0.671387,1.025068,-2.559814,17.272949,10.835068,-53.904419,11.230469,-1.312471,77.871094,137.634277,-8.090376,7.575073,105.285645,11.06499,-35.727539,-37.29248,-7.941885,94.943848,78.430176,3.870352,6.240234,187.744141,11.965518,-112.307739,15.014648,-4.694238,-0.41748,-2.380371,-0.407153,1.241455,0.427246,-0.138911,-90.32959,3.356934,12.23376,108.511963,-191.833496,-1.379531,-2.850952,69.091797,16.554375,-40.237427,47.302246,-6.576724,154.346924,114.135742,-3.472778,1.043701,-100.891113,16.492104,-134.642944,-9.887695,-8.751401,80.194702,-128.90625,10.585986,6.844482,51.940918,27.566675,-105.957642,-203.430176,94.679912,0,7944,38919,46083,30723,0,0,60164,24326,2817,14338,0,0,0,0,0,0,0,30984,20996,35335,0,0,0,48897,3333,42251,0,0,0,0,771,0,0,0,0,659,43333,independent_20260430_213431,trial_001,subject_001,1777556074.7463708,278866.3556103,2473052,1,0,0,1,6.15557692887726,634.1240921825998,840.5217804821606,94.11613251398478,640.2351889591466,845.5553955126203,46.8704235952965,415.1152016659653,894.862816778212,107.43645006587136,417.50546475634366,883.4628959234661,-113.61850635735466,541.0615184303924,699.6496195165054,-101.570382581206,473.47533107541545,410.71997123038886,-113.51107725358182,413.1354369435052,278.7009933258284,-55.61752586021819,350.44302560013466,81.94147486065911,-5.680530103006682,286.7120811070088,47.86305546965741,-15.945174865821375,559.6505528343732,58.006006560275,239.65032638496064,634.2587109775421,718.6759482487461,219.90823432308167,753.8003861940858,450.44142123060186,235.181262768868,703.3319727141302,313.089640340515,175.72302889535953,702.5237094344305,84.52844333604625,108.08687149392092,657.9392575994999,61.50041959911528,210.19761824135435,897.8330973332237,90.73655519141955,58.87255424559282,41.127445754407184,60.4736503807207,39.52634961927931,112.1535262135154,73.93380207153535,74.42523310309032,73.44237103998037,147.8676041430707,147.8676041430707,1.3819894347824666,1.3819894347824666,21.21441625387997,1.069961900007911,0
1777556074.751,4.130629629629624,31.181074074074075,31.317074,2.76337,-2.7530740740740782,49.672704,18.749778,80.332031,0.671387,1.025068,-2.559814,17.272949,10.835068,-53.904419,11.230469,-1.312471,77.871094,137.634277,-8.090376,7.575073,105.285645,11.06499,-35.727539,-37.29248,-7.941885,94.943848,78.430176,3.870352,6.240234,187.744141,11.965518,-112.307739,15.014648,-4.694238,-0.41748,-2.380371,-0.407153,1.241455,0.427246,-0.138911,-90.32959,3.356934,12.23376,108.511963,-191.833496,-1.379531,-2.850952,69.091797,16.554375,-40.237427,47.302246,-6.576724,154.346924,114.135742,-3.472778,1.043701,-100.891113,16.492104,-134.642944,-9.887695,-8.751401,80.194702,-128.90625,10.585986,6.844482,51.940918,27.566675,-105.957642,-203.430176,94.679912,0,7944,38919,46083,30723,0,0,60164,24326,2817,14338,0,0,0,0,0,0,0,30984,20996,35335,0,0,0,48897,3333,42251,0,0,0,0,771,0,0,0,0,659,43333,independent_20260430_213431,trial_001,subject_001,1777556074.7463708,278866.3556103,2473052,1,0,0,1,6.15557692887726,634.1240921825998,840.5217804821606,94.11613251398478,640.2351889591466,845.5553955126203,46.8704235952965,415.1152016659653,894.862816778212,107.43645006587136,417.50546475634366,883.4628959234661,-113.61850635735466,541.0615184303924,699.6496195165054,-101.570382581206,473.47533107541545,410.71997123038886,-113.51107725358182,413.1354369435052,278.7009933258284,-55.61752586021819,350.44302560013466,81.94147486065911,-5.680530103006682,286.7120811070088,48.38337773895243,-15.945174865821375,559.6505528343732,57.29022833140081,239.65032638496064,634.2587109775421,718.6759482487461,219.90823432308167,753.8003861940858,450.44142123060186,235.181262768868,703.3319727141302,313.089640340515,175.72302889535953,702.5237094344305,84.52844333604625,108.08687149392092,657.9392575994999,52.5121731102135,210.19761824135435,897.8330973332237,101.54391829420014,58.87255424559282,41.127445754407184,60.4736503807207,39.52634961927931,112.1535262135154,73.93380207153535,74.42523310309032,73.44237103998037,147.8676041430707,147.8676041430707,1.3819894347824666,1.3819894347824666,21.21441625387997,1.069961900007911,0
1777556074.763,4.817629629629636,27.094074074074072,31.317074,-0.69263,-2.7530740740740782,58.598704,18.749778,81.018677,16.601562,2.179468,-2.04895,13.793945,10.945239,-53.459473,-20.874023,-1.638193,81.958008,118.286133,-3.075205,7.349854,-59.326172,10.576406,-36.551514,6.896973,-3.242856,94.943848,78.430176,3.870352,6.240234,187.744141,11.965518,-112.307739,15.014648,-4.694238,-0.55481,-1.708984,-0.819097,1.257935,-0.244141,0.316143,-90.291138,1.098633,11.395503,108.511963,-191.833496,-1.379531,-2.850952,69.091797,16.554375,-40.237427,47.302246,-6.576724,156.296997,37.353516,2.806963,4.828491,-89.050293,7.113208,-136.307373,7.202148,-15.146104,80.194702,-128.90625,10.585986,6.844482,51.940918,27.566675,-105.957642,-203.430176,94.679912,0,7944,38919,46083,30723,0,0,60164,24326,2817,14338,0,0,0,0,0,0,0,30984,20996,35335,0,0,0,48897,3333,42251,0,0,0,0,771,0,0,0,0,659,43333,independent_20260430_213431,trial_001,subject_001,1777556074.766884,278866.3757633,2473054,1,0,0,1,4.894413391942404,631.3835509137265,836.1069230564678,92.84241707355174,639.4163473503094,840.4113406619721,50.45376956922336,412.3994843896117,888.4912490673872,110.60266013857876,416.0048688268831,876.9010950968824,-113.49182498000012,531.5176018401633,696.3995588804949,-102.46296434117843,454.9337340921396,409.4012828267088,-114.29477238962386,390.75717773041055,278.90174078273554,-57.05062506056347,322.3224607402137,84.13017956967474,-6.775953529379489,257.2505478046942,49.08348479400213,-17.427878778673236,530.7233714270332,56.53838913194862,239.0378338139085,632.7140817425875,712.1847989010229,219.9865142600268,758.2480020633207,448.19750598758577,239.5462098701427,727.4126887587765,307.0543249970998,183.1498845696412,757.8898014840836,78.70782542412363,117.4725562463281,715.8764125858452,44.86402933700071,211.05446401134105,951.845780597988,113.14333028935398,58.87255424559282,41.127445754407184,60.4736503807207,39.52634961927931,112.1535262135154,73.93380207153535,74.42523310309032,73.44237103998037,147.8676041430707,147.8676041430707,1.3819894347824666,1.3819894347824666,21.21441625387997,1.069961900007911,0
1777556074.771,4.817629629629636,27.094074074074072,31.317074,-0.69263,-2.7530740740740782,58.598704,18.749778,81.018677,16.601562,2.179468,-2.04895,13.793945,10.945239,-53.459473,-20.874023,-1.638193,81.958008,118.286133,-3.075205,7.349854,-59.326172,10.576406,-36.551514,6.896973,-3.242856,94.943848,78.430176,3.870352,6.240234,187.744141,11.965518,-112.307739,15.014648,-4.694238,-0.55481,-1.708984,-0.819097,1.257935,-0.244141,0.316143,-90.291138,1.098633,11.395503,108.511963,-191.833496,-1.379531,-2.850952,69.091797,16.554375,-40.237427,47.302246,-6.576724,156.296997,37.353516,2.806963,4.828491,-89.050293,7.113208,-136.307373,7.202148,-15.146104,80.194702,-128.90625,10.585986,6.844482,51.940918,27.566675,-105.957642,-203.430176,94.679912,0,7944,38919,46083,30723,0,0,60164,24326,2817,14338,0,0,0,0,0,0,0,30984,20996,35335,0,0,0,48897,3333,42251,0,0,0,0,771,0,0,0,0,659,43333,independent_20260430_213431,trial_001,subject_001,1777556074.766884,278866.3757633,2473054,1,0,0,1,4.894413391942404,631.3835509137265,836.1069230564678,92.84241707355174,639.4163473503094,840.4113406619721,50.45376956922336,412.3994843896117,888.4912490673872,110.60266013857876,416.0048688268831,876.9010950968824,-113.49182498000012,531.5176018401633,696.3995588804949,-102.46296434117843,454.9337340921396,409.4012828267088,-114.29477238962386,390.75717773041055,278.90174078273554,-57.05062506056347,322.3224607402137,84.13017956967474,-6.775953529379489,257.2505478046942,50.20036834203961,-17.427878778673236,530.7233714270332,55.75700503976197,239.0378338139085,632.7140817425875,712.1847989010229,219.9865142600268,758.2480020633207,448.19750598758577,239.5462098701427,727.4126887587765,307.0543249970998,183.1498845696412,757.8898014840836,78.70782542412363,117.4725562463281,715.8764125858452,39.87319920232264,211.05446401134105,951.845780597988,124.38874441671024,58.87255424559282,41.127445754407184,60.4736503807207,39.52634961927931,112.1535262135154,73.93380207153535,74.42523310309032,73.44237103998037,147.8676041430707,147.8676041430707,1.3819894347824666,1.3819894347824666,21.21441625387997,1.069961900007911,0
1777556074.784,4.938629629629631,27.094074074074072,30.817074,-0.69263,6.969925925925921,57.873704,2.582778,81.139526,6.286621,1.298101,-1.691895,16.723633,10.336904,-53.267212,-20.385742,-1.427432,81.958008,118.286133,-3.075205,7.349854,-59.326172,10.576406,-36.551514,6.896973,-3.242856,98.530884,61.462402,-7.529941,6.70166,-12.573242,9.84353,-107.803345,4.638672,-3.056045,-0.55481,-1.708984,-0.819097,1.257935,-0.244141,0.316143,-90.291138,1.098633,11.395503,98.789062,-177.368164,1.22625,-6.498413,4.760742,13.316309,-39.160767,80.322266,-2.931504,155.571899,-58.654785,4.138594,5.333862,-12.268066,8.133486,-136.785278,13.427734,-6.840176,65.253296,-235.778809,5.106182,11.195068,-15.50293,-8.832832,-105.463257,-56.57959,-6.706055,0,7944,38919,46083,30723,0,0,60164,24326,2817,14338,0,0,0,0,0,0,0,30984,20996,35335,0,0,0,48897,3333,42251,0,0,0,0,771,0,0,0,0,659,43333,independent_20260430_213431,trial_001,subject_001,1777556074.7859256,278866.3956815,2473056,1,0,0,1,4.2905364354826485,629.4567129423253,831.2868933421033,92.13064142915296,639.2154084025271,834.8305129137484,53.95413469869202,410.7801987454132,881.4127965162915,113.66902133048336,415.17812131680427,869.2813552132186,-112.9869293340918,523.646028266248,692.1354653342456,-102.49961610905464,437.7861737104078,407.56282646211065,-115.13746146940468,369.6417044100394,279.08954480236144,-57.876909211360406,294.11172226236084,86.18135086773879,-8.25202638598579,227.9104736364041,51.45339851506856,-18.86313871612062,501.5348249710004,54.979257354572105,238.37678694846733,631.2480246174406,704.7518818915635,219.0833301066509,761.9863197089269,444.89248692003673,242.5205060051682,750.2366041531634,302.8418901493181,190.33774356515283,808.0520977747653,78.84987335772148,127.45714076187426,768.3113247567886,35.323633006849974,207.0777124158201,997.5482273352044,135.63387416430203,58.87255424559282,41.127445754407184,60.4736503807207,39.52634961927931,112.1535262135154,73.93380207153535,74.42523310309032,73.44237103998037,147.8676041430707,147.8676041430707,1.3819894347824666,1.3819894347824666,21.21441625387997,1.069961900007911,0
1777556074.792,4.938629629629631,27.094074074074072,30.817074,-0.69263,6.969925925925921,57.873704,2.582778,81.139526,6.286621,1.298101,-1.691895,16.723633,10.336904,-53.267212,-20.385742,-1.427432,81.958008,118.286133,-3.075205,7.349854,-59.326172,10.576406,-36.551514,6.896973,-3.242856,98.530884,61.462402,-7.529941,6.70166,-12.573242,9.84353,-107.803345,4.638672,-3.056045,-0.55481,-1.708984,-0.819097,1.257935,-0.244141,0.316143,-90.291138,1.098633,11.395503,98.789062,-177.368164,1.22625,-6.498413,4.760742,13.316309,-39.160767,80.322266,-2.931504,155.571899,-58.654785,4.138594,5.333862,-12.268066,8.133486,-136.785278,13.427734,-6.840176,65.253296,-235.778809,5.106182,11.195068,-15.50293,-8.832832,-105.463257,-56.57959,-6.706055,0,7944,38919,46083,30723,0,0,60164,24326,2817,14338,0,0,0,0,0,0,0,30984,20996,35335,0,0,0,48897,3333,42251,0,0,0,0,771,0,0,0,0,659,43333,independent_20260430_213431,trial_001,subject_001,1777556074.7959282,278866.4056371,2473057,1,0,0,1,4.19344315135922,628.4025599854396,828.4398266484287,92.0547731197006,639.4701263506123,831.9435895461528,55.30938221952464,410.4680134565813,877.778103423122,114.8083273462134,415.3053712665409,865.4201190596827,-112.82460622494636,520.3446028142527,689.7155268449568,-102.5970095126984,429.9687044318863,406.4025891745479,-115.64715857820616,359.7782584094136,279.0330264457287,-58.66756825768498,280.48969943952375,87.5882633279928,-9.223841964856868,213.2223446286243,52.18636877231762,-19.59460980643213,487.07958267517927,54.308689133392,238.35338046573207,631.1303043291583,701.2147045522078,218.4207151226488,763.743029207228,443.5172531586754,243.9176289970068,760.3743559536534,301.809188101122,192.9968925029337,829.83883536047,80.43825691958388,132.10060337596516,791.3371951113012,31.847485893183784,204.2243657614819,1016.4124932039352,147.15464963100422,58.87255424559282,41.127445754407184,60.4736503807207,39.52634961927931,112.1535262135154,73.93380207153535,74.42523310309032,73.44237103998037,147.8676041430707,147.8676041430707,1.3819894347824666,1.3819894347824666,21.21441625387997,1.069961900007911,0
1777556074.808,4.938629629629631,27.094074074074072,30.817074,-0.69263,6.969925925925921,57.873704,2.582778,81.139526,6.286621,1.298101,-1.691895,16.723633,10.336904,-53.267212,-20.385742,-1.427432,81.958008,118.286133,-3.075205,7.349854,-59.326172,10.576406,-36.551514,6.896973,-3.242856,98.530884,61.462402,-7.529941,6.70166,-12.573242,9.84353,-107.803345,4.638672,-3.056045,-0.55481,-1.708984,-0.819097,1.257935,-0.244141,0.316143,-90.291138,1.098633,11.395503,98.789062,-177.368164,1.22625,-6.498413,4.760742,13.316309,-39.160767,80.322266,-2.931504,155.571899,-58.654785,4.138594,5.333862,-12.268066,8.133486,-136.785278,13.427734,-6.840176,65.253296,-235.778809,5.106182,11.195068,-15.50293,-8.832832,-105.463257,-56.57959,-6.706055,0,7944,38919,46083,30723,0,0,60164,24326,2817,14338,0,0,0,0,0,0,0,30984,20996,35335,0,0,0,48897,3333,42251,0,0,0,0,771,0,0,0,0,659,43333,independent_20260430_213431,trial_001,subject_001,1777556074.8064363,278866.4156623,2473058,1,0,0,1,4.043169182303116,628.1233390497706,825.3921918294266,92.01616368799468,640.012397053898,828.9732452362429,56.757149945080656,410.5462003704005,874.3368922490695,116.37837242000394,415.7844700863946,861.8223194030126,-112.71281504137872,517.4201080258634,687.3407809612422,-102.67810874462882,422.6808735404496,405.3200758952222,-116.07286148419732,350.3900491923731,279.15568179312083,-59.13364336628524,267.3962205571647,88.93803765910391,-9.816096332974684,198.7881584849279,53.22557336108996,-20.4389449518208,472.6235012267238,53.680316845513374,238.46852573591747,631.7249966380787,697.9649000282737,217.37906034854893,765.3300056586659,442.2479727179972,245.08961458838763,769.1497044439353,301.0041419905412,194.7337630562093,848.7416402388518,82.6258626209257,135.47206270138227,811.8697624691056,30.741244962783146,201.0720690575164,1032.851014215849,156.78841062767802,58.87255424559282,41.127445754407184,60.4736503807207,39.52634961927931,112.1535262135154,73.93380207153535,74.42523310309032,73.44237103998037,147.8676041430707,147.8676041430707,1.3819894347824666,1.3819894347824666,21.21441625387997,1.069961900007911,0
1777556074.827,4.938629629629631,27.094074074074072,30.817074,-0.69263,6.969925925925921,57.873704,2.582778,81.139526,6.286621,1.298101,-1.691895,16.723633,10.336904,-53.267212,-20.385742,-1.427432,81.958008,118.286133,-3.075205,7.349854,-59.326172,10.576406,-36.551514,6.896973,-3.242856,98.530884,61.462402,-7.529941,6.70166,-12.573242,9.84353,-107.803345,4.638672,-3.056045,-0.55481,-1.708984,-0.819097,1.257935,-0.244141,0.316143,-90.291138,1.098633,11.395503,98.789062,-177.368164,1.22625,-6.498413,4.760742,13.316309,-39.160767,80.322266,-2.931504,155.571899,-58.654785,4.138594,5.333862,-12.268066,8.133486,-136.785278,13.427734,-6.840176,65.253296,-235.778809,5.106182,11.195068,-15.50293,-8.832832,-105.463257,-56.57959,-6.706055,0,7944,38919,46083,30723,0,0,60164,24326,2817,14338,0,0,0,0,0,0,0,30984,20996,35335,0,0,0,48897,3333,42251,0,0,0,0,771,0,0,0,0,659,43333,independent_20260430_213431,trial_001,subject_001,1777556074.8264384,278866.435722,2473060,1,0,0,1,4.108384481459826,628.5181835510163,819.0959425158135,91.94415449233144,642.0706971858359,823.2188067338604,59.634164870633406,411.7859236208943,867.9753003181437,119.11804349373377,417.9124694020892,855.4165591219579,-112.42881310460528,512.9557766041279,682.355056217024,-102.5338736742057,409.3248129635489,403.26050789119085,-116.80712952221702,332.0092967351911,280.17682081515915,-60.624215231565465,240.6343560276309,93.1855398724662,-11.689308180002309,170.2879456333527,53.8564404836263,-22.12004169532545,444.0001803108127,53.05312576655702,238.74515703850216,635.8177706100442,692.8129224269593,216.5749621704408,769.0535279834749,439.2135892186056,246.2332694224548,782.1973367600787,298.8770746035878,194.9767196935384,876.4114183473795,86.17715153288187,137.17049857679118,843.3385691900667,29.473022044328136,196.39745106511745,1055.0656776223832,164.85194702951554,58.87255424559282,41.127445754407184,60.4736503807207,39.52634961927931,112.1535262135154,73.93380207153535,74.42523310309032,73.44237103998037,147.8676041430707,147.8676041430707,1.3819894347824666,1.3819894347824666,21.21441625387997,1.069961900007911,0
1777556074.833,4.938629629629631,27.094074074074072,30.817074,-0.69263,6.969925925925921,57.873704,2.582778,81.139526,6.286621,1.298101,-1.691895,16.723633,10.336904,-53.267212,-20.385742,-1.427432,81.958008,118.286133,-3.075205,7.349854,-59.326172,10.576406,-36.551514,6.896973,-3.242856,98.530884,61.462402,-7.529941,6.70166,-12.573242,9.84353,-107.803345,4.638672,-3.056045,-0.55481,-1.708984,-0.819097,1.257935,-0.244141,0.316143,-90.291138,1.098633,11.395503,98.789062,-177.368164,1.22625,-6.498413,4.760742,13.316309,-39.160767,80.322266,-2.931504,155.571899,-58.654785,4.138594,5.333862,-12.268066,8.133486,-136.785278,13.427734,-6.840176,65.253296,-235.778809,5.106182,11.195068,-15.50293,-8.832832,-105.463257,-56.57959,-6.706055,0,7944,38919,46083,30723,0,0,60164,24326,2817,14338,0,0,0,0,0,0,0,30984,20996,35335,0,0,0,48897,3333,42251,0,0,0,0,771,0,0,0,0,659,43333,independent_20260430_213431,trial_001,subject_001,1777556074.8364377,278866.445407,2473061,1,0,0,1,4.4574187328558095,629.3484933487208,815.9704079105276,91.88805550405272,643.4020403805206,820.5754476445534,61.05008753745043,412.9176468748495,865.1430835699022,120.44045518632976,419.37687742348623,852.5802852712326,-112.05120300335972,510.9803877802313,679.7610874331622,-102.46477962099378,403.56516176933513,402.3738191218373,-117.11318885844616,323.4814334249905,281.1126021537815,-61.67278323341127,227.66762443991843,96.15378272502664,-12.681778688444243,156.23257802491975,55.34059591726295,-23.05029978313667,429.63677275700405,52.370667247059295,238.5307140896612,638.9916422916733,690.7630293758517,216.8377045213372,771.2849486007559,437.0432796777246,245.97440427246508,786.5062274663148,297.0257146079969,193.29090508760896,884.5917872119892,86.07865238518085,135.33738968082358,853.4994064287672,27.88500903963107,195.330989532973,1061.6442258846555,170.190467508967,58.87255424559282,41.127445754407184,60.4736503807207,39.52634961927931,112.1535262135154,73.93380207153535,74.42523310309032,73.44237103998037,147.8676041430707,147.8676041430707,1.3819894347824666,1.3819894347824666,21.21441625387997,1.069961900007911,0
1777556074.844,4.938629629629631,17.55207407407407,30.817074,-3.92263,6.969925925925921,63.641704,2.582778,81.139526,6.286621,1.298101,-1.691895,16.723633,10.336904,-53.267212,-20.385742,-1.427432,91.499634,148.071289,0.924478,7.44873,45.593262,7.946675,-35.90332,-17.089844,-1.508862,98.530884,61.462402,-7.529941,6.70166,-12.573242,9.84353,-107.803345,4.638672,-3.056045,-0.197754,12.573242,-0.407153,1.417236,1.647949,0.129331,-90.401001,1.831055,10.791958,98.789062,-177.368164,1.22625,-6.498413,4.760742,13.316309,-39.160767,80.322266,-2.931504,151.616821,-169.006348,0.981958,3.768311,72.875977,4.018843,-136.697388,24.841309,-5.623506,65.253296,-235.778809,5.106182,11.195068,-15.50293,-8.832832,-105.463257,-56.57959,-6.706055,0,7944,38919,46083,30723,0,0,60164,24326,2817,14338,0,0,0,0,0,0,0,30984,20996,35335,0,0,0,48897,3333,42251,0,0,0,0,771,0,0,0,0,659,43333,independent_20260430_213431,trial_001,subject_001,1777556074.8464358,278866.4555184,2473062,1,0,0,1,4.485790322106015,630.1808614397618,812.9035737583301,91.8529708926704,644.9927881101027,818.0494810267362,62.63700702992566,414.3150608141517,862.7042376967657,122.04307017181736,421.3008699687896,850.1033262433642,-111.35604476080697,509.6080441815449,677.3133688241935,-102.2210654789953,398.1662174019974,401.6697032509168,-117.49601950974572,315.3338378225928,282.2717654998949,-63.17718283847544,214.6011206970132,99.75739444306002,-13.191523232115555,142.3995594086024,57.7528000827621,-23.871448332363155,415.3999372317943,51.68607736225406,238.28715228165464,642.5512483748605,689.079154211719,216.90959790912228,773.8906360940919,435.0734577411415,245.26889333466204,789.5082721847151,294.6446527085525,191.0902487317738,889.0652799081493,84.53983823614544,132.0920177019653,859.7023624562044,26.752946930417608,195.09572696975675,1065.7045269287255,172.35960157874467,58.87255424559282,41.127445754407184,60.4736503807207,39.52634961927931,112.1535262135154,73.93380207153535,74.42523310309032,73.44237103998037,147.8676041430707,147.8676041430707,1.3819894347824666,1.3819894347824666,21.21441625387997,1.069961900007911,0
1777556074.854,4.6086296296296325,17.55207407407407,23.401074,-3.92263,15.022925925925918,59.515704,-3.321222,80.809937,-16.784668,0.550854,-0.362549,41.992188,5.829478,-51.712646,-24.291992,-0.819097,91.499634,148.071289,0.924478,7.44873,45.593262,7.946675,-35.90332,-17.089844,-1.508862,100.656738,42.236328,1.815425,6.432495,-10.986328,10.111772,-111.615601,35.766602,-2.950664,-0.197754,12.573242,-0.407153,1.417236,1.647949,0.129331,-90.401001,1.831055,10.791958,90.736084,-138.793945,1.580713,-10.036011,120.300293,7.716753,-36.540527,59.387207,-4.157754,147.491455,-217.773438,-0.871787,2.098389,82.092285,3.444038,-136.323853,25.20752,-8.372988,51.2677,-337.402344,7.793394,9.832764,-39.855957,1.906436,-106.699219,69.274902,15.122153,0,7944,38919,46083,30723,0,0,60164,24326,2817,14338,0,0,0,0,0,0,0,30984,20996,35335,0,0,0,48897,3333,42251,0,0,0,0,771,0,0,0,0,659,43333,independent_20260430_213431,trial_001,subject_001,1777556074.8564422,278866.465603,2473063,1,0,0,1,4.608532382936878,631.4639953467633,809.99989066627,91.90374140370572,646.8411383224313,815.5710915299479,64.24181042905555,416.1999643599906,860.5592059915471,123.47074764911628,423.456868325934,847.9981385641211,-110.61164936731036,508.5888607251782,674.9287921463514,-101.87320060121048,393.6210155901982,401.00116304595247,-117.78047617398572,307.99668205121526,283.83147858981454,-64.22270634528904,202.2884538200743,103.51273055272168,-13.91327837907137,128.65192119526068,61.25581119813627,-24.752378747365544,401.0926705246945,51.00760417811911,238.2054284003417,646.3734438601631,687.7271603060423,216.8340206217464,777.1806374042097,432.8363679032029,243.9498203191963,791.2454074789086,291.81120655493976,188.6376381873248,890.0591842531389,81.5445951366177,128.27071704333883,861.9209306189499,26.030080651753256,195.43206343819463,1066.7528670470658,171.24990116225288,58.87255424559282,41.127445754407184,60.4736503807207,39.52634961927931,112.1535262135154,73.93380207153535,74.42523310309032,73.44237103998037,147.8676041430707,147.8676041430707,1.3819894347824666,1.3819894347824666,21.21441625387997,1.069961900007911,0
1777556074.862,4.553629629629626,13.03107407407407,20.742074,-3.92263,20.74092592592592,60.037704,-3.321222,80.755005,9.643555,0.661025,0.686646,49.255371,4.196074,-50.245972,-18.981934,0.843047,96.020508,138.61084,3.003354,7.630005,92.163086,8.828042,-33.62915,-9.643555,-0.579595,102.518921,38.024902,1.671724,6.432495,125.976562,8.689131,-107.940674,-57.983398,-1.762734,-0.197754,12.573242,-0.407153,1.417236,1.647949,0.129331,-90.401001,1.831055,10.791958,85.0177,-121.09375,-0.488584,-11.035767,176.391602,5.216353,-30.525513,23.071289,-4.837939,139.960327,-272.094727,-0.742456,-0.296631,93.811035,3.994893,-135.291138,14.709473,-7.3575,51.2677,-337.402344,7.793394,9.832764,-39.855957,1.906436,-106.699219,69.274902,15.122153,0,7944,38919,46083,30723,0,0,60164,24326,2817,14338,0,0,0,0,0,0,0,30984,20996,35335,0,0,0,48897,3333,42251,0,0,0,0,771,0,0,0,0,659,43333,independent_20260430_213431,trial_001,subject_001,1777556074.865945,278866.4755163,2473064,1,0,0,1,4.893560777791089,633.0767855209109,807.2380080266142,92.147351285878,649.019833777301,813.2386157631429,65.89186832214247,418.4207674842219,858.7680946620436,125.2351913830102,426.0656743900672,846.3009227636225,-109.65694490901966,508.2096456138533,672.7382157612071,-101.46620178869158,389.94941017024615,400.4695671436309,-118.00131171834568,301.2139977236899,285.7519289964099,-65.04189594034655,190.52153066955395,107.71632673292444,-14.636147371746802,115.12814333359292,66.04023154489516,-25.651929924568,386.85290238355697,50.40342851282464,238.5431418949861,650.5239079924892,686.6561873749366,216.23364453787457,780.5047806038118,430.4574807670985,242.003175122862,791.886927735022,288.74357091851124,186.1791535762932,887.5050495067163,77.40556623675887,124.79334719627587,859.3804743644961,25.60859196756812,195.404629962864,1064.8811835692009,167.0757981200447,58.87255424559282,41.127445754407184,61.685086913166266,38.31491308683374,112.1535262135154,73.93380207153535,74.42523310309032,73.44237103998037,147.8676041430707,147.8676041430707,1.3819894347824666,1.3819894347824666,21.21441625387997,1.069961900007911,0
1777556074.872,4.553629629629626,13.03107407407407,20.742074,-3.92263,20.74092592592592,60.037704,-3.321222,80.755005,9.643555,0.661025,0.686646,49.255371,4.196074,-50.245972,-18.981934,0.843047,96.020508,138.61084,3.003354,7.630005,92.163086,8.828042,-33.62915,-9.643555,-0.579595,102.518921,38.024902,1.671724,6.432495,125.976562,8.689131,-107.940674,-57.983398,-1.762734,-0.197754,12.573242,-0.407153,1.417236,1.647949,0.129331,-90.401001,1.831055,10.791958,85.0177,-121.09375,-0.488584,-11.035767,176.391602,5.216353,-30.525513,23.071289,-4.837939,139.960327,-272.094727,-0.742456,-0.296631,93.811035,3.994893,-135.291138,14.709473,-7.3575,51.2677,-337.402344,7.793394,9.832764,-39.855957,1.906436,-106.699219,69.274902,15.122153,0,7944,38919,46083,30723,0,0,60164,24326,2817,14338,0,0,0,0,0,0,0,30984,20996,35335,0,0,0,48897,3333,42251,0,0,0,0,771,0,0,0,0,659,43333,independent_20260430_213431,trial_001,subject_001,1777556074.876115,278866.4857249,2473065,1,0,0,1,5.37661060589204,635.1697183801475,804.6429339707549,92.55354787129336,651.7860595623325,811.1201071934905,67.79102606755752,421.2531025905833,857.3331523153336,127.22451717128534,429.105601320307,844.7797185053963,-108.61276845401468,508.1226346295,670.5600901255594,-100.98635393475216,387.0160816559926,400.0135189817348,-118.27714425896934,295.2495625727326,287.9230008565768,-66.89413814537735,178.94270757947103,112.9122144389748,-15.13227272285316,101.50589920362007,73.36494175736824,-26.57024829722289,372.57290385593126,49.74334125134455,239.0907254082403,654.9753669530592,685.734757900793,214.9230194262991,783.9356845887183,427.8995415212995,239.9008740904221,791.7103642615764,285.4814338137302,183.5523375010448,881.4340682238541,72.78183303386395,121.8751327061812,851.3155990500679,26.101688137798703,193.58340274148472,1061.8403749057986,159.1862089956506,58.87255424559282,41.127445754407184,61.685086913166266,38.31491308683374,112.1535262135154,73.93380207153535,74.42523310309032,73.44237103998037,147.8676041430707,147.8676041430707,1.3819894347824666,1.3819894347824666,21.21441625387997,1.069961900007911,0
1777556074.881,4.553629629629626,13.03107407407407,20.742074,-3.92263,20.74092592592592,60.037704,-3.321222,80.755005,9.643555,0.661025,0.686646,49.255371,4.196074,-50.245972,-18.981934,0.843047,96.020508,138.61084,3.003354,7.630005,92.163086,8.828042,-33.62915,-9.643555,-0.579595,102.518921,38.024902,1.671724,6.432495,125.976562,8.689131,-107.940674,-57.983398,-1.762734,-0.197754,12.573242,-0.407153,1.417236,1.647949,0.129331,-90.401001,1.831055,10.791958,85.0177,-121.09375,-0.488584,-11.035767,176.391602,5.216353,-30.525513,23.071289,-4.837939,139.960327,-272.094727,-0.742456,-0.296631,93.811035,3.994893,-135.291138,14.709473,-7.3575,51.2677,-337.402344,7.793394,9.832764,-39.855957,1.906436,-106.699219,69.274902,15.122153,0,7944,38919,46083,30723,0,0,60164,24326,2817,14338,0,0,0,0,0,0,0,30984,20996,35335,0,0,0,48897,3333,42251,0,0,0,0,771,0,0,0,0,659,43333,independent_20260430_213431,trial_001,subject_001,1777556074.876115,278866.4857249,2473065,1,0,0,1,5.37661060589204,635.1697183801475,804.6429339707549,92.55354787129336,651.7860595623325,811.1201071934905,67.79102606755752,421.2531025905833,857.3331523153336,127.22451717128534,429.105601320307,844.7797185053963,-108.61276845401468,508.1226346295,670.5600901255594,-100.98635393475216,387.0160816559926,400.0135189817348,-118.27714425896934,295.2495625727326,287.9230008565768,-66.89413814537735,178.94270757947103,112.9122144389748,-15.13227272285316,101.50589920362007,79.68637966234874,-26.57024829722289,372.57290385593126,49.54011322218984,239.0907254082403,654.9753669530592,685.734757900793,214.9230194262991,783.9356845887183,427.8995415212995,239.9008740904221,791.7103642615764,285.4814338137302,183.5523375010448,881.4340682238541,72.78183303386395,121.8751327061812,851.3155990500679,26.3712877238864,193.58340274148472,1061.8403749057986,149.82046675484403,58.87255424559282,41.127445754407184,61.685086913166266,38.31491308683374,112.1535262135154,73.93380207153535,74.42523310309032,73.44237103998037,147.8676041430707,147.8676041430707,1.3819894347824666,1.3819894347824666,21.21441625387997,1.069961900007911,2
1777556074.894,4.553629629629626,13.03107407407407,20.742074,-3.92263,20.74092592592592,60.037704,-3.321222,80.755005,9.643555,0.661025,0.686646,49.255371,4.196074,-50.245972,-18.981934,0.843047,96.020508,138.61084,3.003354,7.630005,92.163086,8.828042,-33.62915,-9.643555,-0.579595,102.518921,38.024902,1.671724,6.432495,125.976562,8.689131,-107.940674,-57.983398,-1.762734,-0.197754,12.573242,-0.407153,1.417236,1.647949,0.129331,-90.401001,1.831055,10.791958,85.0177,-121.09375,-0.488584,-11.035767,176.391602,5.216353,-30.525513,23.071289,-4.837939,139.960327,-272.094727,-0.742456,-0.296631,93.811035,3.994893,-135.291138,14.709473,-7.3575,51.2677,-337.402344,7.793394,9.832764,-39.855957,1.906436,-106.699219,69.274902,15.122153,0,7944,38919,46083,30723,0,0,60164,24326,2817,14338,0,0,0,0,0,0,0,36864,0,30211,0,0,0,0,0,63746,0,0,0,0,0,0,0,0,0,659,43334,independent_20260430_213431,trial_001,subject_001,1777556074.8931167,278866.50267,2473066,1,0,0,1,5.9507927475254965,637.743038243717,802.1312728477716,93.0319183852998,655.0344221813214,809.1746660351542,69.75207727851144,424.6052600219679,855.9678578132266,128.91226668774323,432.35739901512966,843.5989683828258,-107.3567410495589,508.5424154793463,668.2863470636696,-100.55189141526876,385.0667580918432,399.4837666125413,-118.42010454452522,290.10970741908505,290.2662350621944,-67.83184598662349,168.601404887253,117.92948002883004,-15.558484147720256,88.292399627792,88.49789169614911,-27.28445033988094,358.4287030763129,49.240870724341285,239.69950349526613,659.5911006882734,684.688254666202,213.25629863459213,787.4312287592659,425.1218416804948,237.61349338287985,790.7640188150264,281.90779932122086,181.34796133631613,871.5120026950034,69.37108658076377,119.53739589142602,839.457902540095,27.21753180228118,190.25958453591835,1057.64870924053,137.62703629886917,58.87255424559282,41.127445754407184,61.685086913166266,38.31491308683374,112.1535262135154,73.93380207153535,74.42523310309032,73.44237103998037,147.8676041430707,147.8676041430707,1.3819894347824666,1.3819894347824666,21.21441625387997,1.069961900007911,2
1777556074.905,4.553629629629626,13.03107407407407,20.742074,-3.92263,20.74092592592592,60.037704,-3.321222,80.755005,9.643555,0.661025,0.686646,49.255371,4.196074,-50.245972,-18.981934,0.843047,96.020508,138.61084,3.003354,7.630005,92.163086,8.828042,-33.62915,-9.643555,-0.579595,102.518921,38.024902,1.671724,6.432495,125.976562,8.689131,-107.940674,-57.983398,-1.762734,-0.197754,12.573242,-0.407153,1.417236,1.647949,0.129331,-90.401001,1.831055,10.791958,85.0177,-121.09375,-0.488584,-11.035767,176.391602,5.216353,-30.525513,23.071289,-4.837939,139.960327,-272.094727,-0.742456,-0.296631,93.811035,3.994893,-135.291138,14.709473,-7.3575,51.2677,-337.402344,7.793394,9.832764,-39.855957,1.906436,-106.699219,69.274902,15.122153,0,7944,38919,46083,30723,0,0,60164,24326,2817,14338,0,0,0,0,0,0,0,36864,0,30211,0,0,0,0,0,63746,0,0,0,0,0,0,0,0,0,659,43334,independent_20260430_213431,trial_001,subject_001,1777556074.9061148,278866.5156017,2473068,1,0,0,1,7.274918232327895,644.2289141322578,797.6125286908276,94.19216923941704,662.9133433169159,805.6296616298923,73.96456022350063,432.1978589005721,853.3479192703255,133.69079794077103,441.6124538757897,840.9840387954878,-104.7904675374775,511.28575040966064,663.9832750998349,-99.60460334849677,384.0229506034963,398.04558796360953,-118.705219527082,282.54113251133646,295.54158890911685,-70.66123930892697,149.417364391465,129.98365356119598,-18.692773420907645,65.2972200861768,99.83935760980792,-29.210668564713423,331.1022183782668,48.49741911987523,240.39193230500013,668.8446425255783,681.3944576511822,209.42289693417013,793.69587069647,418.1747459977097,232.4200226973125,787.3810593301782,274.7311971354852,178.85902108394842,853.0835326499946,65.46885294983004,116.96330632514764,815.5839485569427,27.962118548680262,183.9199364949885,1048.426275691526,125.06226916102452,58.87255424559282,41.127445754407184,61.685086913166266,38.31491308683374,112.1535262135154,73.93380207153535,74.42523310309032,73.44237103998037,147.8676041430707,147.8676041430707,1.3819894347824666,1.3819894347824666,21.21441625387997,1.069961900007911,2
1777556074.915,4.553629629629626,7.357074074074077,16.562074,-3.92263,22.88392592592592,60.037704,-15.901222,80.755005,9.643555,0.661025,0.686646,49.255371,4.196074,-50.245972,-18.981934,0.843047,101.694946,137.817383,0.560435,7.283936,158.38623,9.086704,-28.696289,-7.507324,-0.819097,104.013062,29.785156,-6.744375,6.234741,-46.081543,9.014854,-106.759644,0.305176,-0.574805,-0.197754,12.573242,-0.407153,1.417236,1.647949,0.129331,-90.401001,1.831055,10.791958,82.875366,-105.834961,-1.029858,-10.964355,164.550781,4.038003,-27.954712,12.084961,-4.090693,139.960327,-272.094727,-0.742456,-0.296631,93.811035,3.994893,-135.291138,14.709473,-7.3575,31.157227,-378.601074,-6.739585,2.828979,-89.660645,5.326523,-106.193848,57.800293,13.163027,0,7944,38919,46083,30723,0,0,60164,24326,2817,14338,0,0,0,0,0,0,0,0,0,0,0,0,0,0,0,38144,0,0,0,0,0,0,0,0,0,659,43335,independent_20260430_213431,trial_001,subject_001,1777556074.9166238,278866.5256774,2473069,1,0,0,1,8.187080705672608,647.7609172867748,795.7128892696253,95.02714808573478,667.0723495551854,804.0203555263361,76.26170346609025,436.1770784512169,852.2564034981227,136.43350069641144,445.24501917688417,840.5499687433577,-103.19207528201066,513.7750239315476,661.7828318942145,-99.01858752958246,385.1804084510267,397.3453813674515,-118.66504661003891,280.1116406179136,298.739154125975,-72.13178211216066,141.149318593588,136.8065848570819,-19.54242556816789,55.495605656076215,113.08698028240256,-30.371720306893884,317.42647600073366,46.65980422151087,240.2841102948808,672.9848209901448,679.4403658157069,208.00381285239047,796.1015026625399,415.3418262006207,229.61763782928563,786.1816997392501,272.389682175075,178.0139546764402,844.5057077097956,65.91982165651407,115.83279694604276,804.1998391821353,28.849928672332688,180.18120426369515,1043.4936986346645,112.09173719393246,58.87255424559282,41.127445754407184,61.685086913166266,38.31491308683374,112.1535262135154,73.93380207153535,74.42523310309032,73.44237103998037,147.8676041430707,147.8676041430707,1.3819894347824666,1.3819894347824666,21.21441625387997,1.069961900007911,2
1777556074.934,4.553629629629626,7.357074074074077,16.562074,-3.92263,22.88392592592592,60.037704,-15.901222,80.755005,9.643555,0.661025,0.686646,49.255371,4.196074,-50.245972,-18.981934,0.843047,101.694946,137.817383,0.560435,7.283936,158.38623,9.086704,-28.696289,-7.507324,-0.819097,104.013062,29.785156,-6.744375,6.234741,-46.081543,9.014854,-106.759644,0.305176,-0.574805,-0.197754,12.573242,-0.407153,1.417236,1.647949,0.129331,-90.401001,1.831055,10.791958,82.875366,-105.834961,-1.029858,-10.964355,164.550781,4.038003,-27.954712,12.084961,-4.090693,139.960327,-272.094727,-0.742456,-0.296631,93.811035,3.994893,-135.291138,14.709473,-7.3575,31.157227,-378.601074,-6.739585,2.828979,-89.660645,5.326523,-106.193848,57.800293,13.163027,0,7944,38919,46083,30723,0,0,60164,24326,2817,14338,0,0,0,0,0,0,0,0,0,0,0,0,0,0,0,38144,0,0,0,0,0,0,0,0,0,659,43335,independent_20260430_213431,trial_001,subject_001,1777556074.936623,278866.5456792,2473071,1,0,0,1,10.737602822316612,654.3693008889348,792.9110993133028,97.2729699309806,674.7682430165436,801.6041178882255,79.93756777732915,443.3243431726052,850.4465684521384,140.46376014457002,453.0824809594087,840.4949167785339,-99.37981449294632,520.9445114643155,656.9728666734659,-98.0349703575014,392.0538017899668,395.3156618907604,-118.23333240021977,280.02129872333285,305.77632381349105,-74.54593575043026,129.57584726965683,152.6309982022198,-20.980585926063046,41.27036458622909,128.7216681205762,-32.51586036890462,291.28433008948747,44.44151589889498,241.98234055986464,680.1411531473024,678.7952015295438,207.25200436275773,799.5809409031198,415.84649867701296,227.420688074508,787.2402113853392,272.7970414813366,175.51993674161164,826.8423436176621,64.0151536364333,115.9347134566991,779.9543989566688,29.929517473143,173.8095752950201,1029.632189192106,99.36884029917712,58.87255424559282,41.127445754407184,61.685086913166266,38.31491308683374,112.1535262135154,73.93380207153535,74.42523310309032,73.44237103998037,147.8676041430707,147.8676041430707,1.3819894347824666,1.3819894347824666,21.21441625387997,1.069961900007911,2
1777556074.948,4.553629629629626,2.6330740740740737,16.562074,-7.45463,25.217925925925925,46.282704,-21.509222,80.755005,9.643555,0.661025,0.686646,49.255371,4.196074,-50.245972,-18.981934,0.843047,106.419067,109.008789,-2.212998,6.097412,123.10791,8.804092,-23.988647,6.225586,-0.469424,104.013062,29.785156,-6.744375,6.234741,-46.081543,9.014854,-106.759644,0.305176,-0.574805,1.752319,21.118164,-0.560435,2.384033,9.70459,0.205972,-89.961548,5.004883,10.442285,80.540771,-82.275391,-0.804727,-10.579834,133.544922,3.118315,-25.081787,-1.342773,-3.760181,116.010132,-377.075195,-3.257227,-3.334351,-8.361816,5.451064,-131.868896,-5.554199,-9.120234,25.548706,-368.652344,-9.005273,1.444702,-96.130371,4.603228,-106.633301,10.070801,12.358301,0,7944,38919,46083,30723,0,0,60164,24326,2817,14338,0,0,0,0,0,0,0,0,0,0,0,0,0,0,0,38144,0,0,0,0,0,0,0,0,0,659,43335,independent_20260430_213431,trial_001,subject_001,1777556074.9456234,278866.5554258,2473072,1,0,0,1,12.364150096800214,657.5223571682114,792.0427111805225,98.76476068889671,678.0728592648176,801.4227938990173,80.84365986409689,446.15376395579887,849.974857994235,141.71009763115907,455.8734537530949,841.3239664648205,-97.05882671096818,525.149304675403,654.5203951707458,-97.78038526385252,398.1409290968314,393.76921018385536,-117.76857502572396,282.56615821192497,309.17240550435264,-75.607774727633,126.51752290401215,161.4490647706397,-22.251708104020583,37.30370319830012,146.45398724152335,-33.340545380591706,279.0244854916716,42.12053391251237,243.3483158778573,683.1858013530045,679.8872908489017,207.19007709843788,803.0102502731867,417.0262805385833,230.159538648496,788.0797177373665,273.97485420119114,175.77528519154083,816.4238018427742,63.721592602047984,116.61565809294764,767.3695181636648,31.17847056082337,173.15260022430076,1019.9676539247992,88.13110412047259,58.87255424559282,41.127445754407184,61.685086913166266,38.31491308683374,112.1535262135154,73.93380207153535,74.42523310309032,73.44237103998037,147.8676041430707,147.8676041430707,1.3819894347824666,1.3819894347824666,21.21441625387997,1.069961900007911,2
1777556074.955,4.553629629629626,2.6330740740740737,16.562074,-7.45463,25.217925925925925,46.282704,-21.509222,80.755005,9.643555,0.661025,0.686646,49.255371,4.196074,-50.245972,-18.981934,0.843047,106.419067,109.008789,-2.212998,6.097412,123.10791,8.804092,-23.988647,6.225586,-0.469424,104.013062,29.785156,-6.744375,6.234741,-46.081543,9.014854,-106.759644,0.305176,-0.574805,1.752319,21.118164,-0.560435,2.384033,9.70459,0.205972,-89.961548,5.004883,10.442285,80.540771,-82.275391,-0.804727,-10.579834,133.544922,3.118315,-25.081787,-1.342773,-3.760181,116.010132,-377.075195,-3.257227,-3.334351,-8.361816,5.451064,-131.868896,-5.554199,-9.120234,25.548706,-368.652344,-9.005273,1.444702,-96.130371,4.603228,-106.633301,10.070801,12.358301,0,7944,38919,46083,30723,0,0,60164,24326,2817,14338,0,0,0,0,0,0,0,0,0,0,0,0,0,0,0,24320,0,0,0,0,0,0,0,0,0,659,43336,independent_20260430_213431,trial_001,subject_001,1777556074.956623,278866.5657059,2473073,1,0,0,1,14.475469389496997,660.4270731159244,791.7073964465934,100.77538673745596,680.8407736101942,802.0598409899826,81.19147605321795,448.5307142685501,849.6327690618006,142.1384074810565,457.91412685941344,841.6466152132753,-94.77638671010108,529.7172603323288,652.283785358278,-97.23845376632678,405.8327384376906,391.8019955684553,-117.10686540807004,286.997687972927,312.4620639664731,-76.33994083754179,125.37071644478053,171.34454753529738,-23.06851787336536,36.31735474271142,165.6575941416814,-33.8381480000088,267.6757733104678,40.05801444191461,245.16529933573125,685.8016965054734,681.4617691224938,207.05254948494,806.9373414868962,417.3805146364808,233.4565714566517,787.8289436570975,275.13868476039295,175.8540844619677,804.6621577253185,63.700365097426136,117.01180536740192,754.0822825939458,32.56276750953677,173.85221341601633,1008.3585000057016,78.15727924396343,58.87255424559282,41.127445754407184,61.685086913166266,38.31491308683374,112.1535262135154,73.93380207153535,74.42523310309032,73.44237103998037,147.8676041430707,147.8676041430707,1.3819894347824666,1.3819894347824666,21.21441625387997,1.069961900007911,2
1777556074.965,5.707629629629636,-1.019925925925932,14.228074,-7.45463,27.90392592592592,46.282704,-9.743222,81.908569,9.521484,-1.21667,1.812744,49.804688,6.993457,-46.856689,-2.929688,-0.01437,110.072021,90.637207,-2.035767,4.438477,104.980469,9.479487,-20.401611,11.474609,-1.053809,106.402588,57.556152,-0.704136,6.196289,-52.368164,9.441167,-107.42981,6.958008,-1.058599,1.752319,21.118164,-0.560435,2.384033,9.70459,0.205972,-89.961548,5.004883,10.442285,77.854614,-67.810059,-0.819097,-9.61853,90.209961,3.932622,-21.989136,-14.770508,-4.756509,116.010132,-377.075195,-3.257227,-3.334351,-8.361816,5.451064,-131.868896,-5.554199,-9.120234,13.364868,-339.84375,-2.816543,-2.015991,-113.769531,6.15041,-108.901978,-34.057617,16.314873,0,7944,38919,46083,30723,0,0,60164,24326,2817,14338,0,0,0,0,0,0,0,0,0,0,0,0,0,0,0,33281,0,0,0,0,0,0,0,0,0,659,43337,independent_20260430_213431,trial_001,subject_001,1777556074.9661384,278866.5758338,2473074,1,0,0,1,16.99034883444973,663.1577154167421,791.9575835710172,103.14399692058552,683.068440666766,803.460919514217,81.06818219543467,450.4278281279474,849.2489874655294,142.3239290786787,459.2126976670559,842.350858368238,-92.6615897295467,534.758850094957,650.3094148174995,-96.91181467441936,415.1665067705785,389.75679758098863,-116.51502608376154,293.3733018952337,315.65404419292605,-76.9230717736479,126.30862562449916,182.1229297768732,-23.272074959126755,38.25303331957837,185.72583582445984,-34.39235810121881,257.5095370323806,38.50362372332444,247.1135726021568,688.4590034487708,683.3954108310679,207.6494838899356,810.012235492291,417.818092600813,235.81871009421167,786.0058176046662,275.980896173086,175.8085853615108,791.9617263304438,63.81414105008475,117.20100572381033,740.4610029639502,33.96515566515074,174.59718593549348,995.1742298979092,69.68354414918363,58.87255424559282,41.127445754407184,61.685086913166266,38.31491308683374,112.1535262135154,73.93380207153535,74.42523310309032,73.44237103998037,147.8676041430707,147.8676041430707,1.3819894347824666,1.3819894347824666,21.21441625387997,1.069961900007911,2
