Timestamp,Vicon_Frame_Num,Vicon_Recv_Timestamp,IMU_Recv_Timestamp,Planter_Recv_Timestamp,Vicon_Gap_Flag,Vicon_Gap_Size,IMU_Stale_ms,Planter_Stale_ms,IMU_Matched_Flag,Planter_Matched_Flag,IMU_Matched_Count,Planter_Matched_Count,IMU_All_Matched_Flag,Planter_Both_Matched_Flag,Vicon_Root_X,Vicon_Root_Y,Vicon_Root_Z,Vicon_L_Femur_X,Vicon_L_Femur_Y,Vicon_L_Femur_Z,Vicon_L_Tibia_X,Vicon_L_Tibia_Y,Vicon_L_Tibia_Z,Vicon_L_Foot_X,Vicon_L_Foot_Y,Vicon_L_Foot_Z,Vicon_L_Toe_X,Vicon_L_Toe_Y,Vicon_L_Toe_Z,Vicon_R_Femur_X,Vicon_R_Femur_Y,Vicon_R_Femur_Z,Vicon_R_Tibia_X,Vicon_R_Tibia_Y,Vicon_R_Tibia_Z,Vicon_R_Foot_X,Vicon_R_Foot_Y,Vicon_R_Foot_Z,Vicon_R_Toe_X,Vicon_R_Toe_Y,Vicon_R_Toe_Z,Vicon_LASI_X,Vicon_LASI_Y,Vicon_LASI_Z,Vicon_RASI_X,Vicon_RASI_Y,Vicon_RASI_Z,Vicon_LPSI_X,Vicon_LPSI_Y,Vicon_LPSI_Z,Vicon_RPSI_X,Vicon_RPSI_Y,Vicon_RPSI_Z,Vicon_LTHI_X,Vicon_LTHI_Y,Vicon_LTHI_Z,Vicon_LKNE_X,Vicon_LKNE_Y,Vicon_LKNE_Z,Vicon_LTIB_X,Vicon_LTIB_Y,Vicon_LTIB_Z,Vicon_LANK_X,Vicon_LANK_Y,Vicon_LANK_Z,Vicon_LHEE_X,Vicon_LHEE_Y,Vicon_LHEE_Z,Vicon_LTOE_X,Vicon_LTOE_Y,Vicon_LTOE_Z,Vicon_RTHI_X,Vicon_RTHI_Y,Vicon_RTHI_Z,Vicon_RKNE_X,Vicon_RKNE_Y,Vicon_RKNE_Z,Vicon_RTIB_X,Vicon_RTIB_Y,Vicon_RTIB_Z,Vicon_RANK_X,Vicon_RANK_Y,Vicon_RANK_Z,Vicon_RHEE_X,Vicon_RHEE_Y,Vicon_RHEE_Z,Vicon_RTOE_X,Vicon_RTOE_Y,Vicon_RTOE_Z,IMU_Trunk_Matched_Flag,IMU_Trunk_Recv_Timestamp,IMU_Trunk_Stale_ms,IMU_Trunk_Acc_X,IMU_Trunk_Acc_Y,IMU_Trunk_Acc_Z,IMU_Trunk_Gyro_X,IMU_Trunk_Gyro_Y,IMU_Trunk_Gyro_Z,IMU_Trunk_Roll,IMU_Trunk_Pitch,IMU_Trunk_Yaw,IMU_Trunk_Quat_x,IMU_Trunk_Quat_y,IMU_Trunk_Quat_z,IMU_Trunk_Quat_w,IMU_L_Femur_Matched_Flag,IMU_L_Femur_Recv_Timestamp,IMU_L_Femur_Stale_ms,IMU_L_Femur_Acc_X,IMU_L_Femur_Acc_Y,IMU_L_Femur_Acc_Z,IMU_L_Femur_Gyro_X,IMU_L_Femur_Gyro_Y,IMU_L_Femur_Gyro_Z,IMU_L_Femur_Roll,IMU_L_Femur_Pitch,IMU_L_Femur_Yaw,IMU_L_Femur_Quat_x,IMU_L_Femur_Quat_y,IMU_L_Femur_Quat_z,IMU_L_Femur_Quat_w,IMU_L_Tibia_Matched_Flag,IMU_L_Tibia_Recv_Timestamp,IMU_L_Tibia_Stale_ms,IMU_L_Tibia_Acc_X,IMU_L_Tibia_Acc_Y,IMU_L_Tibia_Acc_Z,IMU_L_Tibia_Gyro_X,IMU_L_Tibia_Gyro_Y,IMU_L_Tibia_Gyro_Z,IMU_L_Tibia_Roll,IMU_L_Tibia_Pitch,IMU_L_Tibia_Yaw,IMU_L_Tibia_Quat_x,IMU_L_Tibia_Quat_y,IMU_L_Tibia_Quat_z,IMU_L_Tibia_Quat_w,IMU_L_Foot_Matched_Flag,IMU_L_Foot_Recv_Timestamp,IMU_L_Foot_Stale_ms,IMU_L_Foot_Acc_X,IMU_L_Foot_Acc_Y,IMU_L_Foot_Acc_Z,IMU_L_Foot_Gyro_X,IMU_L_Foot_Gyro_Y,IMU_L_Foot_Gyro_Z,IMU_L_Foot_Roll,IMU_L_Foot_Pitch,IMU_L_Foot_Yaw,IMU_L_Foot_Quat_x,IMU_L_Foot_Quat_y,IMU_L_Foot_Quat_z,IMU_L_Foot_Quat_w,IMU_R_Femur_Matched_Flag,IMU_R_Femur_Recv_Timestamp,IMU_R_Femur_Stale_ms,IMU_R_Femur_Acc_X,IMU_R_Femur_Acc_Y,IMU_R_Femur_Acc_Z,IMU_R_Femur_Gyro_X,IMU_R_Femur_Gyro_Y,IMU_R_Femur_Gyro_Z,IMU_R_Femur_Roll,IMU_R_Femur_Pitch,IMU_R_Femur_Yaw,IMU_R_Femur_Quat_x,IMU_R_Femur_Quat_y,IMU_R_Femur_Quat_z,IMU_R_Femur_Quat_w,IMU_R_Tibia_Matched_Flag,IMU_R_Tibia_Recv_Timestamp,IMU_R_Tibia_Stale_ms,IMU_R_Tibia_Acc_X,IMU_R_Tibia_Acc_Y,IMU_R_Tibia_Acc_Z,IMU_R_Tibia_Gyro_X,IMU_R_Tibia_Gyro_Y,IMU_R_Tibia_Gyro_Z,IMU_R_Tibia_Roll,IMU_R_Tibia_Pitch,IMU_R_Tibia_Yaw,IMU_R_Tibia_Quat_x,IMU_R_Tibia_Quat_y,IMU_R_Tibia_Quat_z,IMU_R_Tibia_Quat_w,IMU_R_Foot_Matched_Flag,IMU_R_Foot_Recv_Timestamp,IMU_R_Foot_Stale_ms,IMU_R_Foot_Acc_X,IMU_R_Foot_Acc_Y,IMU_R_Foot_Acc_Z,IMU_R_Foot_Gyro_X,IMU_R_Foot_Gyro_Y,IMU_R_Foot_Gyro_Z,IMU_R_Foot_Roll,IMU_R_Foot_Pitch,IMU_R_Foot_Yaw,IMU_R_Foot_Quat_x,IMU_R_Foot_Quat_y,IMU_R_Foot_Quat_z,IMU_R_Foot_Quat_w,Planter_Left_Matched_Flag,Planter_Left_Recv_Timestamp,Planter_Left_Stale_ms,Planter_Left_0,Planter_Left_1,Planter_Left_2,Planter_Left_3,Planter_Left_4,Planter_Left_5,Planter_Left_6,Planter_Left_7,Planter_Left_8,Planter_Left_9,Planter_Left_10,Planter_Left_11,Planter_Left_12,Planter_Left_13,Planter_Left_14,Planter_Left_15,Planter_Left_16,Planter_Left_17,Planter_Right_Matched_Flag,Planter_Right_Recv_Timestamp,Planter_Right_Stale_ms,Planter_Right_0,Planter_Right_1,Planter_Right_2,Planter_Right_3,Planter_Right_4,Planter_Right_5,Planter_Right_6,Planter_Right_7,Planter_Right_8,Planter_Right_9,Planter_Right_10,Planter_Right_11,Planter_Right_12,Planter_Right_13,Planter_Right_14,Planter_Right_15,Planter_Right_16,Planter_Right_17
1777533213.3558033,185495,1777533198.780766,,,0,0,,,0,0,0,0,0,0,0.0,0.0,0.0,0.0,0.0,0.0,0.0,0.0,0.0,0.0,0.0,0.0,0.0,0.0,0.0,0.0,0.0,0.0,0.0,0.0,0.0,0.0,0.0,0.0,0.0,0.0,0.0,0.0,0.0,0.0,0.0,0.0,0.0,0.0,0.0,0.0,0.0,0.0,0.0,0.0,0.0,0.0,0.0,0.0,0.0,0.0,0.0,0.0,0.0,0.0,0.0,0.0,0.0,0.0,0.0,0.0,0.0,0.0,0.0,0.0,0.0,0.0,0.0,0.0,0.0,0.0,0.0,0.0,0.0,0.0,0.0,0.0,0.0,0.0,0.0,0,,,0.0,0.0,0.0,0.0,0.0,0.0,0.0,0.0,0.0,0.0,0.0,0.0,1.0,0,,,0.0,0.0,0.0,0.0,0.0,0.0,0.0,0.0,0.0,0.0,0.0,0.0,1.0,0,,,0.0,0.0,0.0,0.0,0.0,0.0,0.0,0.0,0.0,0.0,0.0,0.0,1.0,0,,,0.0,0.0,0.0,0.0,0.0,0.0,0.0,0.0,0.0,0.0,0.0,0.0,1.0,0,,,0.0,0.0,0.0,0.0,0.0,0.0,0.0,0.0,0.0,0.0,0.0,0.0,1.0,0,,,0.0,0.0,0.0,0.0,0.0,0.0,0.0,0.0,0.0,0.0,0.0,0.0,1.0,0,,,0.0,0.0,0.0,0.0,0.0,0.0,0.0,0.0,0.0,0.0,0.0,0.0,1.0,0,,,0,0,0,0,0,0,0,0,0,0,0,0,0,0,0,0,0,0,0,,,0,0,0,0,0,0,0,0,0,0,0,0,0,0,0,0,0,0
1777533213.3568044,185496,1777533198.7898576,,,0,0,,,0,0,0,0,0,0,0.0,0.0,0.0,0.0,0.0,0.0,0.0,0.0,0.0,0.0,0.0,0.0,0.0,0.0,0.0,0.0,0.0,0.0,0.0,0.0,0.0,0.0,0.0,0.0,0.0,0.0,0.0,61.769170132264996,510.99281205896114,872.3724064520059,148.63274734703162,510.2647700490941,864.090998043304,86.60267645953934,285.05531406838185,915.2577222507123,170.2643034352494,297.5376554502661,911.7870657216107,-90.46290018601219,447.1463642551356,734.5666448402419,-66.54828979493837,548.2501669888045,455.70137402061135,-97.23956526733039,541.6423980039086,222.43727249306616,-72.81883077876466,543.8721272504048,83.4082690916808,-18.845843004235316,477.4864946928252,54.76781165797074,-24.75193262107859,746.2139262652462,80.04106132185952,267.563846792467,422.83150531411917,692.2101842026763,227.345813340938,405.4121883756017,397.09083609642624,220.3154558922237,361.8403114343041,220.39117619227375,163.4297630058211,313.32446164266287,64.92757263204804,108.48296921789544,249.8093072247902,39.91281151045867,136.8914994369987,512.2096761590069,56.429534593773994,0,,,0.0,0.0,0.0,0.0,0.0,0.0,0.0,0.0,0.0,0.0,0.0,0.0,1.0,0,,,0.0,0.0,0.0,0.0,0.0,0.0,0.0,0.0,0.0,0.0,0.0,0.0,1.0,0,,,0.0,0.0,0.0,0.0,0.0,0.0,0.0,0.0,0.0,0.0,0.0,0.0,1.0,0,,,0.0,0.0,0.0,0.0,0.0,0.0,0.0,0.0,0.0,0.0,0.0,0.0,1.0,0,,,0.0,0.0,0.0,0.0,0.0,0.0,0.0,0.0,0.0,0.0,0.0,0.0,1.0,0,,,0.0,0.0,0.0,0.0,0.0,0.0,0.0,0.0,0.0,0.0,0.0,0.0,1.0,0,,,0.0,0.0,0.0,0.0,0.0,0.0,0.0,0.0,0.0,0.0,0.0,0.0,1.0,0,,,0,0,0,0,0,0,0,0,0,0,0,0,0,0,0,0,0,0,0,,,0,0,0,0,0,0,0,0,0,0,0,0,0,0,0,0,0,0
1777533213.3568044,185497,1777533198.8004642,,,0,0,,,0,0,0,0,0,0,0.0,0.0,0.0,0.0,0.0,0.0,0.0,0.0,0.0,0.0,0.0,0.0,0.0,0.0,0.0,0.0,0.0,0.0,0.0,0.0,0.0,0.0,0.0,0.0,0.0,0.0,0.0,61.106318430057776,511.44578407243836,872.0590638101222,147.96317663077718,510.469684756982,863.9085449988589,85.37562336302759,285.34298847558966,914.9586229726997,168.8694480709941,297.6968124821945,911.482427051123,-91.07844498051583,447.82198759968855,733.9160628035744,-66.89543639513289,548.4892764296493,454.7551958770781,-97.05907568211471,540.6081680226268,221.53416982578375,-72.40870274212848,541.8504967472659,82.54211786572036,-18.357007739595996,475.43185595819506,54.45821360226856,-24.8722892185512,744.2600694935841,77.86949159272044,266.89852543375963,422.5090818171623,692.2227397427594,226.93322694494947,404.35435020772104,397.0452332954591,220.05665566111082,360.3218280058951,220.3749178734471,163.22865818215774,311.498457056774,64.82764224517202,108.320925474193,248.0114228488598,39.886370994775625,136.88175566435376,510.3818953689621,56.357544798361076,0,,,0.0,0.0,0.0,0.0,0.0,0.0,0.0,0.0,0.0,0.0,0.0,0.0,1.0,0,,,0.0,0.0,0.0,0.0,0.0,0.0,0.0,0.0,0.0,0.0,0.0,0.0,1.0,0,,,0.0,0.0,0.0,0.0,0.0,0.0,0.0,0.0,0.0,0.0,0.0,0.0,1.0,0,,,0.0,0.0,0.0,0.0,0.0,0.0,0.0,0.0,0.0,0.0,0.0,0.0,1.0,0,,,0.0,0.0,0.0,0.0,0.0,0.0,0.0,0.0,0.0,0.0,0.0,0.0,1.0,0,,,0.0,0.0,0.0,0.0,0.0,0.0,0.0,0.0,0.0,0.0,0.0,0.0,1.0,0,,,0.0,0.0,0.0,0.0,0.0,0.0,0.0,0.0,0.0,0.0,0.0,0.0,1.0,0,,,0,0,0,0,0,0,0,0,0,0,0,0,0,0,0,0,0,0,0,,,0,0,0,0,0,0,0,0,0,0,0,0,0,0,0,0,0,0
1777533213.3568044,185498,1777533198.8109767,,,0,0,,,0,0,0,0,0,0,0.0,0.0,0.0,0.0,0.0,0.0,0.0,0.0,0.0,0.0,0.0,0.0,0.0,0.0,0.0,0.0,0.0,0.0,0.0,0.0,0.0,0.0,0.0,0.0,0.0,0.0,0.0,60.466749121390116,512.0174537962711,871.7609668009849,147.3439677179119,510.710259040572,863.7133536473514,83.9821869046921,285.8636328029138,914.4810540717407,167.65475547577748,297.810507785043,911.2855213472214,-91.61697696550245,448.5592351828964,733.2439323916966,-66.99525598775584,547.9357999991346,453.7862822720146,-96.99703267098205,539.3162413544344,220.47388060856215,-71.75522210910506,539.8611807089728,81.43907433893831,-17.673073503353933,473.2382576329044,54.02610494511748,-24.84509397897141,742.3107193643486,75.82855752785593,266.17177375617536,422.19165104860633,692.2307454194818,226.45069234879992,403.4254443343934,397.07669627832763,219.8585266464595,358.9667175547897,220.54277567140744,163.1495754123918,309.83492717646334,64.99613231093215,108.30840209030718,246.22552687316977,39.99167991827351,136.8102350595364,508.61191770573214,56.28650092142882,0,,,0.0,0.0,0.0,0.0,0.0,0.0,0.0,0.0,0.0,0.0,0.0,0.0,1.0,0,,,0.0,0.0,0.0,0.0,0.0,0.0,0.0,0.0,0.0,0.0,0.0,0.0,1.0,0,,,0.0,0.0,0.0,0.0,0.0,0.0,0.0,0.0,0.0,0.0,0.0,0.0,1.0,0,,,0.0,0.0,0.0,0.0,0.0,0.0,0.0,0.0,0.0,0.0,0.0,0.0,1.0,0,,,0.0,0.0,0.0,0.0,0.0,0.0,0.0,0.0,0.0,0.0,0.0,0.0,1.0,0,,,0.0,0.0,0.0,0.0,0.0,0.0,0.0,0.0,0.0,0.0,0.0,0.0,1.0,0,,,0.0,0.0,0.0,0.0,0.0,0.0,0.0,0.0,0.0,0.0,0.0,0.0,1.0,0,,,0,0,0,0,0,0,0,0,0,0,0,0,0,0,0,0,0,0,0,,,0,0,0,0,0,0,0,0,0,0,0,0,0,0,0,0,0,0
1777533213.3568044,185499,1777533198.8199773,,,0,0,,,0,0,0,0,0,0,0.0,0.0,0.0,0.0,0.0,0.0,0.0,0.0,0.0,0.0,0.0,0.0,0.0,0.0,0.0,0.0,0.0,0.0,0.0,0.0,0.0,0.0,0.0,0.0,0.0,0.0,0.0,59.843936626255314,512.681539461259,871.4749042521389,146.71965033202522,511.0289869824012,863.540318942462,82.33915121041372,286.44980545673525,914.1564886974428,166.10441153729474,298.06746369850424,911.0797944364876,-92.30662801121782,449.44622051292134,732.5706955380895,-67.17774083512481,547.6399674978778,452.74660757066687,-96.74511004491465,537.8233875904065,219.4072603723775,-71.69798864515151,537.6322896138221,80.5727166718873,-17.16597863948473,470.967827975294,53.32340517001546,-24.75469363009274,740.1322682948214,73.98331256611156,265.37631081694246,421.8939572954999,692.2230090734118,226.02116772152752,402.47683420309653,397.06579785734255,219.58636100093435,357.5082576813449,220.60192043874153,163.46467884116745,308.0234697532429,65.33709758954855,108.24367426947528,244.3836095678612,40.06907696439939,136.7513849954713,506.9730457340971,56.289844651066176,0,,,0.0,0.0,0.0,0.0,0.0,0.0,0.0,0.0,0.0,0.0,0.0,0.0,1.0,0,,,0.0,0.0,0.0,0.0,0.0,0.0,0.0,0.0,0.0,0.0,0.0,0.0,1.0,0,,,0.0,0.0,0.0,0.0,0.0,0.0,0.0,0.0,0.0,0.0,0.0,0.0,1.0,0,,,0.0,0.0,0.0,0.0,0.0,0.0,0.0,0.0,0.0,0.0,0.0,0.0,1.0,0,,,0.0,0.0,0.0,0.0,0.0,0.0,0.0,0.0,0.0,0.0,0.0,0.0,1.0,0,,,0.0,0.0,0.0,0.0,0.0,0.0,0.0,0.0,0.0,0.0,0.0,0.0,1.0,0,,,0.0,0.0,0.0,0.0,0.0,0.0,0.0,0.0,0.0,0.0,0.0,0.0,1.0,0,,,0,0,0,0,0,0,0,0,0,0,0,0,0,0,0,0,0,0,0,,,0,0,0,0,0,0,0,0,0,0,0,0,0,0,0,0,0,0
1777533213.357804,185500,1777533198.829979,,,0,0,,,0,0,0,0,0,0,0.0,0.0,0.0,0.0,0.0,0.0,0.0,0.0,0.0,0.0,0.0,0.0,0.0,0.0,0.0,0.0,0.0,0.0,0.0,0.0,0.0,0.0,0.0,0.0,0.0,0.0,0.0,59.24468799667102,513.4662041271175,871.1355614697983,146.14772553593593,511.4030585620971,863.4121360451171,80.83211601639562,287.0036804322134,913.8181456648889,164.62491527668672,298.31223528104937,910.942806262432,-92.92903154442017,450.2413519776618,731.8327361818174,-67.35462141417513,547.3263320931158,451.6091054309718,-96.61011824615471,536.4244304991179,218.23253990417996,-71.12624310385975,535.285860857212,79.34020962528203,-16.56364590222047,468.6235654172919,52.54334313902495,-24.513576150609534,737.8162084841082,72.35830661686354,264.6549045318237,421.61483193599076,692.2357962680655,225.51497745577475,401.5530792543957,397.05519611801367,219.3251884215952,356.15271636558,220.77244154379588,162.8657755811584,306.373639557433,65.03482749593896,108.18517073484628,242.6375475472986,40.169064541355844,136.68508783229157,505.1308351346619,56.16588868512287,0,,,0.0,0.0,0.0,0.0,0.0,0.0,0.0,0.0,0.0,0.0,0.0,0.0,1.0,0,,,0.0,0.0,0.0,0.0,0.0,0.0,0.0,0.0,0.0,0.0,0.0,0.0,1.0,0,,,0.0,0.0,0.0,0.0,0.0,0.0,0.0,0.0,0.0,0.0,0.0,0.0,1.0,0,,,0.0,0.0,0.0,0.0,0.0,0.0,0.0,0.0,0.0,0.0,0.0,0.0,1.0,0,,,0.0,0.0,0.0,0.0,0.0,0.0,0.0,0.0,0.0,0.0,0.0,0.0,1.0,0,,,0.0,0.0,0.0,0.0,0.0,0.0,0.0,0.0,0.0,0.0,0.0,0.0,1.0,0,,,0.0,0.0,0.0,0.0,0.0,0.0,0.0,0.0,0.0,0.0,0.0,0.0,1.0,0,,,0,0,0,0,0,0,0,0,0,0,0,0,0,0,0,0,0,0,0,,,0,0,0,0,0,0,0,0,0,0,0,0,0,0,0,0,0,0
1777533213.357804,185501,1777533198.8399816,,,0,0,,,0,0,0,0,0,0,0.0,0.0,0.0,0.0,0.0,0.0,0.0,0.0,0.0,0.0,0.0,0.0,0.0,0.0,0.0,0.0,0.0,0.0,0.0,0.0,0.0,0.0,0.0,0.0,0.0,0.0,0.0,58.67499480039932,514.2705157057727,870.8538359278077,145.56562247015356,511.82829993008994,863.2350112114965,79.25183057956811,287.8531492122069,913.5525421273885,163.02336482312296,298.64692270156536,910.785752579868,-93.6620474972682,451.11583501694,731.0580922599805,-67.38220277617134,546.6243289946733,450.4144025493466,-96.37699066711109,534.8301738339725,217.01100387148173,-70.46580304863032,532.9497648968797,77.99144012096866,-16.055903889604238,466.2551774952664,51.46954594718509,-24.08995391301405,735.5087646366248,70.95859361130354,263.8978315440968,421.4027463679777,692.2658166896161,224.99130230450535,400.65529341055804,397.07924041859917,219.0798175184566,354.725255551993,220.86647419316392,162.726037110388,304.64362707648655,65.14591703169971,108.07803846039336,240.92146007793795,40.257577073162714,136.67978093421286,503.38563192811995,56.13325262957224,0,,,0.0,0.0,0.0,0.0,0.0,0.0,0.0,0.0,0.0,0.0,0.0,0.0,1.0,0,,,0.0,0.0,0.0,0.0,0.0,0.0,0.0,0.0,0.0,0.0,0.0,0.0,1.0,0,,,0.0,0.0,0.0,0.0,0.0,0.0,0.0,0.0,0.0,0.0,0.0,0.0,1.0,0,,,0.0,0.0,0.0,0.0,0.0,0.0,0.0,0.0,0.0,0.0,0.0,0.0,1.0,0,,,0.0,0.0,0.0,0.0,0.0,0.0,0.0,0.0,0.0,0.0,0.0,0.0,1.0,0,,,0.0,0.0,0.0,0.0,0.0,0.0,0.0,0.0,0.0,0.0,0.0,0.0,1.0,0,,,0.0,0.0,0.0,0.0,0.0,0.0,0.0,0.0,0.0,0.0,0.0,0.0,1.0,0,,,0,0,0,0,0,0,0,0,0,0,0,0,0,0,0,0,0,0,0,,,0,0,0,0,0,0,0,0,0,0,0,0,0,0,0,0,0,0
1777533213.3583086,185502,1777533198.8504941,,,0,0,,,0,0,0,0,0,0,0.0,0.0,0.0,0.0,0.0,0.0,0.0,0.0,0.0,0.0,0.0,0.0,0.0,0.0,0.0,0.0,0.0,0.0,0.0,0.0,0.0,0.0,0.0,0.0,0.0,0.0,0.0,58.086295453854405,515.1489530989819,870.4578619631196,144.99175746149984,512.3772569457988,863.0602359807971,77.65375860187312,288.60132957329273,913.403107667638,161.3576987869602,299.1463800567725,910.644875869363,-94.38231041623624,451.95478820914,730.2209526202515,-67.67607189574466,546.4523660176924,449.0812134837067,-96.1626326972891,533.0405176765015,215.65018904431795,-69.89623940541502,530.4485676613065,76.60935571634423,-15.599809799967277,463.7949013530821,50.40778558520681,-23.39673586524511,733.0674189303685,69.4775924658362,263.0723704364319,421.17253251750645,692.2629402005665,224.4785882204721,399.800855520895,397.13418851873774,218.76522403999022,353.3722615615708,221.06282782987907,162.5012376251897,302.9046971036766,65.155671963611,108.00616925082748,239.13416958027523,40.24237892360231,136.60144398724768,501.70899463105707,56.0776681517711,0,,,0.0,0.0,0.0,0.0,0.0,0.0,0.0,0.0,0.0,0.0,0.0,0.0,1.0,0,,,0.0,0.0,0.0,0.0,0.0,0.0,0.0,0.0,0.0,0.0,0.0,0.0,1.0,0,,,0.0,0.0,0.0,0.0,0.0,0.0,0.0,0.0,0.0,0.0,0.0,0.0,1.0,0,,,0.0,0.0,0.0,0.0,0.0,0.0,0.0,0.0,0.0,0.0,0.0,0.0,1.0,0,,,0.0,0.0,0.0,0.0,0.0,0.0,0.0,0.0,0.0,0.0,0.0,0.0,1.0,0,,,0.0,0.0,0.0,0.0,0.0,0.0,0.0,0.0,0.0,0.0,0.0,0.0,1.0,0,,,0.0,0.0,0.0,0.0,0.0,0.0,0.0,0.0,0.0,0.0,0.0,0.0,1.0,0,,,0,0,0,0,0,0,0,0,0,0,0,0,0,0,0,0,0,0,0,,,0,0,0,0,0,0,0,0,0,0,0,0,0,0,0,0,0,0
1777533213.3583086,185503,1777533198.8608673,,,0,0,,,0,0,0,0,0,0,0.0,0.0,0.0,0.0,0.0,0.0,0.0,0.0,0.0,0.0,0.0,0.0,0.0,0.0,0.0,0.0,0.0,0.0,0.0,0.0,0.0,0.0,0.0,0.0,0.0,0.0,0.0,57.542559381777906,516.2396197736871,870.0670493273884,144.47159755469553,512.9528859292086,862.8631019580038,75.90141795487033,289.6743924979227,913.0773277892175,159.80329579201197,299.67185770038753,910.5925444111211,-95.12280776173664,452.7447942208068,729.2734157835764,-67.7717895116612,545.2079292136511,447.8051444073547,-95.86368721353074,531.3006549849989,214.32587174927843,-69.45249182017805,527.9846150034289,75.18347214120331,-15.107943406515579,461.2408636762715,49.09930060640583,-22.59783511525804,730.4944567860002,68.07144791188013,262.2405211394418,420.98188999088615,692.2737544606107,223.98749401634507,398.9026184201628,397.1537869444259,218.48656491411717,351.9828290344129,221.24897216684485,162.48518692105228,301.22731571012827,65.23710085022262,107.89369762457855,237.45237675382486,40.336047834973115,136.52321694602867,500.03328442696824,56.142809173084345,0,,,0.0,0.0,0.0,0.0,0.0,0.0,0.0,0.0,0.0,0.0,0.0,0.0,1.0,0,,,0.0,0.0,0.0,0.0,0.0,0.0,0.0,0.0,0.0,0.0,0.0,0.0,1.0,0,,,0.0,0.0,0.0,0.0,0.0,0.0,0.0,0.0,0.0,0.0,0.0,0.0,1.0,0,,,0.0,0.0,0.0,0.0,0.0,0.0,0.0,0.0,0.0,0.0,0.0,0.0,1.0,0,,,0.0,0.0,0.0,0.0,0.0,0.0,0.0,0.0,0.0,0.0,0.0,0.0,1.0,0,,,0.0,0.0,0.0,0.0,0.0,0.0,0.0,0.0,0.0,0.0,0.0,0.0,1.0,0,,,0.0,0.0,0.0,0.0,0.0,0.0,0.0,0.0,0.0,0.0,0.0,0.0,1.0,0,,,0,0,0,0,0,0,0,0,0,0,0,0,0,0,0,0,0,0,0,,,0,0,0,0,0,0,0,0,0,0,0,0,0,0,0,0,0,0
1777533213.3583086,185504,1777533198.8698661,,,0,0,,,0,0,0,0,0,0,0.0,0.0,0.0,0.0,0.0,0.0,0.0,0.0,0.0,0.0,0.0,0.0,0.0,0.0,0.0,0.0,0.0,0.0,0.0,0.0,0.0,0.0,0.0,0.0,0.0,0.0,0.0,56.97970101233873,517.3170378291755,869.601675362947,143.91909313670746,513.6563029039195,862.5939330011286,73.97358008069041,290.7694350831809,912.7805611393204,157.98471154179282,300.3605147915097,910.4218671296998,-95.8688554970002,453.47379609152205,728.2473206393989,-67.91140412182,544.2838796761152,446.31560892315304,-95.5313017890846,529.6120697837517,212.94223784850115,-69.19699233699929,525.5065387029,73.90663106237977,-14.630812206522267,458.6459573540705,47.640567338293515,-21.599323638146984,727.8291139354475,66.62662285154106,261.4226120655614,420.8153799280762,692.3040222433938,223.40834356832622,398.0115250761344,397.21610153542406,218.1327664247027,350.5885923307591,221.37121393738062,162.31675032100677,299.4913143076799,65.24407672952772,107.83422820116493,235.72051303226996,40.52131154454556,136.47804293988847,498.2299028824436,56.01761494825732,0,,,0.0,0.0,0.0,0.0,0.0,0.0,0.0,0.0,0.0,0.0,0.0,0.0,1.0,0,,,0.0,0.0,0.0,0.0,0.0,0.0,0.0,0.0,0.0,0.0,0.0,0.0,1.0,0,,,0.0,0.0,0.0,0.0,0.0,0.0,0.0,0.0,0.0,0.0,0.0,0.0,1.0,0,,,0.0,0.0,0.0,0.0,0.0,0.0,0.0,0.0,0.0,0.0,0.0,0.0,1.0,0,,,0.0,0.0,0.0,0.0,0.0,0.0,0.0,0.0,0.0,0.0,0.0,0.0,1.0,0,,,0.0,0.0,0.0,0.0,0.0,0.0,0.0,0.0,0.0,0.0,0.0,0.0,1.0,0,,,0.0,0.0,0.0,0.0,0.0,0.0,0.0,0.0,0.0,0.0,0.0,0.0,1.0,0,,,0,0,0,0,0,0,0,0,0,0,0,0,0,0,0,0,0,0,0,,,0,0,0,0,0,0,0,0,0,0,0,0,0,0,0,0,0,0
1777533213.3583086,185505,1777533198.8808672,,,0,0,,,0,0,0,0,0,0,0.0,0.0,0.0,0.0,0.0,0.0,0.0,0.0,0.0,0.0,0.0,0.0,0.0,0.0,0.0,0.0,0.0,0.0,0.0,0.0,0.0,0.0,0.0,0.0,0.0,0.0,0.0,56.42450104520582,518.5072832705984,869.0745230247013,143.37053770345688,514.4666241907232,862.3055530600657,72.20771186030302,291.9417093716698,912.5804958084788,156.1864202423582,301.0876531242553,910.34667349283,-96.62710890726662,454.2213865519232,727.229406237721,-68.17341520884577,543.3486916817893,444.65437143479033,-95.15775091543281,527.5563003659457,211.30339532054572,-68.50614752294666,523.1302414296033,72.82634290358659,-14.194512794403128,456.07945690964624,46.29701706696171,-20.11701924035302,725.1102550789565,65.12464184856356,260.5747673088994,420.68053321068965,692.2517340793908,222.84236301416027,397.17487948821383,397.2834425275995,217.87806376180876,349.2990991943766,221.59240499998046,162.21112194543653,297.9333632342589,65.45551246315232,107.70618649686203,233.97731936703127,40.4918770798131,136.39589026578696,496.5227962734187,55.99868683043115,0,,,0.0,0.0,0.0,0.0,0.0,0.0,0.0,0.0,0.0,0.0,0.0,0.0,1.0,0,,,0.0,0.0,0.0,0.0,0.0,0.0,0.0,0.0,0.0,0.0,0.0,0.0,1.0,0,,,0.0,0.0,0.0,0.0,0.0,0.0,0.0,0.0,0.0,0.0,0.0,0.0,1.0,0,,,0.0,0.0,0.0,0.0,0.0,0.0,0.0,0.0,0.0,0.0,0.0,0.0,1.0,0,,,0.0,0.0,0.0,0.0,0.0,0.0,0.0,0.0,0.0,0.0,0.0,0.0,1.0,0,,,0.0,0.0,0.0,0.0,0.0,0.0,0.0,0.0,0.0,0.0,0.0,0.0,1.0,0,,,0.0,0.0,0.0,0.0,0.0,0.0,0.0,0.0,0.0,0.0,0.0,0.0,1.0,0,,,0,0,0,0,0,0,0,0,0,0,0,0,0,0,0,0,0,0,0,,,0,0,0,0,0,0,0,0,0,0,0,0,0,0,0,0,0,0
1777533213.3583086,185506,1777533198.8898659,,,0,0,,,0,0,0,0,0,0,0.0,0.0,0.0,0.0,0.0,0.0,0.0,0.0,0.0,0.0,0.0,0.0,0.0,0.0,0.0,0.0,0.0,0.0,0.0,0.0,0.0,0.0,0.0,0.0,0.0,0.0,0.0,55.87185632229057,519.8586347375851,868.5058237342519,142.8094665308007,515.2881904380863,861.9517499167277,70.39302597988082,293.30499128532404,912.3901389089996,154.2228516123636,301.94436049950895,910.2424093126392,-97.44081360673032,455.14694695434497,726.1382705153746,-68.47808848932789,542.6452237085836,443.05109497509153,-94.91707138422997,525.6845949814054,209.7822943980993,-67.94373333192144,521.3695260481705,72.49983813263121,-13.907896854548413,454.31517020902584,46.43181105843037,-17.87731793740722,723.4436972030826,62.91755014703319,259.7334356377594,420.51887030326316,692.2238105815613,222.3365319545293,396.2747797407062,397.2987340778129,217.66434891239447,347.90155992585335,221.66682475746254,161.97244387694337,296.0960257433755,65.30921843798222,107.74584236645036,232.25838009641603,40.6612059471067,136.34133468100123,494.8978963488551,55.94972583389992,0,,,0.0,0.0,0.0,0.0,0.0,0.0,0.0,0.0,0.0,0.0,0.0,0.0,1.0,0,,,0.0,0.0,0.0,0.0,0.0,0.0,0.0,0.0,0.0,0.0,0.0,0.0,1.0,0,,,0.0,0.0,0.0,0.0,0.0,0.0,0.0,0.0,0.0,0.0,0.0,0.0,1.0,0,,,0.0,0.0,0.0,0.0,0.0,0.0,0.0,0.0,0.0,0.0,0.0,0.0,1.0,0,,,0.0,0.0,0.0,0.0,0.0,0.0,0.0,0.0,0.0,0.0,0.0,0.0,1.0,0,,,0.0,0.0,0.0,0.0,0.0,0.0,0.0,0.0,0.0,0.0,0.0,0.0,1.0,0,,,0.0,0.0,0.0,0.0,0.0,0.0,0.0,0.0,0.0,0.0,0.0,0.0,1.0,0,,,0,0,0,0,0,0,0,0,0,0,0,0,0,0,0,0,0,0,0,,,0,0,0,0,0,0,0,0,0,0,0,0,0,0,0,0,0,0
1777533213.3583086,185507,1777533198.9032547,1777533198.9032547,,0,0,0.5233287811279297,,1,0,2,0,0,0,0.0,0.0,0.0,0.0,0.0,0.0,0.0,0.0,0.0,0.0,0.0,0.0,0.0,0.0,0.0,0.0,0.0,0.0,0.0,0.0,0.0,0.0,0.0,0.0,0.0,0.0,0.0,55.232989190188086,521.281252301325,867.8694397395074,142.19612766375573,516.283766495985,861.5696439583104,68.46567030151715,294.66318648602476,912.070361577886,152.5143118883298,302.88848162648844,910.1078303927786,-98.26778436734953,456.0343196203935,724.9884803064743,-68.67524853783745,541.6351279516621,441.40538148844473,-94.43110221754988,523.7210380466724,208.30413539908108,-67.07968471252785,519.9102491476402,71.9720916276916,-13.456044356158342,452.84948302316445,46.592039898670734,-16.041958613820793,722.1864763279849,60.91415465928953,258.8882551967812,420.40661809316146,692.2218601931647,221.952084114207,395.3065333449435,397.27762078305034,217.44184559350694,346.5535460578852,221.88427642323825,161.9155823850847,294.43421539690945,65.4112981320716,107.62434573499517,230.5091612377702,40.716515108891734,136.34818326182744,493.17584527913453,55.928095672962996,0,,,0.0,0.0,0.0,0.0,0.0,0.0,0.0,0.0,0.0,0.0,0.0,0.0,1.0,0,,,0.0,0.0,0.0,0.0,0.0,0.0,0.0,0.0,0.0,0.0,0.0,0.0,1.0,0,,,0.0,0.0,0.0,0.0,0.0,0.0,0.0,0.0,0.0,0.0,0.0,0.0,1.0,0,,,0.0,0.0,0.0,0.0,0.0,0.0,0.0,0.0,0.0,0.0,0.0,0.0,1.0,0,,,0.0,0.0,0.0,0.0,0.0,0.0,0.0,0.0,0.0,0.0,0.0,0.0,1.0,1,1777533198.9027314,0.5233287811279297,1.8471,9.3789,-2.1438,15.0146,-11.2915,-2.6245,105.6775,-10.3931,-153.3966,0.2358,0.7598,-0.602,0.0682,1,1777533198.9032547,0.0,1.1149,1.469,9.8718,4.0894,-1.3428,-0.9155,9.3878,-5.8777,145.3162,-0.0244,-0.0932,0.9488,0.3007,0,,,0,0,0,0,0,0,0,0,0,0,0,0,0,0,0,0,0,0,0,,,0,0,0,0,0,0,0,0,0,0,0,0,0,0,0,0,0,0
1777533213.3593168,185508,1777533198.9101746,1777533198.9032547,,0,0,7.44318962097168,,1,0,2,0,0,0,0.0,0.0,0.0,0.0,0.0,0.0,0.0,0.0,0.0,0.0,0.0,0.0,0.0,0.0,0.0,0.0,0.0,0.0,0.0,0.0,0.0,0.0,0.0,0.0,0.0,0.0,0.0,54.57307363016468,522.810310849016,867.1794705074403,141.54751689055956,517.3024643636535,861.1430308544764,66.58344629168374,296.1613978687615,911.9131085549061,150.5341983328659,304.00720321815027,909.9534336633465,-99.13079326707388,457.04142161692585,723.8279410992734,-68.83360408386595,540.4385849468998,439.7095207657683,-93.98712948899667,522.0197745433276,206.65891227136552,-67.14779095480229,518.372176993514,71.89080306395556,-13.821535053134564,450.9524073874023,46.268073731665474,-16.357697323174488,720.3531501134316,60.97861081169378,258.00221227065674,420.3256007252546,692.2521651618831,221.55257143350215,394.3258074845965,397.32318721526536,217.24828287416085,345.0630475378206,221.95786160840706,161.82296103713594,292.74919004314063,65.52007253128924,107.53274518420992,228.76545095717037,40.69260704016248,136.34042657170676,491.3101568408286,55.826086941795516,0,,,0.0,0.0,0.0,0.0,0.0,0.0,0.0,0.0,0.0,0.0,0.0,0.0,1.0,0,,,0.0,0.0,0.0,0.0,0.0,0.0,0.0,0.0,0.0,0.0,0.0,0.0,1.0,0,,,0.0,0.0,0.0,0.0,0.0,0.0,0.0,0.0,0.0,0.0,0.0,0.0,1.0,0,,,0.0,0.0,0.0,0.0,0.0,0.0,0.0,0.0,0.0,0.0,0.0,0.0,1.0,0,,,0.0,0.0,0.0,0.0,0.0,0.0,0.0,0.0,0.0,0.0,0.0,0.0,1.0,1,1777533198.9027314,7.44318962097168,1.8471,9.3789,-2.1438,15.0146,-11.2915,-2.6245,105.6775,-10.3931,-153.3966,0.2358,0.7598,-0.602,0.0682,1,1777533198.9032547,6.91986083984375,1.1149,1.469,9.8718,4.0894,-1.3428,-0.9155,9.3878,-5.8777,145.3162,-0.0244,-0.0932,0.9488,0.3007,0,,,0,0,0,0,0,0,0,0,0,0,0,0,0,0,0,0,0,0,0,,,0,0,0,0,0,0,0,0,0,0,0,0,0,0,0,0,0,0
1777533213.4033282,185509,1777533198.9201806,1777533198.9032547,,0,0,17.449140548706055,,1,0,2,0,0,0,0.0,0.0,0.0,0.0,0.0,0.0,0.0,0.0,0.0,0.0,0.0,0.0,0.0,0.0,0.0,0.0,0.0,0.0,0.0,0.0,0.0,0.0,0.0,0.0,0.0,0.0,0.0,53.840942562715206,524.3521787727342,866.4562289337548,140.83947203473167,518.4005859486351,860.680876520045,64.35983607732301,297.8551497230165,911.6059972937568,148.55194682420557,305.0253133204774,909.8804659597272,-99.98373078067898,457.8558994780267,722.7276591745846,-69.12756289701393,539.2793256783131,438.14196439532236,-93.64168423504393,520.4146242758628,205.08344759118174,-67.00710663652202,516.4724405019351,71.62359364551172,-13.655000134585345,449.1957444306636,46.03666690888245,-16.667942591169165,718.5506571766725,60.82491464481052,257.12130772873127,420.3322055331866,692.1996912067901,221.10483937091965,393.3326852350102,397.3598909602604,217.10843744522515,343.68176824829646,222.22582912176267,162.23139561982677,290.9863791126905,65.83098718714027,107.54511193053328,227.0135999651502,40.75580174070036,136.3156225032276,489.6038713334704,55.82135577615505,0,,,0.0,0.0,0.0,0.0,0.0,0.0,0.0,0.0,0.0,0.0,0.0,0.0,1.0,0,,,0.0,0.0,0.0,0.0,0.0,0.0,0.0,0.0,0.0,0.0,0.0,0.0,1.0,0,,,0.0,0.0,0.0,0.0,0.0,0.0,0.0,0.0,0.0,0.0,0.0,0.0,1.0,0,,,0.0,0.0,0.0,0.0,0.0,0.0,0.0,0.0,0.0,0.0,0.0,0.0,1.0,0,,,0.0,0.0,0.0,0.0,0.0,0.0,0.0,0.0,0.0,0.0,0.0,0.0,1.0,1,1777533198.9027314,17.449140548706055,1.8471,9.3789,-2.1438,15.0146,-11.2915,-2.6245,105.6775,-10.3931,-153.3966,0.2358,0.7598,-0.602,0.0682,1,1777533198.9032547,16.925811767578125,1.1149,1.469,9.8718,4.0894,-1.3428,-0.9155,9.3878,-5.8777,145.3162,-0.0244,-0.0932,0.9488,0.3007,0,,,0,0,0,0,0,0,0,0,0,0,0,0,0,0,0,0,0,0,0,,,0,0,0,0,0,0,0,0,0,0,0,0,0,0,0,0,0,0
1777533213.4033282,185510,1777533198.93018,,,0,0,,,0,0,0,0,0,0,0.0,0.0,0.0,0.0,0.0,0.0,0.0,0.0,0.0,0.0,0.0,0.0,0.0,0.0,0.0,0.0,0.0,0.0,0.0,0.0,0.0,0.0,0.0,0.0,0.0,0.0,0.0,53.07001657533362,526.117612076747,865.6881380697796,140.06918676637204,519.571283004302,860.197093674308,62.38189786066564,299.5340002846537,911.3713864626237,146.66098987102762,306.3449277433165,909.8197300722658,-100.87419033123722,458.85265018077644,721.7006171494386,-69.36724174269239,538.0225036009466,436.58991669128244,-93.52615245037227,518.9761595279526,203.74651836082796,-67.05904216221323,514.4455141480389,71.35144745671168,-13.53993275886423,447.2779475786488,45.5331338261187,-16.198917023445105,716.5604227222238,60.99056740916826,256.1909151853218,420.46075657922995,692.1811623384561,220.5641937912373,392.310879218803,397.398390728877,216.84684309343206,342.11939225961913,222.303957483765,161.74566539594656,289.2343014942854,65.55761918653847,107.54158659792303,225.20553909217728,40.86358975030723,136.3233288802515,487.773476036389,55.80226225358208,0,,,0.0,0.0,0.0,0.0,0.0,0.0,0.0,0.0,0.0,0.0,0.0,0.0,1.0,0,,,0.0,0.0,0.0,0.0,0.0,0.0,0.0,0.0,0.0,0.0,0.0,0.0,1.0,0,,,0.0,0.0,0.0,0.0,0.0,0.0,0.0,0.0,0.0,0.0,0.0,0.0,1.0,0,,,0.0,0.0,0.0,0.0,0.0,0.0,0.0,0.0,0.0,0.0,0.0,0.0,1.0,0,,,0.0,0.0,0.0,0.0,0.0,0.0,0.0,0.0,0.0,0.0,0.0,0.0,1.0,0,,,0.0,0.0,0.0,0.0,0.0,0.0,0.0,0.0,0.0,0.0,0.0,0.0,1.0,0,,,0.0,0.0,0.0,0.0,0.0,0.0,0.0,0.0,0.0,0.0,0.0,0.0,1.0,0,,,0,0,0,0,0,0,0,0,0,0,0,0,0,0,0,0,0,0,0,,,0,0,0,0,0,0,0,0,0,0,0,0,0,0,0,0,0,0
1777533213.405052,185511,1777533198.9401846,,,0,0,,,0,0,0,0,0,0,0.0,0.0,0.0,0.0,0.0,0.0,0.0,0.0,0.0,0.0,0.0,0.0,0.0,0.0,0.0,0.0,0.0,0.0,0.0,0.0,0.0,0.0,0.0,0.0,0.0,0.0,0.0,52.25847060108811,527.7149740150212,864.9274887399285,139.27119120591647,520.7799140470856,859.705300830447,60.49589026035437,301.2131029604474,911.3261870406634,144.57196216439664,307.58807932782514,909.6452072768286,-101.76972482295812,459.9298208561346,720.8304981122373,-69.75441554408633,537.1665790699624,435.327989913299,-93.71056356535091,517.7658594151958,202.55810133324226,-67.20632223441135,512.7492443227717,71.03973032035302,-13.682675853224461,445.2541591447962,45.21522546835247,-16.769838675440987,714.6414120798437,60.85939465029379,255.19102804207506,420.58843363046236,692.1340046303416,219.9916543958015,391.2886731053557,397.4570769943129,216.58216473898858,340.68679539634485,222.56289315037776,162.11458887261404,287.3262683808395,65.79878260355156,107.42701940118465,223.3962375718363,40.91494344834193,136.29097429567355,485.9260262893491,55.74812481157477,0,,,0.0,0.0,0.0,0.0,0.0,0.0,0.0,0.0,0.0,0.0,0.0,0.0,1.0,0,,,0.0,0.0,0.0,0.0,0.0,0.0,0.0,0.0,0.0,0.0,0.0,0.0,1.0,0,,,0.0,0.0,0.0,0.0,0.0,0.0,0.0,0.0,0.0,0.0,0.0,0.0,1.0,0,,,0.0,0.0,0.0,0.0,0.0,0.0,0.0,0.0,0.0,0.0,0.0,0.0,1.0,0,,,0.0,0.0,0.0,0.0,0.0,0.0,0.0,0.0,0.0,0.0,0.0,0.0,1.0,0,,,0.0,0.0,0.0,0.0,0.0,0.0,0.0,0.0,0.0,0.0,0.0,0.0,1.0,0,,,0.0,0.0,0.0,0.0,0.0,0.0,0.0,0.0,0.0,0.0,0.0,0.0,1.0,0,,,0,0,0,0,0,0,0,0,0,0,0,0,0,0,0,0,0,0,0,,,0,0,0,0,0,0,0,0,0,0,0,0,0,0,0,0,0,0
1777533213.405052,185512,1777533198.9506931,,,0,0,,,0,0,0,0,0,0,0.0,0.0,0.0,0.0,0.0,0.0,0.0,0.0,0.0,0.0,0.0,0.0,0.0,0.0,0.0,0.0,0.0,0.0,0.0,0.0,0.0,0.0,0.0,0.0,0.0,0.0,0.0,51.35419378347557,529.4282420792764,864.2210271057256,138.41308730450314,522.059447130487,859.2369581772117,58.33138676605339,303.0775471119024,911.204041698459,142.82896822975545,309.02527404308756,909.7189034204622,-102.82835034151204,461.0246236508037,720.0836076883865,-70.39834397505845,536.324538782773,434.2423512222357,-94.1419709349942,516.7533666443248,201.50703127669237,-67.49365030377368,510.9061323107543,70.56808203285895,-13.69045841920333,443.40651863254135,45.05382384596546,-16.911033975195316,712.8831838728665,60.657001275785056,254.17771357412158,420.82873295287385,692.1099620237768,219.34195457868756,390.27185189529337,397.5167934512611,216.2938653180128,339.15368003364097,222.76385519619774,161.55052255851487,285.69316098717303,65.69985464784956,107.39381095442893,221.54625581491484,41.006065941381124,136.17044111376873,484.048344480638,55.62218040884236,0,,,0.0,0.0,0.0,0.0,0.0,0.0,0.0,0.0,0.0,0.0,0.0,0.0,1.0,0,,,0.0,0.0,0.0,0.0,0.0,0.0,0.0,0.0,0.0,0.0,0.0,0.0,1.0,0,,,0.0,0.0,0.0,0.0,0.0,0.0,0.0,0.0,0.0,0.0,0.0,0.0,1.0,0,,,0.0,0.0,0.0,0.0,0.0,0.0,0.0,0.0,0.0,0.0,0.0,0.0,1.0,0,,,0.0,0.0,0.0,0.0,0.0,0.0,0.0,0.0,0.0,0.0,0.0,0.0,1.0,0,,,0.0,0.0,0.0,0.0,0.0,0.0,0.0,0.0,0.0,0.0,0.0,0.0,1.0,0,,,0.0,0.0,0.0,0.0,0.0,0.0,0.0,0.0,0.0,0.0,0.0,0.0,1.0,0,,,0,0,0,0,0,0,0,0,0,0,0,0,0,0,0,0,0,0,0,,,0,0,0,0,0,0,0,0,0,0,0,0,0,0,0,0,0,0
1777533213.405052,185513,1777533198.9606934,,,0,0,,,0,0,0,0,0,0,0.0,0.0,0.0,0.0,0.0,0.0,0.0,0.0,0.0,0.0,0.0,0.0,0.0,0.0,0.0,0.0,0.0,0.0,0.0,0.0,0.0,0.0,0.0,0.0,0.0,0.0,0.0,50.41379000806391,531.2499792354496,863.5400453357589,137.4867903708006,523.4317835229284,858.7700865322818,56.47496008540972,304.83832347397913,911.2848259352701,140.72853787905188,310.428525032452,909.7913627154694,-104.01697763089325,462.3621949683598,719.5415797360569,-71.51612375754263,535.8964369429171,433.48079664835836,-94.6960671456813,515.8119723514926,200.63337713628954,-67.76878265837401,508.9827587621376,70.22727819687269,-13.723974484623097,441.5372661757708,44.93626255107525,-17.0967468233741,711.1650942078646,60.600266727141204,253.11177842255663,421.1091562029601,692.0905612660863,218.5476530598715,389.2943726865631,397.6627721868269,215.8422203580258,337.75830168219693,223.076713222072,161.35300478442727,283.86000725387447,65.74194952023932,107.28931248623485,219.83688777770047,40.95959613732287,136.13426788945728,482.36687950822477,55.71913143647369,0,,,0.0,0.0,0.0,0.0,0.0,0.0,0.0,0.0,0.0,0.0,0.0,0.0,1.0,0,,,0.0,0.0,0.0,0.0,0.0,0.0,0.0,0.0,0.0,0.0,0.0,0.0,1.0,0,,,0.0,0.0,0.0,0.0,0.0,0.0,0.0,0.0,0.0,0.0,0.0,0.0,1.0,0,,,0.0,0.0,0.0,0.0,0.0,0.0,0.0,0.0,0.0,0.0,0.0,0.0,1.0,0,,,0.0,0.0,0.0,0.0,0.0,0.0,0.0,0.0,0.0,0.0,0.0,0.0,1.0,0,,,0.0,0.0,0.0,0.0,0.0,0.0,0.0,0.0,0.0,0.0,0.0,0.0,1.0,0,,,0.0,0.0,0.0,0.0,0.0,0.0,0.0,0.0,0.0,0.0,0.0,0.0,1.0,0,,,0,0,0,0,0,0,0,0,0,0,0,0,0,0,0,0,0,0,0,,,0,0,0,0,0,0,0,0,0,0,0,0,0,0,0,0,0,0
1777533213.4055758,185514,1777533198.9748654,1777533198.9742005,,0,0,0.6649494171142578,,1,0,2,0,0,0,0.0,0.0,0.0,0.0,0.0,0.0,0.0,0.0,0.0,0.0,0.0,0.0,0.0,0.0,0.0,0.0,0.0,0.0,0.0,0.0,0.0,0.0,0.0,0.0,0.0,0.0,0.0,49.413553267895445,532.9997846683082,862.9894315107572,136.50335019304578,524.8002645781776,858.3633421079871,54.36997533596521,306.70534756980925,911.338580196797,138.9794999256989,311.95371586961056,909.8799404799518,-105.09916366160483,463.6907436287821,719.2386374414812,-72.77726747817616,535.7603809501504,432.8684650872432,-95.2878089852765,514.7390808245314,199.82959028717397,-67.99193067302406,507.22965373901354,70.0257386790407,-14.0049796782474,439.6355933382132,44.71494152612322,-17.332977510603158,709.3376311102329,60.471039126662994,251.99170552933896,421.50866571868005,692.10527933427,217.60965007513113,388.3627435848685,397.8452491021411,215.3358489516777,336.3798528372471,223.42389505604282,161.16499656433643,282.0377412005545,65.82186155244763,107.23922880576542,218.05784736465628,41.18064401627158,135.99863590837157,480.5129726478133,55.72847752754146,0,,,0.0,0.0,0.0,0.0,0.0,0.0,0.0,0.0,0.0,0.0,0.0,0.0,1.0,0,,,0.0,0.0,0.0,0.0,0.0,0.0,0.0,0.0,0.0,0.0,0.0,0.0,1.0,0,,,0.0,0.0,0.0,0.0,0.0,0.0,0.0,0.0,0.0,0.0,0.0,0.0,1.0,0,,,0.0,0.0,0.0,0.0,0.0,0.0,0.0,0.0,0.0,0.0,0.0,0.0,1.0,0,,,0.0,0.0,0.0,0.0,0.0,0.0,0.0,0.0,0.0,0.0,0.0,0.0,1.0,1,1777533198.9742005,0.6649494171142578,1.7322,9.1205,-3.1917,15.9912,-15.3809,-3.6011,107.5177,-9.635,-154.7479,0.2241,0.7734,-0.5897,0.0627,1,1777533198.9742005,0.6649494171142578,0.9762,1.9284,9.9244,1.2207,-1.5869,0.1221,9.7119,-5.9601,145.2448,-0.0242,-0.0961,0.9483,0.3014,0,,,0,0,0,0,0,0,0,0,0,0,0,0,0,0,0,0,0,0,0,,,0,0,0,0,0,0,0,0,0,0,0,0,0,0,0,0,0,0
1777533213.4055758,185515,1777533198.9807115,1777533198.9742005,,0,0,6.51097297668457,,1,0,2,0,0,0,0.0,0.0,0.0,0.0,0.0,0.0,0.0,0.0,0.0,0.0,0.0,0.0,0.0,0.0,0.0,0.0,0.0,0.0,0.0,0.0,0.0,0.0,0.0,0.0,0.0,0.0,0.0,48.355533530788726,534.6420064014087,862.5786125285331,135.42930879160437,526.2455491377393,858.0023670493368,52.67418667143066,308.4574805847484,911.6239714465901,137.28062704040377,313.5169451800959,910.112170116438,-106.36233078076445,464.9257397346517,719.0877473068027,-74.13766806748367,536.0574658868657,432.4387323944384,-96.03321866047125,513.8049483127045,199.2344327475082,-67.78647434465097,505.3241942922105,69.84125379451339,-14.140752637734758,437.8190538667405,44.579332508572435,-17.600096630704215,707.4152618503599,60.42430921216424,250.77814730639358,421.9332025797251,692.0542976922927,216.4553183029549,387.4770277519025,398.0461705197059,214.7226443658679,335.0051983408285,223.78420691028003,161.01251299238092,280.3886789281894,66.0950131414917,107.01156968625446,216.1562178313356,41.26853518787674,135.85764267349333,478.6762061581888,55.72103333120279,0,,,0.0,0.0,0.0,0.0,0.0,0.0,0.0,0.0,0.0,0.0,0.0,0.0,1.0,0,,,0.0,0.0,0.0,0.0,0.0,0.0,0.0,0.0,0.0,0.0,0.0,0.0,1.0,0,,,0.0,0.0,0.0,0.0,0.0,0.0,0.0,0.0,0.0,0.0,0.0,0.0,1.0,0,,,0.0,0.0,0.0,0.0,0.0,0.0,0.0,0.0,0.0,0.0,0.0,0.0,1.0,0,,,0.0,0.0,0.0,0.0,0.0,0.0,0.0,0.0,0.0,0.0,0.0,0.0,1.0,1,1777533198.9742005,6.51097297668457,1.7322,9.1205,-3.1917,15.9912,-15.3809,-3.6011,107.5177,-9.635,-154.7479,0.2241,0.7734,-0.5897,0.0627,1,1777533198.9742005,6.51097297668457,0.9762,1.9284,9.9244,1.2207,-1.5869,0.1221,9.7119,-5.9601,145.2448,-0.0242,-0.0961,0.9483,0.3014,0,,,0,0,0,0,0,0,0,0,0,0,0,0,0,0,0,0,0,0,0,,,0,0,0,0,0,0,0,0,0,0,0,0,0,0,0,0,0,0
1777533213.4055758,185516,1777533198.990713,1777533198.9742005,,0,0,16.512393951416016,,1,0,2,0,0,0,0.0,0.0,0.0,0.0,0.0,0.0,0.0,0.0,0.0,0.0,0.0,0.0,0.0,0.0,0.0,0.0,0.0,0.0,0.0,0.0,0.0,0.0,0.0,0.0,0.0,0.0,0.0,47.218811946103855,536.3393589466542,862.3451570343655,134.30964728444567,527.6989274012807,857.7636160601736,51.031098653230764,310.255513623808,912.0015456626444,135.45310504802293,315.09743739940086,910.4236448597636,-107.65136032639661,466.17576842699265,719.1639841672254,-75.47787779986173,536.4587021077836,432.1574585380472,-96.84223702751684,512.9623681798275,198.7943884844876,-68.3969646872645,503.331045802338,69.70910923235381,-14.373461221210649,435.8713236510418,44.37068535351986,-17.832837005688933,705.5641698427874,60.55238806422064,249.56467052189143,422.46793964875235,692.0496679643204,215.24964528834903,386.64677745164613,398.31220366803035,214.03515668177536,333.5727181727239,224.21498631290416,160.6752013078147,278.62159607933296,66.19745975989466,106.88964992983553,214.42253375997083,41.513323432059984,135.6450374751153,476.85381072209174,55.75436694705844,0,,,0.0,0.0,0.0,0.0,0.0,0.0,0.0,0.0,0.0,0.0,0.0,0.0,1.0,0,,,0.0,0.0,0.0,0.0,0.0,0.0,0.0,0.0,0.0,0.0,0.0,0.0,1.0,0,,,0.0,0.0,0.0,0.0,0.0,0.0,0.0,0.0,0.0,0.0,0.0,0.0,1.0,0,,,0.0,0.0,0.0,0.0,0.0,0.0,0.0,0.0,0.0,0.0,0.0,0.0,1.0,0,,,0.0,0.0,0.0,0.0,0.0,0.0,0.0,0.0,0.0,0.0,0.0,0.0,1.0,1,1777533198.9742005,16.512393951416016,1.7322,9.1205,-3.1917,15.9912,-15.3809,-3.6011,107.5177,-9.635,-154.7479,0.2241,0.7734,-0.5897,0.0627,1,1777533198.9742005,16.512393951416016,0.9762,1.9284,9.9244,1.2207,-1.5869,0.1221,9.7119,-5.9601,145.2448,-0.0242,-0.0961,0.9483,0.3014,0,,,0,0,0,0,0,0,0,0,0,0,0,0,0,0,0,0,0,0,0,,,0,0,0,0,0,0,0,0,0,0,0,0,0,0,0,0,0,0
1777533213.4055758,185517,1777533199.0008943,,,0,0,,,0,0,0,0,0,0,0.0,0.0,0.0,0.0,0.0,0.0,0.0,0.0,0.0,0.0,0.0,0.0,0.0,0.0,0.0,0.0,0.0,0.0,0.0,0.0,0.0,0.0,0.0,0.0,0.0,0.0,0.0,45.96152015788262,538.0472015895966,862.2663290825342,133.04670686567655,529.1875382777183,857.5967077549145,49.3649039133788,312.04677391521165,912.412136006109,133.79850618578965,316.75324733134596,910.7166190141318,-108.92653975845911,467.78831037660154,719.4435591017651,-76.7391250188302,537.2749440445915,431.8910333793897,-97.76334745199556,512.2062414318883,198.46522435596333,-69.07823103371378,501.4890044365444,69.34505331103546,-14.729635347973536,434.01010694157173,44.233284197268254,-18.121563718108646,703.7647496941775,60.656237919613574,248.29004149250184,423.0346085727747,692.1068137248644,213.98752851910467,385.7845450435439,398.6059005211171,213.25635626742545,332.2109495450576,224.74603868536835,161.0720797753038,276.9399639702022,66.86650518585506,106.79498356853335,212.6681584510077,41.62287371081435,135.5703065870368,475.10734199359064,55.83378350888148,0,,,0.0,0.0,0.0,0.0,0.0,0.0,0.0,0.0,0.0,0.0,0.0,0.0,1.0,0,,,0.0,0.0,0.0,0.0,0.0,0.0,0.0,0.0,0.0,0.0,0.0,0.0,1.0,0,,,0.0,0.0,0.0,0.0,0.0,0.0,0.0,0.0,0.0,0.0,0.0,0.0,1.0,0,,,0.0,0.0,0.0,0.0,0.0,0.0,0.0,0.0,0.0,0.0,0.0,0.0,1.0,0,,,0.0,0.0,0.0,0.0,0.0,0.0,0.0,0.0,0.0,0.0,0.0,0.0,1.0,0,,,0.0,0.0,0.0,0.0,0.0,0.0,0.0,0.0,0.0,0.0,0.0,0.0,1.0,0,,,0.0,0.0,0.0,0.0,0.0,0.0,0.0,0.0,0.0,0.0,0.0,0.0,1.0,0,,,0,0,0,0,0,0,0,0,0,0,0,0,0,0,0,0,0,0,0,,,0,0,0,0,0,0,0,0,0,0,0,0,0,0,0,0,0,0
1777533213.4055758,185518,1777533199.0103984,,,0,0,,,0,0,0,0,0,0,0.0,0.0,0.0,0.0,0.0,0.0,0.0,0.0,0.0,0.0,0.0,0.0,0.0,0.0,0.0,0.0,0.0,0.0,0.0,0.0,0.0,0.0,0.0,0.0,0.0,0.0,0.0,44.62792334332693,539.753036837596,862.2981676048385,131.66978848581593,530.7804427382509,857.5318285960262,47.72223415020575,313.920275011552,912.837571321898,132.29497520808943,318.35175265819305,911.1395436193037,-110.25081168168964,469.6165887303318,719.7296815850729,-77.89514131740913,538.1215527096257,431.6384359364911,-98.58702280503141,511.75019989308646,198.23575069564563,-69.23843101684288,499.5480904465661,69.23650576737228,-15.10437780330368,432.05004671300264,44.24304257921798,-18.45154132290469,701.8972211163473,60.80139994914699,246.91446381825727,423.6541661363989,692.1546912979583,212.79382441816082,385.0113367788365,398.9634039623118,212.56475737755503,330.8694553908274,225.33041201757206,160.1649980235544,275.31630765582264,66.74493316336088,106.64331552019858,210.96695115976166,41.97207068509286,135.44842298103413,473.30225297157324,55.89379006395246,0,,,0.0,0.0,0.0,0.0,0.0,0.0,0.0,0.0,0.0,0.0,0.0,0.0,1.0,0,,,0.0,0.0,0.0,0.0,0.0,0.0,0.0,0.0,0.0,0.0,0.0,0.0,1.0,0,,,0.0,0.0,0.0,0.0,0.0,0.0,0.0,0.0,0.0,0.0,0.0,0.0,1.0,0,,,0.0,0.0,0.0,0.0,0.0,0.0,0.0,0.0,0.0,0.0,0.0,0.0,1.0,0,,,0.0,0.0,0.0,0.0,0.0,0.0,0.0,0.0,0.0,0.0,0.0,0.0,1.0,0,,,0.0,0.0,0.0,0.0,0.0,0.0,0.0,0.0,0.0,0.0,0.0,0.0,1.0,0,,,0.0,0.0,0.0,0.0,0.0,0.0,0.0,0.0,0.0,0.0,0.0,0.0,1.0,0,,,0,0,0,0,0,0,0,0,0,0,0,0,0,0,0,0,0,0,0,,,0,0,0,0,0,0,0,0,0,0,0,0,0,0,0,0,0,0
1777533213.4055758,185519,1777533199.0204155,,,0,0,,,0,0,0,0,0,0,0.0,0.0,0.0,0.0,0.0,0.0,0.0,0.0,0.0,0.0,0.0,0.0,0.0,0.0,0.0,0.0,0.0,0.0,0.0,0.0,0.0,0.0,0.0,0.0,0.0,0.0,0.0,43.19948938026139,541.4821562723669,862.4057402035364,130.21092804117984,532.365244313116,857.4544565128972,46.209319800831956,315.7369272018674,913.239949110605,130.76702544489643,320.1076807727871,911.4899677184778,-111.26122386757487,471.6055663777717,719.9954117534998,-78.88829402455677,539.0685744487678,431.3389571766261,-99.3798492768877,511.45362763346327,197.8806528912144,-69.87589915851177,497.713075438713,69.09043063009548,-15.229837492053225,430.22731950740655,44.28204685927484,-18.821116056653043,700.0915877059139,60.87799315377193,245.52896388818218,424.32689292055613,692.1590915583347,211.5806460950182,384.2630879053365,399.30055122161497,211.776406218229,329.4603575481,225.87000386209934,160.25402406634856,273.6686200577127,67.02342125809493,106.37558548222691,209.19350922284724,42.05839371277496,135.27026241421257,471.62656645933725,56.0274385046372,0,,,0.0,0.0,0.0,0.0,0.0,0.0,0.0,0.0,0.0,0.0,0.0,0.0,1.0,0,,,0.0,0.0,0.0,0.0,0.0,0.0,0.0,0.0,0.0,0.0,0.0,0.0,1.0,0,,,0.0,0.0,0.0,0.0,0.0,0.0,0.0,0.0,0.0,0.0,0.0,0.0,1.0,0,,,0.0,0.0,0.0,0.0,0.0,0.0,0.0,0.0,0.0,0.0,0.0,0.0,1.0,0,,,0.0,0.0,0.0,0.0,0.0,0.0,0.0,0.0,0.0,0.0,0.0,0.0,1.0,0,,,0.0,0.0,0.0,0.0,0.0,0.0,0.0,0.0,0.0,0.0,0.0,0.0,1.0,0,,,0.0,0.0,0.0,0.0,0.0,0.0,0.0,0.0,0.0,0.0,0.0,0.0,1.0,0,,,0,0,0,0,0,0,0,0,0,0,0,0,0,0,0,0,0,0,0,,,0,0,0,0,0,0,0,0,0,0,0,0,0,0,0,0,0,0
1777533213.406582,185520,1777533199.0305595,,,0,0,,,0,0,0,0,0,0,0.0,0.0,0.0,0.0,0.0,0.0,0.0,0.0,0.0,0.0,0.0,0.0,0.0,0.0,0.0,0.0,0.0,0.0,0.0,0.0,0.0,0.0,0.0,0.0,0.0,0.0,0.0,41.71551985107747,543.3173985197902,862.6109115528386,128.67219524275507,534.0763864268521,857.473500557199,44.69121028388838,317.5769357841175,913.6297163006948,129.02049298827842,321.92720286705844,911.7685485077275,-112.42504530854623,473.7434327913567,720.2020464902092,-79.64567266623223,540.0521363135949,430.9431452529983,-100.14685713666108,511.4622779193716,197.64644898403137,-70.12373642969072,495.8736769112179,68.87023799025546,-15.542009754826184,428.43077284362295,44.193650083584906,-19.12602376410861,698.2903343598196,60.89395228864737,244.0392283282942,425.0278682749972,692.2524974131302,210.344909989899,383.55848487695107,399.6073582962105,211.0128457625965,328.06186219619565,226.42453220057757,159.9409873825693,272.02230546424505,67.35397184977502,106.24569531467588,207.54420088170542,42.43226551790578,135.0667021324969,469.8358282750343,56.05370406560597,0,,,0.0,0.0,0.0,0.0,0.0,0.0,0.0,0.0,0.0,0.0,0.0,0.0,1.0,0,,,0.0,0.0,0.0,0.0,0.0,0.0,0.0,0.0,0.0,0.0,0.0,0.0,1.0,0,,,0.0,0.0,0.0,0.0,0.0,0.0,0.0,0.0,0.0,0.0,0.0,0.0,1.0,0,,,0.0,0.0,0.0,0.0,0.0,0.0,0.0,0.0,0.0,0.0,0.0,0.0,1.0,0,,,0.0,0.0,0.0,0.0,0.0,0.0,0.0,0.0,0.0,0.0,0.0,0.0,1.0,0,,,0.0,0.0,0.0,0.0,0.0,0.0,0.0,0.0,0.0,0.0,0.0,0.0,1.0,0,,,0.0,0.0,0.0,0.0,0.0,0.0,0.0,0.0,0.0,0.0,0.0,0.0,1.0,0,,,0,0,0,0,0,0,0,0,0,0,0,0,0,0,0,0,0,0,0,,,0,0,0,0,0,0,0,0,0,0,0,0,0,0,0,0,0,0
1777533213.406582,185521,1777533199.040563,,,0,0,,,0,0,0,0,0,0,0.0,0.0,0.0,0.0,0.0,0.0,0.0,0.0,0.0,0.0,0.0,0.0,0.0,0.0,0.0,0.0,0.0,0.0,0.0,0.0,0.0,0.0,0.0,0.0,0.0,0.0,0.0,40.14389736646946,545.150456608698,862.775173377194,127.10100244129156,535.7157057975985,857.4573599136953,43.17677060472561,319.42716506081746,913.8413888868895,127.36816517300723,323.6950566299517,912.0093031175143,-113.66615420730265,475.850484968185,720.2043592545449,-80.31898223466655,541.1782697834392,430.63082424817304,-100.68573732497435,511.57447920677066,197.29674100763015,-70.95340410926977,494.33125867429504,68.62608090719318,-15.942628551872398,426.7043164884769,44.09052285832136,-19.26573795039763,696.6193849725823,60.82245472723742,242.55796358897237,425.81385490609665,692.2411428618846,209.13472914267194,382.9416739537624,399.8839274555682,210.30893198698752,326.74772103715947,226.98318782218942,159.36246625756715,270.3203609338279,67.3681850791978,105.94763033346626,205.81327629708244,42.54999354972638,134.8632741099118,468.1130228672828,56.189174780884954,0,,,0.0,0.0,0.0,0.0,0.0,0.0,0.0,0.0,0.0,0.0,0.0,0.0,1.0,0,,,0.0,0.0,0.0,0.0,0.0,0.0,0.0,0.0,0.0,0.0,0.0,0.0,1.0,0,,,0.0,0.0,0.0,0.0,0.0,0.0,0.0,0.0,0.0,0.0,0.0,0.0,1.0,0,,,0.0,0.0,0.0,0.0,0.0,0.0,0.0,0.0,0.0,0.0,0.0,0.0,1.0,0,,,0.0,0.0,0.0,0.0,0.0,0.0,0.0,0.0,0.0,0.0,0.0,0.0,1.0,0,,,0.0,0.0,0.0,0.0,0.0,0.0,0.0,0.0,0.0,0.0,0.0,0.0,1.0,0,,,0.0,0.0,0.0,0.0,0.0,0.0,0.0,0.0,0.0,0.0,0.0,0.0,1.0,0,,,0,0,0,0,0,0,0,0,0,0,0,0,0,0,0,0,0,0,0,,,0,0,0,0,0,0,0,0,0,0,0,0,0,0,0,0,0,0
1777533213.406582,185522,1777533199.0510724,,,0,0,,,0,0,0,0,0,0,0.0,0.0,0.0,0.0,0.0,0.0,0.0,0.0,0.0,0.0,0.0,0.0,0.0,0.0,0.0,0.0,0.0,0.0,0.0,0.0,0.0,0.0,0.0,0.0,0.0,0.0,0.0,38.55417367733117,547.0336128006329,862.8879783491309,125.47507580388762,537.4270782236978,857.4466315184538,41.255026117785405,321.41325217212113,913.9380263630627,125.63815885513999,325.46302441740926,912.1757851645757,-114.9792050759708,478.03890584259136,720.1209709116445,-80.86852726058108,542.3935856955535,430.02945891008824,-101.04626415542116,511.4319232846091,196.77470763413083,-70.66459632915718,492.3876509016308,68.53285242916695,-16.058791230276896,424.9146663342655,43.96685873475162,-19.40035900394958,694.968889655585,60.74272894717306,241.00088103615064,426.6322442947606,692.266219736848,207.9299444228839,382.5068286342093,400.140004257171,209.51640001134234,325.4670342700231,227.49764530023447,159.0495263840474,268.70131637735733,67.68541041238863,105.85743193606747,204.1013827446988,42.78517059151792,134.7156375271939,466.39012132183643,56.30875018319381,0,,,0.0,0.0,0.0,0.0,0.0,0.0,0.0,0.0,0.0,0.0,0.0,0.0,1.0,0,,,0.0,0.0,0.0,0.0,0.0,0.0,0.0,0.0,0.0,0.0,0.0,0.0,1.0,0,,,0.0,0.0,0.0,0.0,0.0,0.0,0.0,0.0,0.0,0.0,0.0,0.0,1.0,0,,,0.0,0.0,0.0,0.0,0.0,0.0,0.0,0.0,0.0,0.0,0.0,0.0,1.0,0,,,0.0,0.0,0.0,0.0,0.0,0.0,0.0,0.0,0.0,0.0,0.0,0.0,1.0,0,,,0.0,0.0,0.0,0.0,0.0,0.0,0.0,0.0,0.0,0.0,0.0,0.0,1.0,0,,,0.0,0.0,0.0,0.0,0.0,0.0,0.0,0.0,0.0,0.0,0.0,0.0,1.0,0,,,0,0,0,0,0,0,0,0,0,0,0,0,0,0,0,0,0,0,0,,,0,0,0,0,0,0,0,0,0,0,0,0,0,0,0,0,0,0
1777533213.406582,185523,1777533199.0605526,,,0,0,,,0,0,0,0,0,0,0.0,0.0,0.0,0.0,0.0,0.0,0.0,0.0,0.0,0.0,0.0,0.0,0.0,0.0,0.0,0.0,0.0,0.0,0.0,0.0,0.0,0.0,0.0,0.0,0.0,0.0,0.0,36.9926289002181,548.9492968733417,862.8663603906009,123.90486330037314,539.1445483113417,857.3822067416676,39.487791378836555,323.2627557832327,913.9040575916957,123.90359097018465,327.17332438522067,912.1800106966766,-116.22086688444898,479.9978720884853,719.8344990362066,-81.37378913272278,543.5449733592998,429.44964013952216,-101.36532671147016,511.1559845865237,196.29227385988642,-70.8675425195462,490.6500374067917,68.41238663128169,-16.27724322285545,423.1453514217088,43.78466397374717,-19.570676357690346,693.232592411245,60.66368450109183,239.44513113038207,427.47509626592523,692.3023573783767,206.72953230191098,382.240679113187,400.3230261355771,208.7092848164803,324.2338145244233,227.96332505828403,158.80059694148534,267.07062809822975,67.8660704989996,105.67655731396758,202.5551681179035,42.9116022012898,134.55952476276312,464.61692537997385,56.27983545831306,0,,,0.0,0.0,0.0,0.0,0.0,0.0,0.0,0.0,0.0,0.0,0.0,0.0,1.0,0,,,0.0,0.0,0.0,0.0,0.0,0.0,0.0,0.0,0.0,0.0,0.0,0.0,1.0,0,,,0.0,0.0,0.0,0.0,0.0,0.0,0.0,0.0,0.0,0.0,0.0,0.0,1.0,0,,,0.0,0.0,0.0,0.0,0.0,0.0,0.0,0.0,0.0,0.0,0.0,0.0,1.0,0,,,0.0,0.0,0.0,0.0,0.0,0.0,0.0,0.0,0.0,0.0,0.0,0.0,1.0,0,,,0.0,0.0,0.0,0.0,0.0,0.0,0.0,0.0,0.0,0.0,0.0,0.0,1.0,0,,,0.0,0.0,0.0,0.0,0.0,0.0,0.0,0.0,0.0,0.0,0.0,0.0,1.0,0,,,0,0,0,0,0,0,0,0,0,0,0,0,0,0,0,0,0,0,0,,,0,0,0,0,0,0,0,0,0,0,0,0,0,0,0,0,0,0
1777533213.406582,185524,1777533199.0705628,,,0,0,,,0,0,0,0,0,0,0.0,0.0,0.0,0.0,0.0,0.0,0.0,0.0,0.0,0.0,0.0,0.0,0.0,0.0,0.0,0.0,0.0,0.0,0.0,0.0,0.0,0.0,0.0,0.0,0.0,0.0,0.0,35.48279535330561,550.8152933877611,862.746166189639,122.39646102700743,540.8207726257712,857.2554397709794,37.2966211417406,325.29113503220304,913.6186665120129,121.90278695838184,328.87571359687956,912.0442422574811,-117.55637235795864,481.96042320747915,719.3795972534461,-81.67195485197844,544.6228158812529,428.87111585860873,-101.52290343020655,510.7440018681271,195.66794139980968,-71.34883375254884,489.19329403439735,68.05154993782797,-16.430230066105267,421.41353253621,43.575177246418505,-19.573253888777707,691.5479216061636,60.59788281137525,237.95596550824632,428.3324209545984,692.1989909458982,205.55261375933486,382.25215650995784,400.4087657549971,207.96540127320475,323.13725761550415,228.4486393851003,158.96234163666318,265.41460624188414,68.45299434637893,105.51362994091129,200.89741624541503,43.10514685561514,134.44398538751767,463.0035353960037,56.49390044332916,0,,,0.0,0.0,0.0,0.0,0.0,0.0,0.0,0.0,0.0,0.0,0.0,0.0,1.0,0,,,0.0,0.0,0.0,0.0,0.0,0.0,0.0,0.0,0.0,0.0,0.0,0.0,1.0,0,,,0.0,0.0,0.0,0.0,0.0,0.0,0.0,0.0,0.0,0.0,0.0,0.0,1.0,0,,,0.0,0.0,0.0,0.0,0.0,0.0,0.0,0.0,0.0,0.0,0.0,0.0,1.0,0,,,0.0,0.0,0.0,0.0,0.0,0.0,0.0,0.0,0.0,0.0,0.0,0.0,1.0,0,,,0.0,0.0,0.0,0.0,0.0,0.0,0.0,0.0,0.0,0.0,0.0,0.0,1.0,0,,,0.0,0.0,0.0,0.0,0.0,0.0,0.0,0.0,0.0,0.0,0.0,0.0,1.0,0,,,0,0,0,0,0,0,0,0,0,0,0,0,0,0,0,0,0,0,0,,,0,0,0,0,0,0,0,0,0,0,0,0,0,0,0,0,0,0
1777533213.4075825,185525,1777533199.0835674,1777533199.0825682,,0,0,1.9989013671875,,1,0,2,0,0,0,0.0,0.0,0.0,0.0,0.0,0.0,0.0,0.0,0.0,0.0,0.0,0.0,0.0,0.0,0.0,0.0,0.0,0.0,0.0,0.0,0.0,0.0,0.0,0.0,0.0,0.0,0.0,34.03254423917463,552.797750781479,862.4466863703424,120.93493704190752,542.4867910712928,857.1039274914338,35.431050989719076,327.1249125207425,913.3745027540556,119.94033296103761,330.58218890626483,911.8569711964983,-118.66076672878405,483.8851663094353,718.8183836791534,-82.09377632308272,545.6854883445804,428.20031624663176,-101.66270759862762,510.103897989929,195.1473553699723,-71.31948469290795,487.51222730931886,68.02831445680258,-16.54189770881269,419.7270618282853,43.35843189663259,-19.61544368034645,689.8182193634647,60.380111207072005,236.44216104733644,429.27510214758354,692.1471708824905,204.3648546761563,382.4822690525409,400.44619273314936,207.21430679583952,322.1344210875632,228.92286425057387,158.26825498489134,263.80557016615546,68.43171733763558,105.30480431169158,199.2476316158975,43.34861981970121,134.35976635128634,461.2367359688568,56.47752075757686,0,,,0.0,0.0,0.0,0.0,0.0,0.0,0.0,0.0,0.0,0.0,0.0,0.0,1.0,0,,,0.0,0.0,0.0,0.0,0.0,0.0,0.0,0.0,0.0,0.0,0.0,0.0,1.0,0,,,0.0,0.0,0.0,0.0,0.0,0.0,0.0,0.0,0.0,0.0,0.0,0.0,1.0,0,,,0.0,0.0,0.0,0.0,0.0,0.0,0.0,0.0,0.0,0.0,0.0,0.0,1.0,0,,,0.0,0.0,0.0,0.0,0.0,0.0,0.0,0.0,0.0,0.0,0.0,0.0,1.0,1,1777533199.0825682,0.9992122650146484,2.115,9.4076,-2.6558,20.0806,-10.9253,-10.8032,108.858,-8.8495,-155.3961,0.2166,0.7828,-0.58,0.0623,1,1777533199.0815685,1.9989013671875,1.3255,1.6652,9.8,0.9766,0.5493,-0.1831,9.7339,-5.9711,145.2448,-0.0242,-0.0964,0.9483,0.3014,0,,,0,0,0,0,0,0,0,0,0,0,0,0,0,0,0,0,0,0,0,,,0,0,0,0,0,0,0,0,0,0,0,0,0,0,0,0,0,0
1777533213.4075825,185526,1777533199.0898788,1777533199.0825682,,0,0,8.310317993164062,,1,0,2,0,0,0,0.0,0.0,0.0,0.0,0.0,0.0,0.0,0.0,0.0,0.0,0.0,0.0,0.0,0.0,0.0,0.0,0.0,0.0,0.0,0.0,0.0,0.0,0.0,0.0,0.0,0.0,0.0,32.67526110019569,554.7850742369368,862.0706624737331,119.53411741682743,544.1042235513718,856.8575632149207,33.257287963957225,329.0525256408329,913.0044719777416,117.77591581059073,332.18436978881533,911.5338224623179,-119.82849661684988,485.8413261433646,718.2709024563236,-82.33517561613152,546.6433123769312,427.46836066419957,-101.86453144632499,509.4580894156226,194.52756570143876,-71.18184351763259,485.784467993361,67.70747061236096,-16.561309954968547,417.92992874647354,43.24407693598872,-19.712728987854902,688.1251719674583,60.267038924927206,235.03908890779974,430.3097404980813,692.0314016018614,203.2634272327809,382.95596342656523,400.39277020365085,206.45083387062633,321.2600446319795,229.39641127662466,158.0241555396659,262.2344178108777,68.7595344896238,105.15584951210076,197.53482681699404,43.53790785413159,134.20167405536495,459.48914999636173,56.504049322521126,0,,,0.0,0.0,0.0,0.0,0.0,0.0,0.0,0.0,0.0,0.0,0.0,0.0,1.0,0,,,0.0,0.0,0.0,0.0,0.0,0.0,0.0,0.0,0.0,0.0,0.0,0.0,1.0,0,,,0.0,0.0,0.0,0.0,0.0,0.0,0.0,0.0,0.0,0.0,0.0,0.0,1.0,0,,,0.0,0.0,0.0,0.0,0.0,0.0,0.0,0.0,0.0,0.0,0.0,0.0,1.0,0,,,0.0,0.0,0.0,0.0,0.0,0.0,0.0,0.0,0.0,0.0,0.0,0.0,1.0,1,1777533199.0825682,7.310628890991211,2.115,9.4076,-2.6558,20.0806,-10.9253,-10.8032,108.858,-8.8495,-155.3961,0.2166,0.7828,-0.58,0.0623,1,1777533199.0815685,8.310317993164062,1.3255,1.6652,9.8,0.9766,0.5493,-0.1831,9.7339,-5.9711,145.2448,-0.0242,-0.0964,0.9483,0.3014,0,,,0,0,0,0,0,0,0,0,0,0,0,0,0,0,0,0,0,0,0,,,0,0,0,0,0,0,0,0,0,0,0,0,0,0,0,0,0,0
1777533213.4075825,185527,1777533199.100886,1777533199.0825682,,0,0,19.317626953125,,1,0,2,0,0,0,0.0,0.0,0.0,0.0,0.0,0.0,0.0,0.0,0.0,0.0,0.0,0.0,0.0,0.0,0.0,0.0,0.0,0.0,0.0,0.0,0.0,0.0,0.0,0.0,0.0,0.0,0.0,31.386670300938793,556.6286061844087,861.6333139281087,118.20526026636159,545.738179712897,856.6335297106953,31.314429631748535,330.83509315889233,912.5915989272326,115.79061216252467,333.7072777431079,911.1999455280803,-120.8851333476912,487.6111104219116,717.8300075398045,-82.80588613540681,547.3675398635698,426.79005633498014,-101.84755342094886,508.6388985341783,193.87446229552424,-71.25383783537923,484.06203945424915,67.57450790161751,-16.59690848401125,416.13656688747136,43.059040144227886,-19.65843771882936,686.4487197332362,60.10385011143208,233.6112014093232,431.3414612018338,691.8024799372323,202.33133634352788,383.98003748864284,400.4483184994862,205.70587037640726,320.57674484068826,229.81357938944765,157.8920411611726,260.643558798191,69.03017227659987,104.97048023888092,195.98805441155247,43.82707181771222,134.01395053462068,457.9510442299124,56.59193593324213,0,,,0.0,0.0,0.0,0.0,0.0,0.0,0.0,0.0,0.0,0.0,0.0,0.0,1.0,0,,,0.0,0.0,0.0,0.0,0.0,0.0,0.0,0.0,0.0,0.0,0.0,0.0,1.0,0,,,0.0,0.0,0.0,0.0,0.0,0.0,0.0,0.0,0.0,0.0,0.0,0.0,1.0,0,,,0.0,0.0,0.0,0.0,0.0,0.0,0.0,0.0,0.0,0.0,0.0,0.0,1.0,0,,,0.0,0.0,0.0,0.0,0.0,0.0,0.0,0.0,0.0,0.0,0.0,0.0,1.0,1,1777533199.0825682,18.31793785095215,2.115,9.4076,-2.6558,20.0806,-10.9253,-10.8032,108.858,-8.8495,-155.3961,0.2166,0.7828,-0.58,0.0623,1,1777533199.0815685,19.317626953125,1.3255,1.6652,9.8,0.9766,0.5493,-0.1831,9.7339,-5.9711,145.2448,-0.0242,-0.0964,0.9483,0.3014,0,,,0,0,0,0,0,0,0,0,0,0,0,0,0,0,0,0,0,0,0,,,0,0,0,0,0,0,0,0,0,0,0,0,0,0,0,0,0,0
1777533213.4075825,185528,1777533199.110398,,,0,0,,,0,0,0,0,0,0,0.0,0.0,0.0,0.0,0.0,0.0,0.0,0.0,0.0,0.0,0.0,0.0,0.0,0.0,0.0,0.0,0.0,0.0,0.0,0.0,0.0,0.0,0.0,0.0,0.0,0.0,0.0,30.14458320893568,558.4513502045177,861.2297067478647,116.98122098239408,547.311915392109,856.3815946323617,29.40186091893823,332.5291489559748,912.1722120610247,113.87903835844094,335.3061238010112,910.8011262861087,-121.8408874953202,489.5333217933072,717.3940643570992,-83.37503125755339,548.0725259452828,426.1163210895838,-102.0903757657116,507.8549530395523,193.3165023952463,-71.45798827954947,482.3909173883184,67.52237449964403,-16.69044757204594,414.40069643976045,42.8602638836604,-19.748028951660157,684.7317606630518,60.050360390353134,232.14898406290143,432.41240962290465,691.6012811447748,201.16312909412522,384.8001892245471,400.0276905960477,204.9095484357999,320.02152062182597,230.18445094763888,157.6030022735717,259.19603692572076,69.41382083287978,104.88209134205628,194.31743047040652,44.20388622275164,133.91860029467657,456.2743545114654,56.54288009152198,0,,,0.0,0.0,0.0,0.0,0.0,0.0,0.0,0.0,0.0,0.0,0.0,0.0,1.0,0,,,0.0,0.0,0.0,0.0,0.0,0.0,0.0,0.0,0.0,0.0,0.0,0.0,1.0,0,,,0.0,0.0,0.0,0.0,0.0,0.0,0.0,0.0,0.0,0.0,0.0,0.0,1.0,0,,,0.0,0.0,0.0,0.0,0.0,0.0,0.0,0.0,0.0,0.0,0.0,0.0,1.0,0,,,0.0,0.0,0.0,0.0,0.0,0.0,0.0,0.0,0.0,0.0,0.0,0.0,1.0,0,,,0.0,0.0,0.0,0.0,0.0,0.0,0.0,0.0,0.0,0.0,0.0,0.0,1.0,0,,,0.0,0.0,0.0,0.0,0.0,0.0,0.0,0.0,0.0,0.0,0.0,0.0,1.0,0,,,0,0,0,0,0,0,0,0,0,0,0,0,0,0,0,0,0,0,0,,,0,0,0,0,0,0,0,0,0,0,0,0,0,0,0,0,0,0
1777533213.408582,185529,1777533199.120397,,,0,0,,,0,0,0,0,0,0,0.0,0.0,0.0,0.0,0.0,0.0,0.0,0.0,0.0,0.0,0.0,0.0,0.0,0.0,0.0,0.0,0.0,0.0,0.0,0.0,0.0,0.0,0.0,0.0,0.0,0.0,0.0,29.00078882695965,560.2603675563391,860.79934403025,115.81307230300116,548.834877370268,856.1308171322981,27.455107490807926,334.29712891949254,911.7212746351902,111.93729254357446,336.6851433571905,910.2690653404583,-122.91214862571492,491.4875113728256,716.9037427960858,-83.97553093410755,548.7158018217464,425.3926963207653,-102.44189428375984,506.95050292676706,192.72807899758192,-71.04498906401594,480.28419212352424,67.34655262843063,-16.83602523397194,412.72285179416576,42.669346138136895,-19.867386402418255,683.0567386632201,60.033167116900174,230.79950913215896,433.5604959838187,691.3278202387476,200.21253839798004,386.00235289527643,399.75373209355246,204.2386069922841,319.6407836463562,230.55757794610054,157.04940594315445,257.58945953892993,69.58408751037709,104.60422202638996,192.85606519146054,44.4632882082117,133.8210143275184,454.5919865012752,56.564879936014364,0,,,0.0,0.0,0.0,0.0,0.0,0.0,0.0,0.0,0.0,0.0,0.0,0.0,1.0,0,,,0.0,0.0,0.0,0.0,0.0,0.0,0.0,0.0,0.0,0.0,0.0,0.0,1.0,0,,,0.0,0.0,0.0,0.0,0.0,0.0,0.0,0.0,0.0,0.0,0.0,0.0,1.0,0,,,0.0,0.0,0.0,0.0,0.0,0.0,0.0,0.0,0.0,0.0,0.0,0.0,1.0,0,,,0.0,0.0,0.0,0.0,0.0,0.0,0.0,0.0,0.0,0.0,0.0,0.0,1.0,0,,,0.0,0.0,0.0,0.0,0.0,0.0,0.0,0.0,0.0,0.0,0.0,0.0,1.0,0,,,0.0,0.0,0.0,0.0,0.0,0.0,0.0,0.0,0.0,0.0,0.0,0.0,1.0,0,,,0,0,0,0,0,0,0,0,0,0,0,0,0,0,0,0,0,0,0,,,0,0,0,0,0,0,0,0,0,0,0,0,0,0,0,0,0,0
1777533213.408582,185530,1777533199.1303966,,,0,0,,,0,0,0,0,0,0,0.0,0.0,0.0,0.0,0.0,0.0,0.0,0.0,0.0,0.0,0.0,0.0,0.0,0.0,0.0,0.0,0.0,0.0,0.0,0.0,0.0,0.0,0.0,0.0,0.0,0.0,0.0,27.864377723786962,561.9567208357953,860.4857586472361,114.68361920790917,550.3810501123568,855.9370947191886,25.7123535888303,335.8925231519089,911.419266250831,110.1291948121644,338.10850455929057,909.9033093010482,-123.92790636067215,493.1569257156254,716.4934992597839,-84.67459313892172,549.2379319895686,424.746538372131,-102.71738722520506,506.08634992165366,192.26990525828745,-71.15865021995879,478.50883846345954,67.20631403303649,-16.920613333446205,410.96323146011684,42.48984578773803,-19.96301491444927,681.3311752357912,59.96681050511806,229.48463027531744,434.7752918934064,691.016823248424,199.21022562198695,387.3556056759769,399.38094315190847,203.47414250661592,319.2816285465824,230.85558470155289,156.80258631297698,256.1454362895575,70.03342617725512,104.32460660668475,191.27088663087346,44.70654202484949,133.56685496210014,453.0367256632796,56.51479601057778,0,,,0.0,0.0,0.0,0.0,0.0,0.0,0.0,0.0,0.0,0.0,0.0,0.0,1.0,0,,,0.0,0.0,0.0,0.0,0.0,0.0,0.0,0.0,0.0,0.0,0.0,0.0,1.0,0,,,0.0,0.0,0.0,0.0,0.0,0.0,0.0,0.0,0.0,0.0,0.0,0.0,1.0,0,,,0.0,0.0,0.0,0.0,0.0,0.0,0.0,0.0,0.0,0.0,0.0,0.0,1.0,0,,,0.0,0.0,0.0,0.0,0.0,0.0,0.0,0.0,0.0,0.0,0.0,0.0,1.0,0,,,0.0,0.0,0.0,0.0,0.0,0.0,0.0,0.0,0.0,0.0,0.0,0.0,1.0,0,,,0.0,0.0,0.0,0.0,0.0,0.0,0.0,0.0,0.0,0.0,0.0,0.0,1.0,0,,,0,0,0,0,0,0,0,0,0,0,0,0,0,0,0,0,0,0,0,,,0,0,0,0,0,0,0,0,0,0,0,0,0,0,0,0,0,0
1777533213.408582,185531,1777533199.1401546,,,0,0,,,0,0,0,0,0,0,0.0,0.0,0.0,0.0,0.0,0.0,0.0,0.0,0.0,0.0,0.0,0.0,0.0,0.0,0.0,0.0,0.0,0.0,0.0,0.0,0.0,0.0,0.0,0.0,0.0,0.0,0.0,26.728990056274363,563.5568131627078,860.2012259321162,113.57478939001855,551.836404720494,855.7635498069669,24.035624199897573,337.4355601820748,911.0727439360217,108.5193254364526,339.42791614453,909.6034296634421,-124.97548859772964,494.8793060699729,716.1284435039381,-85.24850730110734,549.7588178697505,424.08558893242247,-103.07289224736509,505.28332136273434,191.65666669982156,-71.59796568488103,476.93959111886073,67.14810252448147,-17.14114651698266,409.27133046784553,42.33255219091788,-20.15587676325005,679.5463844336322,59.94621392316221,228.12847075306013,435.99699501744385,690.731352817112,198.40423119187466,388.91335628812413,399.1042105140438,202.79751462414535,319.07279422581126,231.2869664241259,156.56661016274577,254.7536429800675,70.47851465059694,104.31332331157077,189.64469993036064,45.1450509867339,133.49520210057042,451.38658468579433,56.41507890922023,0,,,0.0,0.0,0.0,0.0,0.0,0.0,0.0,0.0,0.0,0.0,0.0,0.0,1.0,0,,,0.0,0.0,0.0,0.0,0.0,0.0,0.0,0.0,0.0,0.0,0.0,0.0,1.0,0,,,0.0,0.0,0.0,0.0,0.0,0.0,0.0,0.0,0.0,0.0,0.0,0.0,1.0,0,,,0.0,0.0,0.0,0.0,0.0,0.0,0.0,0.0,0.0,0.0,0.0,0.0,1.0,0,,,0.0,0.0,0.0,0.0,0.0,0.0,0.0,0.0,0.0,0.0,0.0,0.0,1.0,0,,,0.0,0.0,0.0,0.0,0.0,0.0,0.0,0.0,0.0,0.0,0.0,0.0,1.0,0,,,0.0,0.0,0.0,0.0,0.0,0.0,0.0,0.0,0.0,0.0,0.0,0.0,1.0,0,,,0,0,0,0,0,0,0,0,0,0,0,0,0,0,0,0,0,0,0,,,0,0,0,0,0,0,0,0,0,0,0,0,0,0,0,0,0,0
1777533213.408582,185532,1777533199.1510038,,,0,0,,,0,0,0,0,0,0,0.0,0.0,0.0,0.0,0.0,0.0,0.0,0.0,0.0,0.0,0.0,0.0,0.0,0.0,0.0,0.0,0.0,0.0,0.0,0.0,0.0,0.0,0.0,0.0,0.0,0.0,0.0,25.609694270571758,565.0811743764722,859.9812149943523,112.43783358864684,553.2734835589546,855.6556644378402,22.38144376006053,338.9245498264016,910.7281707822691,106.9598019814848,340.869361658763,909.3591518797106,-125.90667242927292,496.48235987219056,715.7285743514537,-85.91739830617337,550.2688152640627,423.46575774407216,-103.53783370440544,504.6768125502897,191.15585828839727,-71.677236414469,475.1820460987461,66.80039992882504,-17.361149566736728,407.54903148915173,42.260038241685,-20.252796135248353,677.8599869655579,59.96345097406063,226.78796758128306,437.2582329772932,690.4197390672324,197.51274167010376,390.6133271456358,398.70158239517673,202.16260495210597,318.9377272508128,231.7701256605548,156.25301914258247,253.2816675780868,70.828782371499,103.82359156990988,188.00841898843336,45.639429611414535,133.32792241258971,449.9412086347704,56.46737371226043,0,,,0.0,0.0,0.0,0.0,0.0,0.0,0.0,0.0,0.0,0.0,0.0,0.0,1.0,0,,,0.0,0.0,0.0,0.0,0.0,0.0,0.0,0.0,0.0,0.0,0.0,0.0,1.0,0,,,0.0,0.0,0.0,0.0,0.0,0.0,0.0,0.0,0.0,0.0,0.0,0.0,1.0,0,,,0.0,0.0,0.0,0.0,0.0,0.0,0.0,0.0,0.0,0.0,0.0,0.0,1.0,0,,,0.0,0.0,0.0,0.0,0.0,0.0,0.0,0.0,0.0,0.0,0.0,0.0,1.0,0,,,0.0,0.0,0.0,0.0,0.0,0.0,0.0,0.0,0.0,0.0,0.0,0.0,1.0,0,,,0.0,0.0,0.0,0.0,0.0,0.0,0.0,0.0,0.0,0.0,0.0,0.0,1.0,0,,,0,0,0,0,0,0,0,0,0,0,0,0,0,0,0,0,0,0,0,,,0,0,0,0,0,0,0,0,0,0,0,0,0,0,0,0,0,0
1777533213.408582,185533,1777533199.1635187,1777533199.1635187,,0,0,0.0,,1,0,2,0,0,0,0.0,0.0,0.0,0.0,0.0,0.0,0.0,0.0,0.0,0.0,0.0,0.0,0.0,0.0,0.0,0.0,0.0,0.0,0.0,0.0,0.0,0.0,0.0,0.0,0.0,0.0,0.0,24.43979593004693,566.5455272391304,859.7903683305111,111.2924155367524,554.5305236793854,855.5630083926806,20.910424571726885,340.3520978991705,910.5322784670526,105.53034723179212,342.0463424730238,909.2185999462416,-126.86280839329106,497.99290994260014,715.3932026632341,-86.48343986432884,550.8786443181199,422.83304789649907,-103.8917323881193,504.2642845377419,190.6913624890022,-72.0558423229664,473.6845768940251,66.77828402796081,-17.501583401739335,405.88638759830064,42.13669698769157,-20.353170815279437,676.3223395883404,59.9129107607604,225.49434786843142,438.5084832530643,690.1524501726594,196.7799633105203,392.46299728080686,398.3584663697021,201.45717850820463,318.7381062613422,232.23518750643981,155.96676787302087,251.9645180707229,71.33325134186279,103.58667908070065,186.6300537663794,46.208652406323196,133.15994482508012,448.372952176575,56.352798769246554,0,,,0.0,0.0,0.0,0.0,0.0,0.0,0.0,0.0,0.0,0.0,0.0,0.0,1.0,0,,,0.0,0.0,0.0,0.0,0.0,0.0,0.0,0.0,0.0,0.0,0.0,0.0,1.0,0,,,0.0,0.0,0.0,0.0,0.0,0.0,0.0,0.0,0.0,0.0,0.0,0.0,1.0,0,,,0.0,0.0,0.0,0.0,0.0,0.0,0.0,0.0,0.0,0.0,0.0,0.0,1.0,0,,,0.0,0.0,0.0,0.0,0.0,0.0,0.0,0.0,0.0,0.0,0.0,0.0,1.0,1,1777533199.1635187,0.0,0.5216,8.8765,-1.2681,39.4897,-35.7666,-7.6294,111.7749,-7.0093,-157.4725,0.195,0.8038,-0.5589,0.0597,1,1777533199.1635187,0.0,0.9044,1.4595,9.6804,-0.9155,3.2959,-1.1597,9.5966,-5.7074,145.2118,-0.0224,-0.0946,0.9485,0.3015,0,,,0,0,0,0,0,0,0,0,0,0,0,0,0,0,0,0,0,0,0,,,0,0,0,0,0,0,0,0,0,0,0,0,0,0,0,0,0,0
1777533213.408582,185534,1777533199.170678,1777533199.1635187,,0,0,7.159233093261719,,1,0,2,0,0,0,0.0,0.0,0.0,0.0,0.0,0.0,0.0,0.0,0.0,0.0,0.0,0.0,0.0,0.0,0.0,0.0,0.0,0.0,0.0,0.0,0.0,0.0,0.0,0.0,0.0,0.0,0.0,23.249341286472205,567.8637489268592,859.6036047306413,110.04544399050744,555.7958964785043,855.510350710442,19.512175506418803,341.6466537200482,910.2827206499084,103.9036556869401,343.2335301764856,909.1287150414913,-127.88298311025699,499.51859992683467,715.1159635876274,-86.85378842729972,551.4491690337171,422.296633911491,-104.24500484331267,503.69944914207974,190.27018834563174,-72.22244167174757,471.97890825237766,66.67687160061952,-17.670167538010507,404.2079927392948,42.12880525342932,-20.48025009940888,674.6314235613077,59.86541665246728,224.28703604098513,439.76803223062893,689.8802095475957,196.10382295280658,394.46817417067865,397.99571727734303,200.8840790579527,318.7628014387929,232.8848425123226,155.73201725567014,250.71630309578603,71.91387590299612,103.29676995699468,185.2502245210299,46.87694572751552,133.11116425073183,446.9695474570997,56.37767990975481,0,,,0.0,0.0,0.0,0.0,0.0,0.0,0.0,0.0,0.0,0.0,0.0,0.0,1.0,0,,,0.0,0.0,0.0,0.0,0.0,0.0,0.0,0.0,0.0,0.0,0.0,0.0,1.0,0,,,0.0,0.0,0.0,0.0,0.0,0.0,0.0,0.0,0.0,0.0,0.0,0.0,1.0,0,,,0.0,0.0,0.0,0.0,0.0,0.0,0.0,0.0,0.0,0.0,0.0,0.0,1.0,0,,,0.0,0.0,0.0,0.0,0.0,0.0,0.0,0.0,0.0,0.0,0.0,0.0,1.0,1,1777533199.1635187,7.159233093261719,0.5216,8.8765,-1.2681,39.4897,-35.7666,-7.6294,111.7749,-7.0093,-157.4725,0.195,0.8038,-0.5589,0.0597,1,1777533199.1635187,7.159233093261719,0.9044,1.4595,9.6804,-0.9155,3.2959,-1.1597,9.5966,-5.7074,145.2118,-0.0224,-0.0946,0.9485,0.3015,0,,,0,0,0,0,0,0,0,0,0,0,0,0,0,0,0,0,0,0,0,,,0,0,0,0,0,0,0,0,0,0,0,0,0,0,0,0,0,0
1777533213.409582,185535,1777533199.1807587,1777533199.1635187,,0,0,17.240047454833984,,1,0,2,0,0,0,0.0,0.0,0.0,0.0,0.0,0.0,0.0,0.0,0.0,0.0,0.0,0.0,0.0,0.0,0.0,0.0,0.0,0.0,0.0,0.0,0.0,0.0,0.0,0.0,0.0,0.0,0.0,22.080035653555,569.1578654298927,859.4705508219802,108.84369751374778,556.853201781382,855.4862495691929,18.108379113281302,342.8916650069433,910.1845559399945,102.35179616019927,344.34225384628553,908.9973528673233,-128.7004818398048,500.8882285586123,714.8350919883444,-87.26014126377613,552.0710495116556,421.8432686915933,-104.50247491237822,503.2681684851274,189.84207545154285,-72.31525253601652,470.2176387029358,66.55378773855098,-17.870696205406716,402.63685687361243,42.13727522367129,-20.62001269480378,672.9648218380764,59.86123506809021,222.96789526215412,440.99031437359326,689.6909635303095,195.6064764656051,396.755421653974,397.6863388694602,200.28825972779333,318.86011251048325,233.57981120095027,155.4119374799915,249.4944611197133,72.7022556018906,103.08629783470123,184.0237672823722,48.02570479898606,133.00086750255292,445.593012249284,56.218538355774946,0,,,0.0,0.0,0.0,0.0,0.0,0.0,0.0,0.0,0.0,0.0,0.0,0.0,1.0,0,,,0.0,0.0,0.0,0.0,0.0,0.0,0.0,0.0,0.0,0.0,0.0,0.0,1.0,0,,,0.0,0.0,0.0,0.0,0.0,0.0,0.0,0.0,0.0,0.0,0.0,0.0,1.0,0,,,0.0,0.0,0.0,0.0,0.0,0.0,0.0,0.0,0.0,0.0,0.0,0.0,1.0,0,,,0.0,0.0,0.0,0.0,0.0,0.0,0.0,0.0,0.0,0.0,0.0,0.0,1.0,1,1777533199.1635187,17.240047454833984,0.5216,8.8765,-1.2681,39.4897,-35.7666,-7.6294,111.7749,-7.0093,-157.4725,0.195,0.8038,-0.5589,0.0597,1,1777533199.1635187,17.240047454833984,0.9044,1.4595,9.6804,-0.9155,3.2959,-1.1597,9.5966,-5.7074,145.2118,-0.0224,-0.0946,0.9485,0.3015,0,,,0,0,0,0,0,0,0,0,0,0,0,0,0,0,0,0,0,0,0,,,0,0,0,0,0,0,0,0,0,0,0,0,0,0,0,0,0,0
1777533213.409582,185536,1777533199.1908703,,,0,0,,,0,0,0,0,0,0,0.0,0.0,0.0,0.0,0.0,0.0,0.0,0.0,0.0,0.0,0.0,0.0,0.0,0.0,0.0,0.0,0.0,0.0,0.0,0.0,0.0,0.0,0.0,0.0,0.0,0.0,0.0,20.89971206521843,570.2717966779921,859.4118840631061,107.64331566886064,557.8449443551209,855.5686275753267,16.484892163217648,343.99474654864275,910.1645029171212,101.13963357451465,345.27637208058223,909.0466271868725,-129.63744226576296,502.19227886939916,714.428081209493,-87.51435543665727,552.4633103975066,421.35728130190483,-104.85899380839979,502.8037299908689,189.44559789006175,-72.6543478091477,468.67033225130376,66.56764278180401,-17.961081941664318,401.04097555192305,42.028202775247614,-20.619017518344954,671.3146933002035,59.718438527123126,221.70422830512024,442.2643267642583,689.5562487791328,195.07679704735375,399.1850632394177,397.5379827696551,199.72467519345156,319.1691094308051,234.35268398025394,155.1024534123761,248.4124015939541,73.6794331712471,103.067857265556,182.87248045820346,49.48741589114782,133.03080268859435,444.23753187068337,56.04873716548352,0,,,0.0,0.0,0.0,0.0,0.0,0.0,0.0,0.0,0.0,0.0,0.0,0.0,1.0,0,,,0.0,0.0,0.0,0.0,0.0,0.0,0.0,0.0,0.0,0.0,0.0,0.0,1.0,0,,,0.0,0.0,0.0,0.0,0.0,0.0,0.0,0.0,0.0,0.0,0.0,0.0,1.0,0,,,0.0,0.0,0.0,0.0,0.0,0.0,0.0,0.0,0.0,0.0,0.0,0.0,1.0,0,,,0.0,0.0,0.0,0.0,0.0,0.0,0.0,0.0,0.0,0.0,0.0,0.0,1.0,0,,,0.0,0.0,0.0,0.0,0.0,0.0,0.0,0.0,0.0,0.0,0.0,0.0,1.0,0,,,0.0,0.0,0.0,0.0,0.0,0.0,0.0,0.0,0.0,0.0,0.0,0.0,1.0,0,,,0,0,0,0,0,0,0,0,0,0,0,0,0,0,0,0,0,0,0,,,0,0,0,0,0,0,0,0,0,0,0,0,0,0,0,0,0,0
1777533213.409582,185537,1777533199.200186,,,0,0,,,0,0,0,0,0,0,0.0,0.0,0.0,0.0,0.0,0.0,0.0,0.0,0.0,0.0,0.0,0.0,0.0,0.0,0.0,0.0,0.0,0.0,0.0,0.0,0.0,0.0,0.0,0.0,0.0,0.0,0.0,19.767511341559402,571.3847018376657,859.3789014185289,106.49217833591725,558.6945205831221,855.6997684532098,15.142082063900382,344.91700415316285,910.1281556801987,99.55259980700278,346.1639056200901,909.0643018389426,-130.45968914896952,503.3203578651067,714.1846415949824,-87.85391958987493,552.6043509916836,420.90720432315084,-105.09351679150306,502.0516541146414,189.15858773643873,-72.65836635994265,466.99867552222975,66.43568270900512,-18.016357456369747,399.41295452330246,42.029354957973325,-20.706914723975373,669.5992149260709,59.79206936445112,220.47307523330525,443.575908727421,689.4621048311295,194.89772440104673,402.30080754370965,397.5126356763968,199.19291648999948,319.6958658608546,235.2025901784119,155.06289043979712,246.99059333591364,74.89487440174393,102.46597350602062,181.88204736714232,51.300781294297884,132.97809704245384,443.123707223794,55.86381979993548,0,,,0.0,0.0,0.0,0.0,0.0,0.0,0.0,0.0,0.0,0.0,0.0,0.0,1.0,0,,,0.0,0.0,0.0,0.0,0.0,0.0,0.0,0.0,0.0,0.0,0.0,0.0,1.0,0,,,0.0,0.0,0.0,0.0,0.0,0.0,0.0,0.0,0.0,0.0,0.0,0.0,1.0,0,,,0.0,0.0,0.0,0.0,0.0,0.0,0.0,0.0,0.0,0.0,0.0,0.0,1.0,0,,,0.0,0.0,0.0,0.0,0.0,0.0,0.0,0.0,0.0,0.0,0.0,0.0,1.0,0,,,0.0,0.0,0.0,0.0,0.0,0.0,0.0,0.0,0.0,0.0,0.0,0.0,1.0,0,,,0.0,0.0,0.0,0.0,0.0,0.0,0.0,0.0,0.0,0.0,0.0,0.0,1.0,0,,,0,0,0,0,0,0,0,0,0,0,0,0,0,0,0,0,0,0,0,,,0,0,0,0,0,0,0,0,0,0,0,0,0,0,0,0,0,0
1777533213.409582,185538,1777533199.2109203,,,0,0,,,0,0,0,0,0,0,0.0,0.0,0.0,0.0,0.0,0.0,0.0,0.0,0.0,0.0,0.0,0.0,0.0,0.0,0.0,0.0,0.0,0.0,0.0,0.0,0.0,0.0,0.0,0.0,0.0,0.0,0.0,18.708506685039104,572.3925833325399,859.4072982425218,105.37049021696157,559.4808139862633,855.929111325981,13.737838084217051,346.0004542834781,910.0315570081136,98.32044797119454,346.95365872735675,909.2159000120369,-131.26447695810026,504.4287156395045,713.9575126495995,-88.21529738580794,552.6033587113749,420.4571031564677,-105.2537941653398,500.97163567030987,188.82539292681443,-72.68359142291692,465.2680066819792,66.48745813403933,-17.93553495754984,397.90389881830663,41.8929171626737,-20.833896894253904,667.9233680988787,59.709319734606886,219.23581045141077,444.88070409753914,689.4887276799609,194.31272291090355,405.0731610864366,397.03279309954263,198.70495928610262,320.5347569225489,236.19042343090888,154.48155167531903,246.32757992472955,76.2729317967171,101.70290159600918,180.99538449312303,53.3139628019785,133.03522817359112,442.0364539808703,55.56133376848519,0,,,0.0,0.0,0.0,0.0,0.0,0.0,0.0,0.0,0.0,0.0,0.0,0.0,1.0,0,,,0.0,0.0,0.0,0.0,0.0,0.0,0.0,0.0,0.0,0.0,0.0,0.0,1.0,0,,,0.0,0.0,0.0,0.0,0.0,0.0,0.0,0.0,0.0,0.0,0.0,0.0,1.0,0,,,0.0,0.0,0.0,0.0,0.0,0.0,0.0,0.0,0.0,0.0,0.0,0.0,1.0,0,,,0.0,0.0,0.0,0.0,0.0,0.0,0.0,0.0,0.0,0.0,0.0,0.0,1.0,0,,,0.0,0.0,0.0,0.0,0.0,0.0,0.0,0.0,0.0,0.0,0.0,0.0,1.0,0,,,0.0,0.0,0.0,0.0,0.0,0.0,0.0,0.0,0.0,0.0,0.0,0.0,1.0,0,,,0,0,0,0,0,0,0,0,0,0,0,0,0,0,0,0,0,0,0,,,0,0,0,0,0,0,0,0,0,0,0,0,0,0,0,0,0,0
1777533213.409582,185539,1777533199.2204309,,,0,0,,,0,0,0,0,0,0,0.0,0.0,0.0,0.0,0.0,0.0,0.0,0.0,0.0,0.0,0.0,0.0,0.0,0.0,0.0,0.0,0.0,0.0,0.0,0.0,0.0,0.0,0.0,0.0,0.0,0.0,0.0,17.73859853029066,573.271957710093,859.5027940006432,104.36949911361006,560.1207864275331,856.2483187190247,12.102497637903557,346.93712353932904,909.9834195171385,96.59963326882543,347.6042833341002,909.3209694137287,-132.044032461115,505.3886554773327,713.6810060542448,-88.64191153930847,552.5763153893369,420.1201664953764,-105.46131103331803,499.91812606617657,188.69201882572102,-73.03666649563665,463.69758384628284,66.39379559338458,-17.871351241353295,396.5640632845115,41.79446580039694,-20.844705373715247,666.2158699175703,59.650758003243595,218.08349665014998,446.2566274437437,689.5223388640613,194.10578264302464,408.3417791007016,396.88226191624335,198.20759776429543,321.59028702462706,237.24557615719922,153.8860732414157,245.80749882019128,77.94400885052347,100.83073208933857,180.1906014966449,55.88573911581944,133.14107257797443,441.12968388120413,55.16205835666484,0,,,0.0,0.0,0.0,0.0,0.0,0.0,0.0,0.0,0.0,0.0,0.0,0.0,1.0,0,,,0.0,0.0,0.0,0.0,0.0,0.0,0.0,0.0,0.0,0.0,0.0,0.0,1.0,0,,,0.0,0.0,0.0,0.0,0.0,0.0,0.0,0.0,0.0,0.0,0.0,0.0,1.0,0,,,0.0,0.0,0.0,0.0,0.0,0.0,0.0,0.0,0.0,0.0,0.0,0.0,1.0,0,,,0.0,0.0,0.0,0.0,0.0,0.0,0.0,0.0,0.0,0.0,0.0,0.0,1.0,0,,,0.0,0.0,0.0,0.0,0.0,0.0,0.0,0.0,0.0,0.0,0.0,0.0,1.0,0,,,0.0,0.0,0.0,0.0,0.0,0.0,0.0,0.0,0.0,0.0,0.0,0.0,1.0,0,,,0,0,0,0,0,0,0,0,0,0,0,0,0,0,0,0,0,0,0,,,0,0,0,0,0,0,0,0,0,0,0,0,0,0,0,0,0,0
1777533213.4105809,185540,1777533199.2296488,,,0,0,,,0,0,0,0,0,0,0.0,0.0,0.0,0.0,0.0,0.0,0.0,0.0,0.0,0.0,0.0,0.0,0.0,0.0,0.0,0.0,0.0,0.0,0.0,0.0,0.0,0.0,0.0,0.0,0.0,0.0,0.0,17.615072428955155,575.3011299936154,859.2488002803409,103.424469248085,560.7346486302735,856.6805247951349,10.813435288331629,347.5817658098693,910.1106629255788,95.2489654335571,348.2570744294771,909.5151411833394,-132.7520483857106,505.97438959348096,713.3801599931202,-89.04013489573065,552.2845662712724,419.72681839390873,-105.75644766849042,498.64221965959274,188.43705524818333,-73.24317499518607,461.52790815843906,66.70490293531715,-17.74068642365692,395.13551232639696,41.691362285037,-20.98984038488919,664.5364330987547,59.6681024405689,216.9739939789353,447.73176798158113,689.6807165108717,193.92162658594137,411.86007248688185,396.7998712406042,197.75555718542134,322.9473546053078,238.42930087706486,153.24136371474296,245.43250116421524,79.92001318704672,99.78608483734233,179.82667440202817,58.818869100304376,133.36569560928044,440.4283008703103,54.713242379295366,0,,,0.0,0.0,0.0,0.0,0.0,0.0,0.0,0.0,0.0,0.0,0.0,0.0,1.0,0,,,0.0,0.0,0.0,0.0,0.0,0.0,0.0,0.0,0.0,0.0,0.0,0.0,1.0,0,,,0.0,0.0,0.0,0.0,0.0,0.0,0.0,0.0,0.0,0.0,0.0,0.0,1.0,0,,,0.0,0.0,0.0,0.0,0.0,0.0,0.0,0.0,0.0,0.0,0.0,0.0,1.0,0,,,0.0,0.0,0.0,0.0,0.0,0.0,0.0,0.0,0.0,0.0,0.0,0.0,1.0,0,,,0.0,0.0,0.0,0.0,0.0,0.0,0.0,0.0,0.0,0.0,0.0,0.0,1.0,0,,,0.0,0.0,0.0,0.0,0.0,0.0,0.0,0.0,0.0,0.0,0.0,0.0,1.0,0,,,0,0,0,0,0,0,0,0,0,0,0,0,0,0,0,0,0,0,0,,,0,0,0,0,0,0,0,0,0,0,0,0,0,0,0,0,0,0
1777533213.4105809,185541,1777533199.243657,1777533199.2426572,,0,0,0.9999275207519531,,1,0,2,0,0,0,0.0,0.0,0.0,0.0,0.0,0.0,0.0,0.0,0.0,0.0,0.0,0.0,0.0,0.0,0.0,0.0,0.0,0.0,0.0,0.0,0.0,0.0,0.0,0.0,0.0,0.0,0.0,16.009844063378594,574.7076682266537,859.7924369038531,102.55913051523429,561.231682582123,857.2121094492795,9.438692792307522,348.3732476956226,910.1393269679544,93.92321304395504,348.66621624914563,909.7673330783665,-133.4770191102437,506.62710433367323,713.0882208846266,-89.39632404934018,551.7720996099118,419.4268009622788,-105.91309993789476,497.3150678138015,188.35484973096337,-73.23137729241226,460.29127464947544,66.56980798506282,-18.29165455084427,392.7848646457986,41.92949728688244,-21.001071327707493,662.812205557198,59.65216838171976,215.98698434352167,449.3394527344191,690.0082293786573,193.89725495568538,415.58165582324324,396.79892940635375,197.32765370995637,324.53412470495186,239.68297011558565,152.23718293588666,245.11817995881512,81.92905463373778,98.42859442843128,179.41832089237457,62.06279705637955,133.70525373182537,439.7843035916002,54.23357954462446,0,,,0.0,0.0,0.0,0.0,0.0,0.0,0.0,0.0,0.0,0.0,0.0,0.0,1.0,0,,,0.0,0.0,0.0,0.0,0.0,0.0,0.0,0.0,0.0,0.0,0.0,0.0,1.0,0,,,0.0,0.0,0.0,0.0,0.0,0.0,0.0,0.0,0.0,0.0,0.0,0.0,1.0,0,,,0.0,0.0,0.0,0.0,0.0,0.0,0.0,0.0,0.0,0.0,0.0,0.0,1.0,0,,,0.0,0.0,0.0,0.0,0.0,0.0,0.0,0.0,0.0,0.0,0.0,0.0,1.0,1,1777533199.2426572,0.9999275207519531,0.0526,9.3311,-3.1151,60.9741,-44.2505,0.8545,115.3894,-5.8228,-159.5819,0.1763,0.8259,-0.5329,0.0524,1,1777533199.2426572,0.9999275207519531,0.9522,1.2824,9.9005,5.3711,3.479,-2.9297,9.7394,-5.5481,145.1404,-0.0206,-0.0953,0.9483,0.302,0,,,0,0,0,0,0,0,0,0,0,0,0,0,0,0,0,0,0,0,0,,,0,0,0,0,0,0,0,0,0,0,0,0,0,0,0,0,0,0
1777533213.4105809,185542,1777533199.2508807,1777533199.2426572,,0,0,8.223533630371094,,1,0,2,0,0,0,0.0,0.0,0.0,0.0,0.0,0.0,0.0,0.0,0.0,0.0,0.0,0.0,0.0,0.0,0.0,0.0,0.0,0.0,0.0,0.0,0.0,0.0,0.0,0.0,0.0,0.0,0.0,15.2419964428157,575.2598290938821,860.0242476200095,101.75328563172506,561.6303769561875,857.8254660329209,7.897517328053203,348.8226311568326,910.4041115653349,92.47706064035509,348.95662760261933,910.0791262988017,-133.98340883463752,507.0293578565539,712.921208776355,-89.7288703345439,551.239260562391,419.2241898330152,-106.06963861070395,495.92584774544065,188.1637166683621,-73.30047783640369,458.49596069573477,66.52522580340563,-18.424011157077448,391.07339501747185,41.982200227835065,-21.048082780671137,661.1040857793665,59.70901346854109,215.09700001836066,451.09516974846053,690.3490890610601,193.9301804152157,419.46960901758234,396.8645250347363,196.84685937238007,326.2796700413913,240.89202278611265,151.34568563442625,245.00074215029017,84.2320414934115,96.7787183340785,179.33370545897142,65.48117470584663,134.12627427365018,439.3804766091841,53.91852357731322,0,,,0.0,0.0,0.0,0.0,0.0,0.0,0.0,0.0,0.0,0.0,0.0,0.0,1.0,0,,,0.0,0.0,0.0,0.0,0.0,0.0,0.0,0.0,0.0,0.0,0.0,0.0,1.0,0,,,0.0,0.0,0.0,0.0,0.0,0.0,0.0,0.0,0.0,0.0,0.0,0.0,1.0,0,,,0.0,0.0,0.0,0.0,0.0,0.0,0.0,0.0,0.0,0.0,0.0,0.0,1.0,0,,,0.0,0.0,0.0,0.0,0.0,0.0,0.0,0.0,0.0,0.0,0.0,0.0,1.0,1,1777533199.2426572,8.223533630371094,0.0526,9.3311,-3.1151,60.9741,-44.2505,0.8545,115.3894,-5.8228,-159.5819,0.1763,0.8259,-0.5329,0.0524,1,1777533199.2426572,8.223533630371094,0.9522,1.2824,9.9005,5.3711,3.479,-2.9297,9.7394,-5.5481,145.1404,-0.0206,-0.0953,0.9483,0.302,0,,,0,0,0,0,0,0,0,0,0,0,0,0,0,0,0,0,0,0,0,,,0,0,0,0,0,0,0,0,0,0,0,0,0,0,0,0,0,0
1777533213.4105809,185543,1777533199.2600534,1777533199.2426572,,0,0,17.396211624145508,,1,0,2,0,0,0,0.0,0.0,0.0,0.0,0.0,0.0,0.0,0.0,0.0,0.0,0.0,0.0,0.0,0.0,0.0,0.0,0.0,0.0,0.0,0.0,0.0,0.0,0.0,0.0,0.0,0.0,0.0,15.20589818822766,576.8177940538772,859.9446205777682,101.00442831709829,561.9156441259055,858.5049423689002,6.749533848481545,349.3579034914754,910.5744096668552,91.26142113082159,349.35443514040685,910.3810963912807,-134.52990041458997,507.2625735059001,712.7746066227156,-89.95586520729424,550.8111052811328,418.9496041796726,-106.14391980646657,494.6622788578029,188.08960940207447,-73.37351851507877,456.79411784233235,66.5730764050985,-18.502357650558547,389.2731863756824,41.95000993350693,-21.109313945824603,659.330589352441,59.69025225178347,214.23925875218168,452.94067224987424,690.7706741783296,193.96510485700955,423.4809560713352,396.97837098019903,196.37944427346258,328.19785472429606,242.29954371178763,150.26360155061315,245.08610799494463,86.71415609595293,95.13888039416376,179.58372580571555,69.04949968816925,134.5559609162009,439.0728005531507,53.47273682254501,0,,,0.0,0.0,0.0,0.0,0.0,0.0,0.0,0.0,0.0,0.0,0.0,0.0,1.0,0,,,0.0,0.0,0.0,0.0,0.0,0.0,0.0,0.0,0.0,0.0,0.0,0.0,1.0,0,,,0.0,0.0,0.0,0.0,0.0,0.0,0.0,0.0,0.0,0.0,0.0,0.0,1.0,0,,,0.0,0.0,0.0,0.0,0.0,0.0,0.0,0.0,0.0,0.0,0.0,0.0,1.0,0,,,0.0,0.0,0.0,0.0,0.0,0.0,0.0,0.0,0.0,0.0,0.0,0.0,1.0,1,1777533199.2426572,17.396211624145508,0.0526,9.3311,-3.1151,60.9741,-44.2505,0.8545,115.3894,-5.8228,-159.5819,0.1763,0.8259,-0.5329,0.0524,1,1777533199.2426572,17.396211624145508,0.9522,1.2824,9.9005,5.3711,3.479,-2.9297,9.7394,-5.5481,145.1404,-0.0206,-0.0953,0.9483,0.302,0,,,0,0,0,0,0,0,0,0,0,0,0,0,0,0,0,0,0,0,0,,,0,0,0,0,0,0,0,0,0,0,0,0,0,0,0,0,0,0
1777533213.411582,185544,1777533199.269985,,,0,0,,,0,0,0,0,0,0,0.0,0.0,0.0,0.0,0.0,0.0,0.0,0.0,0.0,0.0,0.0,0.0,0.0,0.0,0.0,0.0,0.0,0.0,0.0,0.0,0.0,0.0,0.0,0.0,0.0,0.0,0.0,14.469595376995006,577.1112067714615,860.2602231074012,100.23512306007956,562.1652954487836,859.2129976618384,5.526364525247854,349.68727562266355,910.7336295973613,90.12162288206514,349.69888232743966,910.8199898329186,-135.0450983817977,507.46606449609203,712.3986538920866,-90.13914473416742,550.1569623059588,418.7279110451369,-106.29757951695294,493.4325935003891,187.9536566489623,-73.4179160823196,454.88452830097464,66.59928548301467,-18.599622875862426,387.5275080943991,42.015095131871256,-21.134653336769777,657.6525901346714,59.72773275384435,213.51453119514343,454.8852990004307,691.2670968248295,194.2605767190705,427.8105642578013,397.18137362661975,195.92503561260008,330.3290557667307,243.84373278301786,149.2635411971784,245.32553654489251,89.29158231475988,93.6010281189328,180.0495999866644,72.91769761362005,135.174362906197,438.9546937401758,53.07822773059297,0,,,0.0,0.0,0.0,0.0,0.0,0.0,0.0,0.0,0.0,0.0,0.0,0.0,1.0,0,,,0.0,0.0,0.0,0.0,0.0,0.0,0.0,0.0,0.0,0.0,0.0,0.0,1.0,0,,,0.0,0.0,0.0,0.0,0.0,0.0,0.0,0.0,0.0,0.0,0.0,0.0,1.0,0,,,0.0,0.0,0.0,0.0,0.0,0.0,0.0,0.0,0.0,0.0,0.0,0.0,1.0,0,,,0.0,0.0,0.0,0.0,0.0,0.0,0.0,0.0,0.0,0.0,0.0,0.0,1.0,0,,,0.0,0.0,0.0,0.0,0.0,0.0,0.0,0.0,0.0,0.0,0.0,0.0,1.0,0,,,0.0,0.0,0.0,0.0,0.0,0.0,0.0,0.0,0.0,0.0,0.0,0.0,1.0,0,,,0,0,0,0,0,0,0,0,0,0,0,0,0,0,0,0,0,0,0,,,0,0,0,0,0,0,0,0,0,0,0,0,0,0,0,0,0,0
1777533213.411582,185545,1777533199.2809567,,,0,0,,,0,0,0,0,0,0,0.0,0.0,0.0,0.0,0.0,0.0,0.0,0.0,0.0,0.0,0.0,0.0,0.0,0.0,0.0,0.0,0.0,0.0,0.0,0.0,0.0,0.0,0.0,0.0,0.0,0.0,0.0,13.73407819024384,577.2867498993996,860.6092531523617,99.50283372433901,562.3241304590157,859.9344777762126,4.578515859439189,350.0264990683891,910.8787193945254,89.03538531563356,349.7472415583521,911.2539985294319,-135.51992652416487,507.6236214823665,712.2885739269428,-90.22890338299163,549.5571426132439,418.45072406722056,-106.33205481120449,492.20828011863586,187.8557765789338,-73.35003874811251,453.17493556526836,66.54933564267985,-18.676764456394135,385.8095745582696,42.03754103368197,-21.10633268911417,656.0008282316422,59.727349524411764,212.87754507079285,456.8915865732891,691.7979295176499,194.45480940348764,431.9841266803861,397.80331234647275,195.5340517913134,332.4621890491858,245.39570943750584,148.24832745346473,245.76225032349677,92.03103521311763,91.6274965410458,180.98973905005775,76.84232061038611,135.84349561393066,439.0637834970838,52.734005176957425,0,,,0.0,0.0,0.0,0.0,0.0,0.0,0.0,0.0,0.0,0.0,0.0,0.0,1.0,0,,,0.0,0.0,0.0,0.0,0.0,0.0,0.0,0.0,0.0,0.0,0.0,0.0,1.0,0,,,0.0,0.0,0.0,0.0,0.0,0.0,0.0,0.0,0.0,0.0,0.0,0.0,1.0,0,,,0.0,0.0,0.0,0.0,0.0,0.0,0.0,0.0,0.0,0.0,0.0,0.0,1.0,0,,,0.0,0.0,0.0,0.0,0.0,0.0,0.0,0.0,0.0,0.0,0.0,0.0,1.0,0,,,0.0,0.0,0.0,0.0,0.0,0.0,0.0,0.0,0.0,0.0,0.0,0.0,1.0,0,,,0.0,0.0,0.0,0.0,0.0,0.0,0.0,0.0,0.0,0.0,0.0,0.0,1.0,0,,,0,0,0,0,0,0,0,0,0,0,0,0,0,0,0,0,0,0,0,,,0,0,0,0,0,0,0,0,0,0,0,0,0,0,0,0,0,0
1777533213.411582,185546,1777533199.2905946,,,0,0,,,0,0,0,0,0,0,0.0,0.0,0.0,0.0,0.0,0.0,0.0,0.0,0.0,0.0,0.0,0.0,0.0,0.0,0.0,0.0,0.0,0.0,0.0,0.0,0.0,0.0,0.0,0.0,0.0,0.0,0.0,13.015500222614225,577.4582365378615,860.9223983010468,98.74799291486639,562.4760407775185,860.6801718770363,3.5270668775152783,350.09164422079715,911.2132596355053,88.24894271495117,349.91763179403137,911.5539550697354,-135.93672690596648,507.5735115693919,712.1047737751508,-90.4166746500581,548.7205309517723,418.2799036564751,-106.52982890266706,491.0290826346294,187.768993925105,-73.65852141335871,451.5908900685218,66.64232172777054,-18.75391696452757,384.01698859113304,42.086989827088274,-21.17767526063456,654.2932066036404,59.54666154413461,212.31591528548464,458.84758218195293,692.3659176643384,194.4882320341609,435.9065090491007,398.016471214621,195.1186052825294,334.74016334906463,247.15714675135857,147.16520187582887,246.51298693728697,94.65221508894047,89.55418967069689,182.1469844021343,80.90567371307742,136.98074052330173,439.2359850462596,52.28577403157206,0,,,0.0,0.0,0.0,0.0,0.0,0.0,0.0,0.0,0.0,0.0,0.0,0.0,1.0,0,,,0.0,0.0,0.0,0.0,0.0,0.0,0.0,0.0,0.0,0.0,0.0,0.0,1.0,0,,,0.0,0.0,0.0,0.0,0.0,0.0,0.0,0.0,0.0,0.0,0.0,0.0,1.0,0,,,0.0,0.0,0.0,0.0,0.0,0.0,0.0,0.0,0.0,0.0,0.0,0.0,1.0,0,,,0.0,0.0,0.0,0.0,0.0,0.0,0.0,0.0,0.0,0.0,0.0,0.0,1.0,0,,,0.0,0.0,0.0,0.0,0.0,0.0,0.0,0.0,0.0,0.0,0.0,0.0,1.0,0,,,0.0,0.0,0.0,0.0,0.0,0.0,0.0,0.0,0.0,0.0,0.0,0.0,1.0,0,,,0,0,0,0,0,0,0,0,0,0,0,0,0,0,0,0,0,0,0,,,0,0,0,0,0,0,0,0,0,0,0,0,0,0,0,0,0,0
1777533213.411582,185547,1777533199.299967,,,0,0,,,0,0,0,0,0,0,0.0,0.0,0.0,0.0,0.0,0.0,0.0,0.0,0.0,0.0,0.0,0.0,0.0,0.0,0.0,0.0,0.0,0.0,0.0,0.0,0.0,0.0,0.0,0.0,0.0,0.0,0.0,12.303928538010465,577.5884081343098,861.2362057917394,97.9968790946242,562.5386397989732,861.4095490180391,2.9438206731613614,350.2675134755,911.4219539417538,87.32683503732956,349.9226812257696,912.0418300647553,-136.3079000606063,507.3504499122274,711.9209983750148,-90.69760764236108,547.945213573234,418.1001101103764,-106.64193720108327,489.639928385034,187.62472951383938,-73.65482261604937,449.88695759041343,66.74793864957157,-18.852501940831697,382.27226618906457,42.159802173851475,-21.44267234338179,652.5097129790564,59.52752881602448,211.90634386197806,460.8183551403828,693.0152708331436,194.85850702601724,439.9970948541308,398.5923660851856,194.7996350006778,337.10489815012437,249.02824720101395,146.00848707465076,247.5605498897816,97.22023690141711,87.27276228374107,183.93039927122132,84.61681263642474,138.09667869634686,439.83497999841205,52.014519460191664,0,,,0.0,0.0,0.0,0.0,0.0,0.0,0.0,0.0,0.0,0.0,0.0,0.0,1.0,0,,,0.0,0.0,0.0,0.0,0.0,0.0,0.0,0.0,0.0,0.0,0.0,0.0,1.0,0,,,0.0,0.0,0.0,0.0,0.0,0.0,0.0,0.0,0.0,0.0,0.0,0.0,1.0,0,,,0.0,0.0,0.0,0.0,0.0,0.0,0.0,0.0,0.0,0.0,0.0,0.0,1.0,0,,,0.0,0.0,0.0,0.0,0.0,0.0,0.0,0.0,0.0,0.0,0.0,0.0,1.0,0,,,0.0,0.0,0.0,0.0,0.0,0.0,0.0,0.0,0.0,0.0,0.0,0.0,1.0,0,,,0.0,0.0,0.0,0.0,0.0,0.0,0.0,0.0,0.0,0.0,0.0,0.0,1.0,0,,,0,0,0,0,0,0,0,0,0,0,0,0,0,0,0,0,0,0,0,,,0,0,0,0,0,0,0,0,0,0,0,0,0,0,0,0,0,0
1777533213.411582,185548,1777533199.3104737,,,0,0,,,0,0,0,0,0,0,0.0,0.0,0.0,0.0,0.0,0.0,0.0,0.0,0.0,0.0,0.0,0.0,0.0,0.0,0.0,0.0,0.0,0.0,0.0,0.0,0.0,0.0,0.0,0.0,0.0,0.0,0.0,11.540365466289558,577.6046252576836,861.5398469988332,97.24705592564887,562.5759961384509,862.1059949589716,1.9137576394002185,350.30937536436824,911.5523084930187,86.65695219773147,350.0066191477954,912.4674362828466,-136.79820120928034,506.9895359093342,711.6703457479289,-91.01269336920376,547.1920143641946,417.90972031040627,-106.85357985051128,488.2576087822999,187.58836000952934,-73.6320328159207,448.0806044318672,66.75670912046887,-19.020913675837797,380.4514694377093,42.28156274884089,-21.531043219749325,650.762760239256,59.42672121960469,211.58620552001827,462.7751403054466,693.7974315579164,195.3690347782559,444.02236876793353,399.2552568889246,194.47788874903492,339.4762417996951,250.7637700439074,144.9307098798196,249.17861099702543,99.54739156006644,85.28368108204704,186.17766562745706,88.07852350528053,139.26309156770142,440.96645185131064,51.919007431216876,0,,,0.0,0.0,0.0,0.0,0.0,0.0,0.0,0.0,0.0,0.0,0.0,0.0,1.0,0,,,0.0,0.0,0.0,0.0,0.0,0.0,0.0,0.0,0.0,0.0,0.0,0.0,1.0,0,,,0.0,0.0,0.0,0.0,0.0,0.0,0.0,0.0,0.0,0.0,0.0,0.0,1.0,0,,,0.0,0.0,0.0,0.0,0.0,0.0,0.0,0.0,0.0,0.0,0.0,0.0,1.0,0,,,0.0,0.0,0.0,0.0,0.0,0.0,0.0,0.0,0.0,0.0,0.0,0.0,1.0,0,,,0.0,0.0,0.0,0.0,0.0,0.0,0.0,0.0,0.0,0.0,0.0,0.0,1.0,0,,,0.0,0.0,0.0,0.0,0.0,0.0,0.0,0.0,0.0,0.0,0.0,0.0,1.0,0,,,0,0,0,0,0,0,0,0,0,0,0,0,0,0,0,0,0,0,0,,,0,0,0,0,0,0,0,0,0,0,0,0,0,0,0,0,0,0
1777533213.411582,185549,1777533199.320474,,,0,0,,,0,0,0,0,0,0,0.0,0.0,0.0,0.0,0.0,0.0,0.0,0.0,0.0,0.0,0.0,0.0,0.0,0.0,0.0,0.0,0.0,0.0,0.0,0.0,0.0,0.0,0.0,0.0,0.0,0.0,0.0,10.797367941597374,577.5964867751006,861.8042223557588,96.48763121796355,562.5898447321431,862.7880097388212,1.5392884723670557,350.22545795213136,911.7604918205712,85.9860810452033,350.0058960418679,912.8784677584731,-137.1161448493109,506.53540165872744,711.5332049845985,-91.3624748790878,546.2554951706246,417.71957353356385,-106.99586479483057,486.6807967771348,187.48649751104497,-73.79144639061991,446.28560929648347,66.73591610922723,-18.893596696321165,378.121881523663,42.001470556886225,-21.67825500098633,649.0046767077473,59.25885701010311,211.34365831818565,464.61440563084574,694.6374387522992,195.9239128113346,447.8535398710122,400.00485526448085,194.24102572820195,341.9736428373491,252.47577947076277,144.09462054368805,251.52687352857154,101.83782319497702,83.8750662955492,188.97800115991896,90.90378103587108,140.41648400160508,442.96419748336075,51.9324657593645,0,,,0.0,0.0,0.0,0.0,0.0,0.0,0.0,0.0,0.0,0.0,0.0,0.0,1.0,0,,,0.0,0.0,0.0,0.0,0.0,0.0,0.0,0.0,0.0,0.0,0.0,0.0,1.0,0,,,0.0,0.0,0.0,0.0,0.0,0.0,0.0,0.0,0.0,0.0,0.0,0.0,1.0,0,,,0.0,0.0,0.0,0.0,0.0,0.0,0.0,0.0,0.0,0.0,0.0,0.0,1.0,0,,,0.0,0.0,0.0,0.0,0.0,0.0,0.0,0.0,0.0,0.0,0.0,0.0,1.0,0,,,0.0,0.0,0.0,0.0,0.0,0.0,0.0,0.0,0.0,0.0,0.0,0.0,1.0,0,,,0.0,0.0,0.0,0.0,0.0,0.0,0.0,0.0,0.0,0.0,0.0,0.0,1.0,0,,,0,0,0,0,0,0,0,0,0,0,0,0,0,0,0,0,0,0,0,,,0,0,0,0,0,0,0,0,0,0,0,0,0,0,0,0,0,0
1777533213.411582,185550,1777533199.3343613,1777533199.3334756,,0,0,0.8857250213623047,,1,0,2,0,0,0,0.0,0.0,0.0,0.0,0.0,0.0,0.0,0.0,0.0,0.0,0.0,0.0,0.0,0.0,0.0,0.0,0.0,0.0,0.0,0.0,0.0,0.0,0.0,0.0,0.0,0.0,0.0,9.99784532758123,577.5252811546825,862.0641184788011,95.68194873416958,562.6548992258319,863.4579748127017,1.0304339807556868,350.1061581440165,911.8422420096256,85.61814320360308,350.04641139894,913.2639540159233,-137.55900308248596,506.12252742402575,711.4289113916259,-91.70374832319855,545.0854169423463,417.54111136155854,-107.23650045367256,484.9966912219277,187.38794173559074,-73.96998313665344,444.52328493691147,66.83417742311191,-18.817575204727493,377.4337663223723,42.32413839935865,-21.772122742733725,647.1723098369171,59.17028339574242,211.11753444176722,466.3619457640524,695.4788612581448,196.44240676464344,451.60351013528987,400.86593618206456,194.10619614798162,344.8238593867052,254.2732078762918,143.46209207845806,254.4228220299098,103.56759829107803,82.50119545204728,192.57107366414212,92.98116891641024,141.6145341914731,445.56266294456776,52.23258761649983,0,,,0.0,0.0,0.0,0.0,0.0,0.0,0.0,0.0,0.0,0.0,0.0,0.0,1.0,0,,,0.0,0.0,0.0,0.0,0.0,0.0,0.0,0.0,0.0,0.0,0.0,0.0,1.0,0,,,0.0,0.0,0.0,0.0,0.0,0.0,0.0,0.0,0.0,0.0,0.0,0.0,1.0,0,,,0.0,0.0,0.0,0.0,0.0,0.0,0.0,0.0,0.0,0.0,0.0,0.0,1.0,0,,,0.0,0.0,0.0,0.0,0.0,0.0,0.0,0.0,0.0,0.0,0.0,0.0,1.0,1,1777533199.3334756,0.8857250213623047,0.8087,9.8144,-4.7277,74.9512,-30.2734,16.1743,123.5303,-4.1364,-164.4049,0.1364,0.87,-0.4727,0.0326,1,1777533199.3334756,0.8857250213623047,1.292,0.6077,10.8288,91.8579,-5.7983,-56.2134,14.6228,-5.1691,142.4323,-0.0014,-0.1348,0.9362,0.3245,0,,,0,0,0,0,0,0,0,0,0,0,0,0,0,0,0,0,0,0,0,,,0,0,0,0,0,0,0,0,0,0,0,0,0,0,0,0,0,0
1777533213.411582,185551,1777533199.3403707,1777533199.3334756,,0,0,6.8950653076171875,,1,0,2,0,0,0,0.0,0.0,0.0,0.0,0.0,0.0,0.0,0.0,0.0,0.0,0.0,0.0,0.0,0.0,0.0,0.0,0.0,0.0,0.0,0.0,0.0,0.0,0.0,0.0,0.0,0.0,0.0,9.245974845253178,577.4827103856106,862.3050502300913,94.87369294841129,562.6451962148888,864.1139861199358,0.38646937980623286,350.0335999547833,911.978867303053,84.87980179630335,350.0478812084122,913.616208681052,-137.9655397738669,505.5415943344441,711.2555214568438,-92.08409920071415,543.9126545170519,417.39612740681815,-107.43956413026083,483.40566390666487,187.50121374897265,-73.98700815048434,442.6858744258054,66.96718576576001,-19.213804321655196,375.11718564958613,42.402381388589696,-21.923880590303686,645.4867154433573,59.05251555494704,211.07991763268808,468.10451494060413,696.3632607498461,197.04718114948233,455.2639224683754,401.82160714596046,194.16260148993416,347.95596009371565,255.71711677128275,142.80634334529262,257.8074849680298,105.01075458103945,81.27908610216187,196.41742410349138,94.47693901238611,143.29323821908105,448.73721419053373,53.133420141661205,0,,,0.0,0.0,0.0,0.0,0.0,0.0,0.0,0.0,0.0,0.0,0.0,0.0,1.0,0,,,0.0,0.0,0.0,0.0,0.0,0.0,0.0,0.0,0.0,0.0,0.0,0.0,1.0,0,,,0.0,0.0,0.0,0.0,0.0,0.0,0.0,0.0,0.0,0.0,0.0,0.0,1.0,0,,,0.0,0.0,0.0,0.0,0.0,0.0,0.0,0.0,0.0,0.0,0.0,0.0,1.0,0,,,0.0,0.0,0.0,0.0,0.0,0.0,0.0,0.0,0.0,0.0,0.0,0.0,1.0,1,1777533199.3334756,6.8950653076171875,0.8087,9.8144,-4.7277,74.9512,-30.2734,16.1743,123.5303,-4.1364,-164.4049,0.1364,0.87,-0.4727,0.0326,1,1777533199.3334756,6.8950653076171875,1.292,0.6077,10.8288,91.8579,-5.7983,-56.2134,14.6228,-5.1691,142.4323,-0.0014,-0.1348,0.9362,0.3245,0,,,0,0,0,0,0,0,0,0,0,0,0,0,0,0,0,0,0,0,0,,,0,0,0,0,0,0,0,0,0,0,0,0,0,0,0,0,0,0
1777533213.411582,185552,1777533199.3508832,1777533199.3334756,,0,0,17.407655715942383,,1,0,2,0,0,0,0.0,0.0,0.0,0.0,0.0,0.0,0.0,0.0,0.0,0.0,0.0,0.0,0.0,0.0,0.0,0.0,0.0,0.0,0.0,0.0,0.0,0.0,0.0,0.0,0.0,0.0,0.0,8.438143213705962,577.2570771527869,862.5605126262539,94.06690728029427,562.6597180514939,864.7470170854575,0.08180252214757988,349.8647614002186,912.0426550553901,84.65721604859733,349.9855904956632,914.0960772908297,-138.2832450752327,504.91572632202406,711.0359706381687,-92.51800879750209,542.7113297587136,417.186540743868,-107.55234707121357,481.5295531186102,187.4451633194457,-74.02012248204583,440.7730114359731,66.87460933586067,-19.25281125455693,373.3594537626905,42.435265776595216,-22.06884555311486,643.7582680569896,58.9039112789355,211.06438347484757,469.74862491853236,697.3530745045144,197.72056399086992,458.9162972283456,402.8763267225213,194.2798445496633,351.3982202986181,256.8867868987018,142.42105306713248,261.6809882959656,106.22851697668776,80.13582855725708,201.1484632027878,95.48392296979438,145.2332541875127,452.48394393829517,53.94030662422649,0,,,0.0,0.0,0.0,0.0,0.0,0.0,0.0,0.0,0.0,0.0,0.0,0.0,1.0,0,,,0.0,0.0,0.0,0.0,0.0,0.0,0.0,0.0,0.0,0.0,0.0,0.0,1.0,0,,,0.0,0.0,0.0,0.0,0.0,0.0,0.0,0.0,0.0,0.0,0.0,0.0,1.0,0,,,0.0,0.0,0.0,0.0,0.0,0.0,0.0,0.0,0.0,0.0,0.0,0.0,1.0,0,,,0.0,0.0,0.0,0.0,0.0,0.0,0.0,0.0,0.0,0.0,0.0,0.0,1.0,1,1777533199.3334756,17.407655715942383,0.8087,9.8144,-4.7277,74.9512,-30.2734,16.1743,123.5303,-4.1364,-164.4049,0.1364,0.87,-0.4727,0.0326,1,1777533199.3334756,17.407655715942383,1.292,0.6077,10.8288,91.8579,-5.7983,-56.2134,14.6228,-5.1691,142.4323,-0.0014,-0.1348,0.9362,0.3245,0,,,0,0,0,0,0,0,0,0,0,0,0,0,0,0,0,0,0,0,0,,,0,0,0,0,0,0,0,0,0,0,0,0,0,0,0,0,0,0
1777533213.411582,185553,1777533199.3603978,,,0,0,,,0,0,0,0,0,0,0.0,0.0,0.0,0.0,0.0,0.0,0.0,0.0,0.0,0.0,0.0,0.0,0.0,0.0,0.0,0.0,0.0,0.0,0.0,0.0,0.0,0.0,0.0,0.0,0.0,0.0,0.0,7.637482740883069,577.0582771723612,862.7756169413344,93.26719750990974,562.6664942170888,865.3494206874866,-0.35687511079951967,349.5748642204043,912.2184793857944,84.43557027926376,349.90094966313075,914.5223192191835,-138.65643738784928,504.1104169078941,710.9117622172676,-93.01500548693691,541.5180759145355,417.01355282474714,-107.68940607879705,479.8312701221478,187.44369309814587,-74.20976038329977,439.14403709085894,67.05306716606154,-19.294597098650183,371.3762461648691,42.3240520948681,-22.2242959809492,641.9983354762061,58.74109249806865,211.08713683575905,471.3003783935881,698.3715276417503,198.38725155668533,462.5416817720709,403.9064448074941,194.47406278939317,355.3155822025267,257.9458682706635,142.26255421081245,266.2728635269335,106.98321564909432,79.32947001749025,206.35056676214987,95.75519704825204,147.40492639802872,457.0356961422064,54.717784301382906,0,,,0.0,0.0,0.0,0.0,0.0,0.0,0.0,0.0,0.0,0.0,0.0,0.0,1.0,0,,,0.0,0.0,0.0,0.0,0.0,0.0,0.0,0.0,0.0,0.0,0.0,0.0,1.0,0,,,0.0,0.0,0.0,0.0,0.0,0.0,0.0,0.0,0.0,0.0,0.0,0.0,1.0,0,,,0.0,0.0,0.0,0.0,0.0,0.0,0.0,0.0,0.0,0.0,0.0,0.0,1.0,0,,,0.0,0.0,0.0,0.0,0.0,0.0,0.0,0.0,0.0,0.0,0.0,0.0,1.0,0,,,0.0,0.0,0.0,0.0,0.0,0.0,0.0,0.0,0.0,0.0,0.0,0.0,1.0,0,,,0.0,0.0,0.0,0.0,0.0,0.0,0.0,0.0,0.0,0.0,0.0,0.0,1.0,0,,,0,0,0,0,0,0,0,0,0,0,0,0,0,0,0,0,0,0,0,,,0,0,0,0,0,0,0,0,0,0,0,0,0,0,0,0,0,0
1777533213.4132364,185554,1777533199.3703978,,,0,0,,,0,0,0,0,0,0,0.0,0.0,0.0,0.0,0.0,0.0,0.0,0.0,0.0,0.0,0.0,0.0,0.0,0.0,0.0,0.0,0.0,0.0,0.0,0.0,0.0,0.0,0.0,0.0,0.0,0.0,0.0,6.826539430505509,576.8947855352737,862.9672866643007,92.43155081842248,562.6791223546351,865.9435782649142,-0.6197335547572517,349.315989156175,912.3934262055474,84.02018818744621,349.78278346649785,914.9656945519723,-139.04016544343406,503.149523976594,710.852601852162,-93.31137585970555,540.1571473060364,416.89303466119037,-107.83676180776168,477.8973879916001,187.431304882034,-74.30528902035888,437.32566903734346,67.13800706889849,-19.39987278277159,369.7497899687959,42.63678945761121,-22.230658786890217,640.2539588251042,58.51707840156214,211.18846088214482,472.7858406992929,699.4019330189655,199.08486524661373,466.1650980231039,404.93938795197937,194.72887843396254,359.46122504217664,258.58645989254086,142.30757496730862,271.52595365652445,107.19214870412229,78.48415972056442,212.3291685631127,95.5492656822147,149.85470538316386,462.2710610098941,55.27769399702182,0,,,0.0,0.0,0.0,0.0,0.0,0.0,0.0,0.0,0.0,0.0,0.0,0.0,1.0,0,,,0.0,0.0,0.0,0.0,0.0,0.0,0.0,0.0,0.0,0.0,0.0,0.0,1.0,0,,,0.0,0.0,0.0,0.0,0.0,0.0,0.0,0.0,0.0,0.0,0.0,0.0,1.0,0,,,0.0,0.0,0.0,0.0,0.0,0.0,0.0,0.0,0.0,0.0,0.0,0.0,1.0,0,,,0.0,0.0,0.0,0.0,0.0,0.0,0.0,0.0,0.0,0.0,0.0,0.0,1.0,0,,,0.0,0.0,0.0,0.0,0.0,0.0,0.0,0.0,0.0,0.0,0.0,0.0,1.0,0,,,0.0,0.0,0.0,0.0,0.0,0.0,0.0,0.0,0.0,0.0,0.0,0.0,1.0,0,,,0,0,0,0,0,0,0,0,0,0,0,0,0,0,0,0,0,0,0,,,0,0,0,0,0,0,0,0,0,0,0,0,0,0,0,0,0,0
1777533213.4132364,185555,1777533199.380399,,,0,0,,,0,0,0,0,0,0,0.0,0.0,0.0,0.0,0.0,0.0,0.0,0.0,0.0,0.0,0.0,0.0,0.0,0.0,0.0,0.0,0.0,0.0,0.0,0.0,0.0,0.0,0.0,0.0,0.0,0.0,0.0,6.0397587623682485,576.6732265249161,863.1586477450005,91.64779694886703,562.6515105787543,866.5381345672002,-0.7235361818783325,349.0859807464563,912.6137734771208,83.84946500697954,349.6590791539705,915.4203161764154,-139.4279257024247,502.0888389843771,710.6535589484427,-93.77076180157188,538.7599502557491,416.7282488522522,-107.96512565100875,476.1895882358638,187.53018305155987,-74.30127906500284,435.6416466032894,67.22328028748262,-19.523453151563686,367.91270611264656,42.60298717740122,-22.442557168651945,638.509738737961,58.44366595283705,211.2693833538205,474.0991939069102,700.4420999349733,199.7905674550887,469.73855673669846,405.9864113093711,195.196597592243,363.98283353214896,258.97763166247216,142.51591688331447,277.27152997963634,107.0735452122966,78.08128573777606,218.80456763557748,94.86513612724585,152.41501638833742,468.1245452816221,55.72982439334097,0,,,0.0,0.0,0.0,0.0,0.0,0.0,0.0,0.0,0.0,0.0,0.0,0.0,1.0,0,,,0.0,0.0,0.0,0.0,0.0,0.0,0.0,0.0,0.0,0.0,0.0,0.0,1.0,0,,,0.0,0.0,0.0,0.0,0.0,0.0,0.0,0.0,0.0,0.0,0.0,0.0,1.0,0,,,0.0,0.0,0.0,0.0,0.0,0.0,0.0,0.0,0.0,0.0,0.0,0.0,1.0,0,,,0.0,0.0,0.0,0.0,0.0,0.0,0.0,0.0,0.0,0.0,0.0,0.0,1.0,0,,,0.0,0.0,0.0,0.0,0.0,0.0,0.0,0.0,0.0,0.0,0.0,0.0,1.0,0,,,0.0,0.0,0.0,0.0,0.0,0.0,0.0,0.0,0.0,0.0,0.0,0.0,1.0,0,,,0,0,0,0,0,0,0,0,0,0,0,0,0,0,0,0,0,0,0,,,0,0,0,0,0,0,0,0,0,0,0,0,0,0,0,0,0,0
1777533213.4132364,185556,1777533199.390416,,,0,0,,,0,0,0,0,0,0,0.0,0.0,0.0,0.0,0.0,0.0,0.0,0.0,0.0,0.0,0.0,0.0,0.0,0.0,0.0,0.0,0.0,0.0,0.0,0.0,0.0,0.0,0.0,0.0,0.0,0.0,0.0,5.267262196669736,576.3666823309193,863.3554642923801,90.8330113908405,562.5935490062374,867.138380897627,-1.0837497555366793,348.6899241639844,912.9196788694891,83.37815021538621,349.7247850979616,915.875804990702,-139.7358329771649,500.99581583130606,710.4994592190619,-94.0736065329186,537.3236322225181,416.71987410652446,-108.03052466325826,474.4018179364179,187.49431398704152,-74.28723086246171,433.7579311732826,67.03821749670007,-19.544297301371476,366.1334716555301,42.700120094649456,-22.61273979580568,636.835807458689,58.24329376581965,211.47989597531253,475.3532585353596,701.5047440055556,200.52714594813804,473.30434006934263,407.0383846694685,195.70390691025065,368.7147094926251,259.0935596684402,142.8344234379254,283.6143793266897,106.38496588338413,78.03210122213976,225.868751738757,93.58723860528067,155.1137598337274,474.5300098276011,55.94459082677463,0,,,0.0,0.0,0.0,0.0,0.0,0.0,0.0,0.0,0.0,0.0,0.0,0.0,1.0,0,,,0.0,0.0,0.0,0.0,0.0,0.0,0.0,0.0,0.0,0.0,0.0,0.0,1.0,0,,,0.0,0.0,0.0,0.0,0.0,0.0,0.0,0.0,0.0,0.0,0.0,0.0,1.0,0,,,0.0,0.0,0.0,0.0,0.0,0.0,0.0,0.0,0.0,0.0,0.0,0.0,1.0,0,,,0.0,0.0,0.0,0.0,0.0,0.0,0.0,0.0,0.0,0.0,0.0,0.0,1.0,0,,,0.0,0.0,0.0,0.0,0.0,0.0,0.0,0.0,0.0,0.0,0.0,0.0,1.0,0,,,0.0,0.0,0.0,0.0,0.0,0.0,0.0,0.0,0.0,0.0,0.0,0.0,1.0,0,,,0,0,0,0,0,0,0,0,0,0,0,0,0,0,0,0,0,0,0,,,0,0,0,0,0,0,0,0,0,0,0,0,0,0,0,0,0,0
1777533213.4132364,185557,1777533199.40101,,,0,0,,,0,0,0,0,0,0,0.0,0.0,0.0,0.0,0.0,0.0,0.0,0.0,0.0,0.0,0.0,0.0,0.0,0.0,0.0,0.0,0.0,0.0,0.0,0.0,0.0,0.0,0.0,0.0,0.0,0.0,0.0,3.7369073387183143,574.8239578699839,863.8164277990579,90.08392874271928,562.4526159211478,867.7162166510893,-1.1252457737807888,348.446120221278,913.1149049491735,83.1563360475575,349.4287813114661,916.3574365564556,-140.01438721041632,499.89103127161195,710.4365207518811,-94.39579013903067,535.6851197846087,416.6808698512952,-108.05495722614602,472.64499409271303,187.59972823593986,-74.44825093224101,432.11768007541195,67.25421320536806,-19.780847777487853,364.19966398609205,42.74750430952188,-22.623983940925815,635.2124903994476,58.14136896329762,211.68413946939364,476.4879230349202,702.5577160899475,201.27305937418475,476.8616885021508,408.07962375729676,196.4537117735457,373.79196949406094,259.0848840360161,143.62353927186567,290.39117908286624,105.50667139138919,78.08767974024359,233.51063476107865,91.8902729111958,157.80299197882368,481.61276882961766,56.302006265727364,0,,,0.0,0.0,0.0,0.0,0.0,0.0,0.0,0.0,0.0,0.0,0.0,0.0,1.0,0,,,0.0,0.0,0.0,0.0,0.0,0.0,0.0,0.0,0.0,0.0,0.0,0.0,1.0,0,,,0.0,0.0,0.0,0.0,0.0,0.0,0.0,0.0,0.0,0.0,0.0,0.0,1.0,0,,,0.0,0.0,0.0,0.0,0.0,0.0,0.0,0.0,0.0,0.0,0.0,0.0,1.0,0,,,0.0,0.0,0.0,0.0,0.0,0.0,0.0,0.0,0.0,0.0,0.0,0.0,1.0,0,,,0.0,0.0,0.0,0.0,0.0,0.0,0.0,0.0,0.0,0.0,0.0,0.0,1.0,0,,,0.0,0.0,0.0,0.0,0.0,0.0,0.0,0.0,0.0,0.0,0.0,0.0,1.0,0,,,0,0,0,0,0,0,0,0,0,0,0,0,0,0,0,0,0,0,0,,,0,0,0,0,0,0,0,0,0,0,0,0,0,0,0,0,0,0
1777533213.4132364,185558,1777533199.4139419,1777533199.413079,,0,0,0.8628368377685547,,1,0,2,0,0,0,0.0,0.0,0.0,0.0,0.0,0.0,0.0,0.0,0.0,0.0,0.0,0.0,0.0,0.0,0.0,0.0,0.0,0.0,0.0,0.0,0.0,0.0,0.0,0.0,0.0,0.0,0.0,3.732518844706192,575.6155815869485,863.7649960492089,89.37311421877178,562.3160953241993,868.2863615384263,-1.4377783449196557,348.08870498205306,913.3595549370943,83.04770697345778,349.24070423798645,916.8945573625014,-140.3573981539088,498.7858032566311,710.2740809130761,-94.72188142676109,533.9948851172873,416.66067255723976,-108.16690454256474,470.7575008634028,187.58895659726582,-74.52252410491279,430.385114667088,67.32891372980909,-19.848016960935897,362.5339540069117,42.861782158654925,-22.692751819742643,633.5647410266649,58.08368682052735,211.9168836773389,477.5295998533066,703.6021270835743,202.0344082599908,480.35360689567045,409.1177840779332,197.259633782536,379.1202652347054,258.87679173929666,143.81079772119958,297.9033812377947,103.54260132770318,78.52774317819612,241.5834150710268,89.72403780567238,160.6702596289469,489.29686075163676,56.663968730750405,0,,,0.0,0.0,0.0,0.0,0.0,0.0,0.0,0.0,0.0,0.0,0.0,0.0,1.0,0,,,0.0,0.0,0.0,0.0,0.0,0.0,0.0,0.0,0.0,0.0,0.0,0.0,1.0,0,,,0.0,0.0,0.0,0.0,0.0,0.0,0.0,0.0,0.0,0.0,0.0,0.0,1.0,0,,,0.0,0.0,0.0,0.0,0.0,0.0,0.0,0.0,0.0,0.0,0.0,0.0,1.0,0,,,0.0,0.0,0.0,0.0,0.0,0.0,0.0,0.0,0.0,0.0,0.0,0.0,1.0,1,1777533199.413079,0.8628368377685547,-0.2297,9.2784,-4.7852,35.6445,-73.9136,29.0527,127.6172,-3.2904,-168.0853,0.1057,0.8908,-0.4415,0.0202,1,1777533199.413079,0.8628368377685547,1.9906,-2.5505,13.5085,36.499,0.0,-62.439,20.7806,-4.7021,137.3456,0.028,-0.1825,0.9128,0.3643,0,,,0,0,0,0,0,0,0,0,0,0,0,0,0,0,0,0,0,0,0,,,0,0,0,0,0,0,0,0,0,0,0,0,0,0,0,0,0,0
1777533213.4132364,185559,1777533199.4205933,1777533199.413079,,0,0,7.514238357543945,,1,0,2,0,0,0,0.0,0.0,0.0,0.0,0.0,0.0,0.0,0.0,0.0,0.0,0.0,0.0,0.0,0.0,0.0,0.0,0.0,0.0,0.0,0.0,0.0,0.0,0.0,0.0,0.0,0.0,0.0,2.4464757742523213,574.0796221500725,864.1956968540744,88.75785854108807,562.122425217989,868.8450818245938,-1.7281294236734657,347.7916164652037,913.5889027953143,82.72589265966724,349.1063698228662,917.3560625880592,-140.664198121669,497.68719668789737,710.2586874226245,-95.09506793754474,532.175987159801,416.62969642326476,-108.24726670227012,468.9839767238176,187.6626745134792,-74.42703029955551,428.615502168145,67.28061427128627,-19.81112680853913,360.83871770858343,42.77826622228388,-22.82763487186714,631.7849294179291,57.920270294652056,212.1631355436224,478.45344725166206,704.6792723394574,202.83098058398107,483.8282524010667,410.1785015632246,198.16050712928268,384.6665352196491,258.48422060331654,144.95773302195437,305.7059790757211,101.99641570485242,79.37616674648223,250.06751157573848,87.24454027163827,163.31049721552824,497.60608114846707,57.22346623226654,0,,,0.0,0.0,0.0,0.0,0.0,0.0,0.0,0.0,0.0,0.0,0.0,0.0,1.0,0,,,0.0,0.0,0.0,0.0,0.0,0.0,0.0,0.0,0.0,0.0,0.0,0.0,1.0,0,,,0.0,0.0,0.0,0.0,0.0,0.0,0.0,0.0,0.0,0.0,0.0,0.0,1.0,0,,,0.0,0.0,0.0,0.0,0.0,0.0,0.0,0.0,0.0,0.0,0.0,0.0,1.0,0,,,0.0,0.0,0.0,0.0,0.0,0.0,0.0,0.0,0.0,0.0,0.0,0.0,1.0,1,1777533199.413079,7.514238357543945,-0.2297,9.2784,-4.7852,35.6445,-73.9136,29.0527,127.6172,-3.2904,-168.0853,0.1057,0.8908,-0.4415,0.0202,1,1777533199.413079,7.514238357543945,1.9906,-2.5505,13.5085,36.499,0.0,-62.439,20.7806,-4.7021,137.3456,0.028,-0.1825,0.9128,0.3643,0,,,0,0,0,0,0,0,0,0,0,0,0,0,0,0,0,0,0,0,0,,,0,0,0,0,0,0,0,0,0,0,0,0,0,0,0,0,0,0
1777533213.4142466,185560,1777533199.4305916,1777533199.413079,,0,0,17.51255989074707,,1,0,2,0,0,0,0.0,0.0,0.0,0.0,0.0,0.0,0.0,0.0,0.0,0.0,0.0,0.0,0.0,0.0,0.0,0.0,0.0,0.0,0.0,0.0,0.0,0.0,0.0,0.0,0.0,0.0,0.0,2.661445545378996,574.9297878578424,864.0933627923039,88.26611288558608,561.8951267582535,869.3699391371131,-1.9718008472049493,347.5533692738571,913.8410206323038,82.47685180008536,348.7442333127956,917.9171795767791,-140.8427289685267,496.5340502634877,710.2725628015252,-95.50897962530476,530.3574722783004,416.65919023302285,-108.39796089395051,467.1693434711359,187.72345190331924,-74.42049590403158,426.86203358882557,67.20506698739909,-19.90007806530333,359.0790346455208,42.82622300833423,-22.905075662661353,630.1032099435854,57.85687678007772,212.4877354619686,479.29288485716654,705.7107593120147,203.6059588957517,487.24578352533683,411.2299953266802,199.26316868826888,390.4545438035266,257.9953219588643,146.35928774502042,314.0000242639479,100.03612135834845,80.638147051561,258.8961418306595,84.31019062136593,165.93027903192547,506.3456327118916,57.89349943701311,0,,,0.0,0.0,0.0,0.0,0.0,0.0,0.0,0.0,0.0,0.0,0.0,0.0,1.0,0,,,0.0,0.0,0.0,0.0,0.0,0.0,0.0,0.0,0.0,0.0,0.0,0.0,1.0,0,,,0.0,0.0,0.0,0.0,0.0,0.0,0.0,0.0,0.0,0.0,0.0,0.0,1.0,0,,,0.0,0.0,0.0,0.0,0.0,0.0,0.0,0.0,0.0,0.0,0.0,0.0,1.0,0,,,0.0,0.0,0.0,0.0,0.0,0.0,0.0,0.0,0.0,0.0,0.0,0.0,1.0,1,1777533199.413079,17.51255989074707,-0.2297,9.2784,-4.7852,35.6445,-73.9136,29.0527,127.6172,-3.2904,-168.0853,0.1057,0.8908,-0.4415,0.0202,1,1777533199.413079,17.51255989074707,1.9906,-2.5505,13.5085,36.499,0.0,-62.439,20.7806,-4.7021,137.3456,0.028,-0.1825,0.9128,0.3643,0,,,0,0,0,0,0,0,0,0,0,0,0,0,0,0,0,0,0,0,0,,,0,0,0,0,0,0,0,0,0,0,0,0,0,0,0,0,0,0
1777533213.4142466,185561,1777533199.4410074,,,0,0,,,0,0,0,0,0,0,0.0,0.0,0.0,0.0,0.0,0.0,0.0,0.0,0.0,0.0,0.0,0.0,0.0,0.0,0.0,0.0,0.0,0.0,0.0,0.0,0.0,0.0,0.0,0.0,0.0,0.0,0.0,1.587284948679941,573.4575180352035,864.5253222836798,87.8682472142769,561.640164496575,869.9046566871384,-2.090147601045731,347.2573634033397,914.2397527437108,82.34738607845087,348.62082537168124,918.4225268117908,-141.11455212722217,495.4740878905887,710.3610661385364,-95.8981713800918,528.4472147245353,416.70997273723526,-108.63035996610158,465.34822270625654,187.6373521926874,-74.66832749945829,425.2390805451007,67.42510699720759,-19.916357803379093,357.33965260536576,42.96737091399211,-23.029982206589175,628.4289883118945,57.82400342638317,212.83108602560824,480.0741947834618,706.7183048217787,204.345896298269,490.63307815058783,412.3301310084362,200.3574695504316,396.4643493860516,257.4516369681226,147.9518193649601,322.77543940894833,97.93335896115856,82.05599153172241,268.07200033088515,81.1686550008903,168.26978826017577,515.7570468606202,58.61963780900782,0,,,0.0,0.0,0.0,0.0,0.0,0.0,0.0,0.0,0.0,0.0,0.0,0.0,1.0,0,,,0.0,0.0,0.0,0.0,0.0,0.0,0.0,0.0,0.0,0.0,0.0,0.0,1.0,0,,,0.0,0.0,0.0,0.0,0.0,0.0,0.0,0.0,0.0,0.0,0.0,0.0,1.0,0,,,0.0,0.0,0.0,0.0,0.0,0.0,0.0,0.0,0.0,0.0,0.0,0.0,1.0,0,,,0.0,0.0,0.0,0.0,0.0,0.0,0.0,0.0,0.0,0.0,0.0,0.0,1.0,0,,,0.0,0.0,0.0,0.0,0.0,0.0,0.0,0.0,0.0,0.0,0.0,0.0,1.0,0,,,0.0,0.0,0.0,0.0,0.0,0.0,0.0,0.0,0.0,0.0,0.0,0.0,1.0,0,,,0,0,0,0,0,0,0,0,0,0,0,0,0,0,0,0,0,0,0,,,0,0,0,0,0,0,0,0,0,0,0,0,0,0,0,0,0,0
1777533213.4142466,185562,1777533199.4504437,,,0,0,,,0,0,0,0,0,0,0.0,0.0,0.0,0.0,0.0,0.0,0.0,0.0,0.0,0.0,0.0,0.0,0.0,0.0,0.0,0.0,0.0,0.0,0.0,0.0,0.0,0.0,0.0,0.0,0.0,0.0,0.0,2.0572082213532004,574.431371489206,864.4001893899742,87.57727660705471,561.3634785839603,870.3921480568434,-2.3376435201836867,346.9351265126485,914.6716960590644,82.09975829684363,348.31087905264894,918.883605811127,-141.3656513264641,494.3951032182683,710.4066688376572,-96.48614925553424,526.5987882867173,416.730140826649,-108.80563014717139,463.5380812836529,187.7658173393384,-74.79858465191205,423.6053250073903,67.48361517027332,-20.30009611462523,355.40683761783396,43.24996777393508,-23.154222317689687,626.778968611465,57.78892535711933,213.1953062425295,480.74618615021257,707.749286589497,205.11447680226962,493.9580447211451,413.39908210821216,201.54620404972604,402.56466094048534,256.7454710287991,149.83176069113526,331.87749691646354,95.85390371159211,83.90595314937404,277.6577360527756,77.98814444880392,170.4846666858794,525.2142383679904,59.19458778237385,0,,,0.0,0.0,0.0,0.0,0.0,0.0,0.0,0.0,0.0,0.0,0.0,0.0,1.0,0,,,0.0,0.0,0.0,0.0,0.0,0.0,0.0,0.0,0.0,0.0,0.0,0.0,1.0,0,,,0.0,0.0,0.0,0.0,0.0,0.0,0.0,0.0,0.0,0.0,0.0,0.0,1.0,0,,,0.0,0.0,0.0,0.0,0.0,0.0,0.0,0.0,0.0,0.0,0.0,0.0,1.0,0,,,0.0,0.0,0.0,0.0,0.0,0.0,0.0,0.0,0.0,0.0,0.0,0.0,1.0,0,,,0.0,0.0,0.0,0.0,0.0,0.0,0.0,0.0,0.0,0.0,0.0,0.0,1.0,0,,,0.0,0.0,0.0,0.0,0.0,0.0,0.0,0.0,0.0,0.0,0.0,0.0,1.0,0,,,0,0,0,0,0,0,0,0,0,0,0,0,0,0,0,0,0,0,0,,,0,0,0,0,0,0,0,0,0,0,0,0,0,0,0,0,0,0
1777533213.4142466,185563,1777533199.4599473,,,0,0,,,0,0,0,0,0,0,0.0,0.0,0.0,0.0,0.0,0.0,0.0,0.0,0.0,0.0,0.0,0.0,0.0,0.0,0.0,0.0,0.0,0.0,0.0,0.0,0.0,0.0,0.0,0.0,0.0,0.0,0.0,1.155218933939099,572.767405973559,864.7815864511282,87.37873875764345,561.1325555041941,870.8426202590325,-2.5397337134240083,346.7363617770372,915.0538898669049,81.77684381975165,348.0899931198885,919.5091009677233,-141.52560500762962,493.2911133390369,710.4557298440737,-96.99394087493259,524.5660866131875,416.72685969710227,-109.01833813811596,461.70749399245636,187.7761885029863,-74.80795232565944,421.80725710082424,67.45458115476465,-20.191381389657288,353.91742400725684,43.1080476061766,-23.223346253413155,625.0717298966241,57.76081769158317,213.60923346766245,481.3285158727172,708.746345341409,205.96135261700852,497.3995786197435,414.67116762863543,202.5902324266107,408.95463718824016,255.80737552878523,151.86307311934107,341.3265094845551,93.66032278620646,85.84265678116792,287.27727276918296,74.64263517644476,172.58442529983824,535.2718324053379,60.08805358641197,0,,,0.0,0.0,0.0,0.0,0.0,0.0,0.0,0.0,0.0,0.0,0.0,0.0,1.0,0,,,0.0,0.0,0.0,0.0,0.0,0.0,0.0,0.0,0.0,0.0,0.0,0.0,1.0,0,,,0.0,0.0,0.0,0.0,0.0,0.0,0.0,0.0,0.0,0.0,0.0,0.0,1.0,0,,,0.0,0.0,0.0,0.0,0.0,0.0,0.0,0.0,0.0,0.0,0.0,0.0,1.0,0,,,0.0,0.0,0.0,0.0,0.0,0.0,0.0,0.0,0.0,0.0,0.0,0.0,1.0,0,,,0.0,0.0,0.0,0.0,0.0,0.0,0.0,0.0,0.0,0.0,0.0,0.0,1.0,0,,,0.0,0.0,0.0,0.0,0.0,0.0,0.0,0.0,0.0,0.0,0.0,0.0,1.0,0,,,0,0,0,0,0,0,0,0,0,0,0,0,0,0,0,0,0,0,0,,,0,0,0,0,0,0,0,0,0,0,0,0,0,0,0,0,0,0
1777533213.4142466,185564,1777533199.470467,,,0,0,,,0,0,0,0,0,0,0.0,0.0,0.0,0.0,0.0,0.0,0.0,0.0,0.0,0.0,0.0,0.0,0.0,0.0,0.0,0.0,0.0,0.0,0.0,0.0,0.0,0.0,0.0,0.0,0.0,0.0,0.0,1.0195699608900952,572.3958983228089,864.8984687897959,87.21786911377139,560.8877125249503,871.2760407608016,-2.7804305134785157,346.4262630027069,915.4392714867936,81.73240007614837,347.9086631021697,920.0099588466896,-141.71436961408847,492.2910032151969,710.5680702171841,-97.41053691040233,522.8071267991405,416.78986263798606,-109.26745885559113,459.9552570813198,187.88576407200802,-74.95148476951438,420.12053395578715,67.43787622864963,-20.445254214251243,352.0196006181018,43.164312545370336,-23.391544331553668,623.385284339292,57.773954140603614,214.00666268510267,481.88964570959223,709.749127919902,206.6406314615104,500.55964935772386,415.59830405237363,204.08743612377924,415.47301321714536,255.12269220663404,153.91836662820845,350.90364220741105,91.22254204215623,88.14954725186352,297.1578019017103,71.45363865103832,174.52436182501683,545.4896726469025,61.00234958599668,0,,,0.0,0.0,0.0,0.0,0.0,0.0,0.0,0.0,0.0,0.0,0.0,0.0,1.0,0,,,0.0,0.0,0.0,0.0,0.0,0.0,0.0,0.0,0.0,0.0,0.0,0.0,1.0,0,,,0.0,0.0,0.0,0.0,0.0,0.0,0.0,0.0,0.0,0.0,0.0,0.0,1.0,0,,,0.0,0.0,0.0,0.0,0.0,0.0,0.0,0.0,0.0,0.0,0.0,0.0,1.0,0,,,0.0,0.0,0.0,0.0,0.0,0.0,0.0,0.0,0.0,0.0,0.0,0.0,1.0,0,,,0.0,0.0,0.0,0.0,0.0,0.0,0.0,0.0,0.0,0.0,0.0,0.0,1.0,0,,,0.0,0.0,0.0,0.0,0.0,0.0,0.0,0.0,0.0,0.0,0.0,0.0,1.0,0,,,0,0,0,0,0,0,0,0,0,0,0,0,0,0,0,0,0,0,0,,,0,0,0,0,0,0,0,0,0,0,0,0,0,0,0,0,0,0
1777533213.4142466,185565,1777533199.4799762,,,0,0,,,0,0,0,0,0,0,0.0,0.0,0.0,0.0,0.0,0.0,0.0,0.0,0.0,0.0,0.0,0.0,0.0,0.0,0.0,0.0,0.0,0.0,0.0,0.0,0.0,0.0,0.0,0.0,0.0,0.0,0.0,0.9146111934532605,572.0069005252942,865.0035221350826,87.09831324146332,560.5629551548,871.6817653698253,-2.8713152935590704,346.11731229193174,915.915839529452,81.43087861653859,347.58208326854935,920.5704802652635,-141.95003120942417,491.35927370563496,710.6825576880868,-97.87970957311553,520.9018642299159,416.81860247685785,-109.3957182324725,457.9786241087888,187.83091191011658,-75.2025241265479,418.38253080838984,67.5070421639317,-20.613580113600445,350.55169025837984,43.35802035767238,-23.433687779592194,621.6571943319364,57.77324400295549,214.4709777428896,482.3969794698606,710.6860570861759,207.32787046360926,503.815644921173,416.5915233567637,205.5812686490304,422.098752278788,254.37843943930045,156.06460302953457,360.95545638049686,88.9718868616287,90.52453968832836,307.28873985124466,68.26054809990289,176.2004221380257,556.1455961670557,62.07486452212238,0,,,0.0,0.0,0.0,0.0,0.0,0.0,0.0,0.0,0.0,0.0,0.0,0.0,1.0,0,,,0.0,0.0,0.0,0.0,0.0,0.0,0.0,0.0,0.0,0.0,0.0,0.0,1.0,0,,,0.0,0.0,0.0,0.0,0.0,0.0,0.0,0.0,0.0,0.0,0.0,0.0,1.0,0,,,0.0,0.0,0.0,0.0,0.0,0.0,0.0,0.0,0.0,0.0,0.0,0.0,1.0,0,,,0.0,0.0,0.0,0.0,0.0,0.0,0.0,0.0,0.0,0.0,0.0,0.0,1.0,0,,,0.0,0.0,0.0,0.0,0.0,0.0,0.0,0.0,0.0,0.0,0.0,0.0,1.0,0,,,0.0,0.0,0.0,0.0,0.0,0.0,0.0,0.0,0.0,0.0,0.0,0.0,1.0,0,,,0,0,0,0,0,0,0,0,0,0,0,0,0,0,0,0,0,0,0,,,0,0,0,0,0,0,0,0,0,0,0,0,0,0,0,0,0,0
1777533213.4152439,185566,1777533199.4899805,,,0,0,,,0,0,0,0,0,0,0.0,0.0,0.0,0.0,0.0,0.0,0.0,0.0,0.0,0.0,0.0,0.0,0.0,0.0,0.0,0.0,0.0,0.0,0.0,0.0,0.0,0.0,0.0,0.0,0.0,0.0,0.0,0.8305296849915539,571.6434057776929,865.0620845629595,86.97419922771586,560.2510402921099,872.0484647521035,-3.0082917069881616,346.0133051043159,916.3144613601957,81.35009451255932,347.3314682615711,921.0736485472557,-141.98811172973268,490.3588737344414,710.7241461583526,-98.16653645781129,519.0848849615203,416.80204420397445,-109.56053440975565,456.2210749054302,187.91264641471278,-75.29475996429088,416.73850928206326,67.62455107779563,-20.312314301816574,348.41261640401075,43.22933310161675,-23.562752649593687,619.8923166571337,57.806676910958444,214.96837746419607,482.8966511499363,711.6028754351587,208.0770375065809,507.120373524388,417.6175001982357,207.10453136386792,428.84005789248147,253.69728962020463,158.57023878047036,370.9802199644319,86.85704035794006,93.04718409996237,317.5500554813984,65.12698517824788,177.71204198877342,566.8002524793194,63.177432264484096,0,,,0.0,0.0,0.0,0.0,0.0,0.0,0.0,0.0,0.0,0.0,0.0,0.0,1.0,0,,,0.0,0.0,0.0,0.0,0.0,0.0,0.0,0.0,0.0,0.0,0.0,0.0,1.0,0,,,0.0,0.0,0.0,0.0,0.0,0.0,0.0,0.0,0.0,0.0,0.0,0.0,1.0,0,,,0.0,0.0,0.0,0.0,0.0,0.0,0.0,0.0,0.0,0.0,0.0,0.0,1.0,0,,,0.0,0.0,0.0,0.0,0.0,0.0,0.0,0.0,0.0,0.0,0.0,0.0,1.0,0,,,0.0,0.0,0.0,0.0,0.0,0.0,0.0,0.0,0.0,0.0,0.0,0.0,1.0,0,,,0.0,0.0,0.0,0.0,0.0,0.0,0.0,0.0,0.0,0.0,0.0,0.0,1.0,0,,,0,0,0,0,0,0,0,0,0,0,0,0,0,0,0,0,0,0,0,,,0,0,0,0,0,0,0,0,0,0,0,0,0,0,0,0,0,0
1777533213.4152439,185567,1777533199.5043244,1777533199.5034916,,0,0,0.8327960968017578,,1,0,2,0,0,0,0.0,0.0,0.0,0.0,0.0,0.0,0.0,0.0,0.0,0.0,0.0,0.0,0.0,0.0,0.0,0.0,0.0,0.0,0.0,0.0,0.0,0.0,0.0,0.0,0.0,0.0,0.0,0.7830427178165794,571.4141533898134,865.0822482961701,86.89726791656304,559.8940126015103,872.3504042202856,-3.1842894181722436,345.7162829442625,916.6680228054526,81.32979982744178,347.12392200943214,921.5482477205485,-142.08796103829138,489.6913406938704,710.7835401857943,-98.52678890633184,517.2647368514065,416.8055226614113,-109.76305900667985,454.50585089140327,187.94163452541648,-75.25169516498391,414.834546669404,67.56863040759606,-20.404072799988114,346.7786602327611,43.365453062976066,-23.652336908719832,618.1622382441714,57.86995239867276,215.39676218485272,483.31160346020147,712.4617739871593,208.72892710982904,510.4566534643059,418.6122409191241,208.70363509307043,435.83597207927954,253.13497940612405,160.92674877196828,381.3348440207914,84.73363219740506,95.88237894051744,327.92048489982636,62.225055613163484,179.0212917323307,577.6002744537321,64.34427704801776,0,,,0.0,0.0,0.0,0.0,0.0,0.0,0.0,0.0,0.0,0.0,0.0,0.0,1.0,0,,,0.0,0.0,0.0,0.0,0.0,0.0,0.0,0.0,0.0,0.0,0.0,0.0,1.0,0,,,0.0,0.0,0.0,0.0,0.0,0.0,0.0,0.0,0.0,0.0,0.0,0.0,1.0,0,,,0.0,0.0,0.0,0.0,0.0,0.0,0.0,0.0,0.0,0.0,0.0,0.0,1.0,0,,,0.0,0.0,0.0,0.0,0.0,0.0,0.0,0.0,0.0,0.0,0.0,0.0,1.0,1,1777533199.5034916,0.8327960968017578,0.311,8.7568,-4.0865,-59.3872,-25.7568,17.2119,126.2988,-2.3621,-171.8481,0.0727,0.8891,-0.4517,0.0138,1,1777533199.5034916,0.8327960968017578,1.5647,-2.8328,10.3455,-44.2505,-6.0425,-57.5562,19.7644,-3.4387,133.2477,0.0409,-0.1692,0.9019,0.3954,0,,,0,0,0,0,0,0,0,0,0,0,0,0,0,0,0,0,0,0,0,,,0,0,0,0,0,0,0,0,0,0,0,0,0,0,0,0,0,0
