Timestamp,Vicon_Frame_Num,Vicon_Recv_Timestamp,IMU_Recv_Timestamp,Planter_Recv_Timestamp,Vicon_Gap_Flag,Vicon_Gap_Size,IMU_Stale_ms,Planter_Stale_ms,IMU_Matched_Flag,Planter_Matched_Flag,Vicon_Root_X,Vicon_Root_Y,Vicon_Root_Z,Vicon_L_Femur_X,Vicon_L_Femur_Y,Vicon_L_Femur_Z,Vicon_L_Tibia_X,Vicon_L_Tibia_Y,Vicon_L_Tibia_Z,Vicon_L_Foot_X,Vicon_L_Foot_Y,Vicon_L_Foot_Z,Vicon_L_Toe_X,Vicon_L_Toe_Y,Vicon_L_Toe_Z,Vicon_R_Femur_X,Vicon_R_Femur_Y,Vicon_R_Femur_Z,Vicon_R_Tibia_X,Vicon_R_Tibia_Y,Vicon_R_Tibia_Z,Vicon_R_Foot_X,Vicon_R_Foot_Y,Vicon_R_Foot_Z,Vicon_R_Toe_X,Vicon_R_Toe_Y,Vicon_R_Toe_Z,Vicon_LASI_X,Vicon_LASI_Y,Vicon_LASI_Z,Vicon_RASI_X,Vicon_RASI_Y,Vicon_RASI_Z,Vicon_LPSI_X,Vicon_LPSI_Y,Vicon_LPSI_Z,Vicon_RPSI_X,Vicon_RPSI_Y,Vicon_RPSI_Z,Vicon_LTHI_X,Vicon_LTHI_Y,Vicon_LTHI_Z,Vicon_LKNE_X,Vicon_LKNE_Y,Vicon_LKNE_Z,Vicon_LTIB_X,Vicon_LTIB_Y,Vicon_LTIB_Z,Vicon_LANK_X,Vicon_LANK_Y,Vicon_LANK_Z,Vicon_LHEE_X,Vicon_LHEE_Y,Vicon_LHEE_Z,Vicon_LTOE_X,Vicon_LTOE_Y,Vicon_LTOE_Z,Vicon_RTHI_X,Vicon_RTHI_Y,Vicon_RTHI_Z,Vicon_RKNE_X,Vicon_RKNE_Y,Vicon_RKNE_Z,Vicon_RTIB_X,Vicon_RTIB_Y,Vicon_RTIB_Z,Vicon_RANK_X,Vicon_RANK_Y,Vicon_RANK_Z,Vicon_RHEE_X,Vicon_RHEE_Y,Vicon_RHEE_Z,Vicon_RTOE_X,Vicon_RTOE_Y,Vicon_RTOE_Z,IMU_Trunk_Acc_X,IMU_Trunk_Acc_Y,IMU_Trunk_Acc_Z,IMU_Trunk_Gyro_X,IMU_Trunk_Gyro_Y,IMU_Trunk_Gyro_Z,IMU_Trunk_Roll,IMU_Trunk_Pitch,IMU_Trunk_Yaw,IMU_Trunk_Quat_x,IMU_Trunk_Quat_y,IMU_Trunk_Quat_z,IMU_Trunk_Quat_w,IMU_L_Femur_Acc_X,IMU_L_Femur_Acc_Y,IMU_L_Femur_Acc_Z,IMU_L_Femur_Gyro_X,IMU_L_Femur_Gyro_Y,IMU_L_Femur_Gyro_Z,IMU_L_Femur_Roll,IMU_L_Femur_Pitch,IMU_L_Femur_Yaw,IMU_L_Femur_Quat_x,IMU_L_Femur_Quat_y,IMU_L_Femur_Quat_z,IMU_L_Femur_Quat_w,IMU_L_Tibia_Acc_X,IMU_L_Tibia_Acc_Y,IMU_L_Tibia_Acc_Z,IMU_L_Tibia_Gyro_X,IMU_L_Tibia_Gyro_Y,IMU_L_Tibia_Gyro_Z,IMU_L_Tibia_Roll,IMU_L_Tibia_Pitch,IMU_L_Tibia_Yaw,IMU_L_Tibia_Quat_x,IMU_L_Tibia_Quat_y,IMU_L_Tibia_Quat_z,IMU_L_Tibia_Quat_w,IMU_L_Foot_Acc_X,IMU_L_Foot_Acc_Y,IMU_L_Foot_Acc_Z,IMU_L_Foot_Gyro_X,IMU_L_Foot_Gyro_Y,IMU_L_Foot_Gyro_Z,IMU_L_Foot_Roll,IMU_L_Foot_Pitch,IMU_L_Foot_Yaw,IMU_L_Foot_Quat_x,IMU_L_Foot_Quat_y,IMU_L_Foot_Quat_z,IMU_L_Foot_Quat_w,IMU_R_Femur_Acc_X,IMU_R_Femur_Acc_Y,IMU_R_Femur_Acc_Z,IMU_R_Femur_Gyro_X,IMU_R_Femur_Gyro_Y,IMU_R_Femur_Gyro_Z,IMU_R_Femur_Roll,IMU_R_Femur_Pitch,IMU_R_Femur_Yaw,IMU_R_Femur_Quat_x,IMU_R_Femur_Quat_y,IMU_R_Femur_Quat_z,IMU_R_Femur_Quat_w,IMU_R_Tibia_Acc_X,IMU_R_Tibia_Acc_Y,IMU_R_Tibia_Acc_Z,IMU_R_Tibia_Gyro_X,IMU_R_Tibia_Gyro_Y,IMU_R_Tibia_Gyro_Z,IMU_R_Tibia_Roll,IMU_R_Tibia_Pitch,IMU_R_Tibia_Yaw,IMU_R_Tibia_Quat_x,IMU_R_Tibia_Quat_y,IMU_R_Tibia_Quat_z,IMU_R_Tibia_Quat_w,IMU_R_Foot_Acc_X,IMU_R_Foot_Acc_Y,IMU_R_Foot_Acc_Z,IMU_R_Foot_Gyro_X,IMU_R_Foot_Gyro_Y,IMU_R_Foot_Gyro_Z,IMU_R_Foot_Roll,IMU_R_Foot_Pitch,IMU_R_Foot_Yaw,IMU_R_Foot_Quat_x,IMU_R_Foot_Quat_y,IMU_R_Foot_Quat_z,IMU_R_Foot_Quat_w,Planter_Left_0,Planter_Left_1,Planter_Left_2,Planter_Left_3,Planter_Left_4,Planter_Left_5,Planter_Left_6,Planter_Left_7,Planter_Left_8,Planter_Left_9,Planter_Left_10,Planter_Left_11,Planter_Left_12,Planter_Left_13,Planter_Left_14,Planter_Left_15,Planter_Left_16,Planter_Left_17,Planter_Right_0,Planter_Right_1,Planter_Right_2,Planter_Right_3,Planter_Right_4,Planter_Right_5,Planter_Right_6,Planter_Right_7,Planter_Right_8,Planter_Right_9,Planter_Right_10,Planter_Right_11,Planter_Right_12,Planter_Right_13,Planter_Right_14,Planter_Right_15,Planter_Right_16,Planter_Right_17
1777383918.4745414,210,1777383904.8402162,,,0,0,,,0,0,0.0,0.0,0.0,0.0,0.0,0.0,0.0,0.0,0.0,0.0,0.0,0.0,0.0,0.0,0.0,0.0,0.0,0.0,0.0,0.0,0.0,0.0,0.0,0.0,0.0,0.0,0.0,0.0,0.0,0.0,0.0,0.0,0.0,0.0,0.0,0.0,0.0,0.0,0.0,0.0,0.0,0.0,0.0,0.0,0.0,0.0,0.0,0.0,0.0,0.0,0.0,0.0,0.0,0.0,0.0,0.0,0.0,0.0,0.0,0.0,0.0,0.0,0.0,0.0,0.0,0.0,0.0,0.0,0.0,0.0,0.0,0.0,0.0,0.0,0.0,0.0,0.0,0.0,0.0,0.0,0.0,0.0,0.0,0.0,0.0,0.0,0.0,1.0,0.0,0.0,0.0,0.0,0.0,0.0,0.0,0.0,0.0,0.0,0.0,0.0,1.0,0.0,0.0,0.0,0.0,0.0,0.0,0.0,0.0,0.0,0.0,0.0,0.0,1.0,0.0,0.0,0.0,0.0,0.0,0.0,0.0,0.0,0.0,0.0,0.0,0.0,1.0,0.0,0.0,0.0,0.0,0.0,0.0,0.0,0.0,0.0,0.0,0.0,0.0,1.0,0.0,0.0,0.0,0.0,0.0,0.0,0.0,0.0,0.0,0.0,0.0,0.0,1.0,0.0,0.0,0.0,0.0,0.0,0.0,0.0,0.0,0.0,0.0,0.0,0.0,1.0,0,0,0,0,0,0,0,0,0,0,0,0,0,0,0,0,0,0,0,0,0,0,0,0,0,0,0,0,0,0,0,0,0,0,0,0
1777383918.4745414,2,1777383907.8117754,,,1,0,,,0,0,0.0,0.0,0.0,0.0,0.0,0.0,0.0,0.0,0.0,0.0,0.0,0.0,0.0,0.0,0.0,0.0,0.0,0.0,0.0,0.0,0.0,0.0,0.0,0.0,0.0,0.0,0.0,735.559326171875,607.1923217773438,1117.02783203125,984.7515869140625,653.5578002929688,1121.7032470703125,792.357666015625,430.5112609863281,1142.96435546875,952.847412109375,444.0215148925781,1145.3414306640625,0.0,0.0,0.0,671.1625366210938,643.2905883789062,624.536376953125,681.0205688476562,514.8998413085938,521.8215942382812,721.2748413085938,395.3496398925781,364.4731140136719,823.4857788085938,296.9717102050781,350.2706604003906,693.1433715820312,483.78668212890625,204.58200073242188,1030.0986328125,621.9962768554688,796.3160400390625,974.054443359375,592.7100219726562,565.6290283203125,986.6986694335938,573.0046997070312,431.2197570800781,942.510986328125,527.8584594726562,225.16282653808594,885.2943115234375,442.1849670410156,166.7601318359375,912.9102172851562,707.6466674804688,176.00149536132812,0.0,0.0,0.0,0.0,0.0,0.0,0.0,0.0,0.0,0.0,0.0,0.0,1.0,0.0,0.0,0.0,0.0,0.0,0.0,0.0,0.0,0.0,0.0,0.0,0.0,1.0,0.0,0.0,0.0,0.0,0.0,0.0,0.0,0.0,0.0,0.0,0.0,0.0,1.0,0.0,0.0,0.0,0.0,0.0,0.0,0.0,0.0,0.0,0.0,0.0,0.0,1.0,0.0,0.0,0.0,0.0,0.0,0.0,0.0,0.0,0.0,0.0,0.0,0.0,1.0,0.0,0.0,0.0,0.0,0.0,0.0,0.0,0.0,0.0,0.0,0.0,0.0,1.0,0.0,0.0,0.0,0.0,0.0,0.0,0.0,0.0,0.0,0.0,0.0,0.0,1.0,0,0,0,0,0,0,0,0,0,0,0,0,0,0,0,0,0,0,0,0,0,0,0,0,0,0,0,0,0,0,0,0,0,0,0,0
1777383918.4745414,3,1777383907.8268032,,,0,0,,,0,0,0.0,0.0,0.0,0.0,0.0,0.0,0.0,0.0,0.0,0.0,0.0,0.0,0.0,0.0,0.0,0.0,0.0,0.0,0.0,0.0,0.0,0.0,0.0,0.0,0.0,0.0,0.0,735.4563598632812,605.2725219726562,1118.239990234375,983.9524536132812,653.3177490234375,1122.186279296875,793.5186767578125,428.9245300292969,1144.1015625,953.8008422851562,443.48712158203125,1146.2918701171875,0.0,0.0,0.0,669.885498046875,647.63037109375,627.7186889648438,679.9453125,521.7418823242188,520.0420532226562,720.0684814453125,407.5849609375,358.37652587890625,822.47607421875,310.2048645019531,338.8079528808594,688.9675903320312,502.5743408203125,203.79464721679688,1029.79296875,620.1129150390625,796.1788940429688,974.2232666015625,588.2672729492188,565.4816284179688,986.841796875,567.60302734375,431.17864990234375,942.700439453125,520.7071533203125,225.53318786621094,885.5493774414062,434.635986328125,167.06329345703125,913.17138671875,700.08642578125,176.0078887939453,0.0,0.0,0.0,0.0,0.0,0.0,0.0,0.0,0.0,0.0,0.0,0.0,1.0,0.0,0.0,0.0,0.0,0.0,0.0,0.0,0.0,0.0,0.0,0.0,0.0,1.0,0.0,0.0,0.0,0.0,0.0,0.0,0.0,0.0,0.0,0.0,0.0,0.0,1.0,0.0,0.0,0.0,0.0,0.0,0.0,0.0,0.0,0.0,0.0,0.0,0.0,1.0,0.0,0.0,0.0,0.0,0.0,0.0,0.0,0.0,0.0,0.0,0.0,0.0,1.0,0.0,0.0,0.0,0.0,0.0,0.0,0.0,0.0,0.0,0.0,0.0,0.0,1.0,0.0,0.0,0.0,0.0,0.0,0.0,0.0,0.0,0.0,0.0,0.0,0.0,1.0,0,0,0,0,0,0,0,0,0,0,0,0,0,0,0,0,0,0,0,0,0,0,0,0,0,0,0,0,0,0,0,0,0,0,0,0
1777383918.4745414,4,1777383907.8435814,,,0,0,,,0,0,0.0,0.0,0.0,0.0,0.0,0.0,0.0,0.0,0.0,0.0,0.0,0.0,0.0,0.0,0.0,0.0,0.0,0.0,0.0,0.0,0.0,0.0,0.0,0.0,0.0,0.0,0.0,735.2958374023438,603.4437255859375,1119.325927734375,983.1494750976562,653.0680541992188,1122.5811767578125,794.5482177734375,427.4276123046875,1145.1607666015625,954.6318359375,442.9833068847656,1147.1781005859375,0.0,0.0,0.0,668.801513671875,651.358154296875,630.53515625,678.8160400390625,528.496826171875,517.8045043945312,718.4949951171875,420.3649597167969,351.8361511230469,820.963134765625,324.3170471191406,326.62469482421875,684.5733032226562,521.9531860351562,202.78717041015625,1029.486083984375,618.0835571289062,796.0215454101562,974.4078369140625,583.6309814453125,565.3622436523438,986.9895629882812,562.016845703125,431.1541442871094,942.8645629882812,513.5083618164062,225.88829040527344,885.790771484375,427.1001892089844,167.34495544433594,913.4183959960938,692.5289306640625,176.01177978515625,0.0,0.0,0.0,0.0,0.0,0.0,0.0,0.0,0.0,0.0,0.0,0.0,1.0,0.0,0.0,0.0,0.0,0.0,0.0,0.0,0.0,0.0,0.0,0.0,0.0,1.0,0.0,0.0,0.0,0.0,0.0,0.0,0.0,0.0,0.0,0.0,0.0,0.0,1.0,0.0,0.0,0.0,0.0,0.0,0.0,0.0,0.0,0.0,0.0,0.0,0.0,1.0,0.0,0.0,0.0,0.0,0.0,0.0,0.0,0.0,0.0,0.0,0.0,0.0,1.0,0.0,0.0,0.0,0.0,0.0,0.0,0.0,0.0,0.0,0.0,0.0,0.0,1.0,0.0,0.0,0.0,0.0,0.0,0.0,0.0,0.0,0.0,0.0,0.0,0.0,1.0,0,0,0,0,0,0,0,0,0,0,0,0,0,0,0,0,0,0,0,0,0,0,0,0,0,0,0,0,0,0,0,0,0,0,0,0
1777383918.4745414,5,1777383907.8460855,,,0,0,,,0,0,0.0,0.0,0.0,0.0,0.0,0.0,0.0,0.0,0.0,0.0,0.0,0.0,0.0,0.0,0.0,0.0,0.0,0.0,0.0,0.0,0.0,0.0,0.0,0.0,0.0,0.0,0.0,735.078125,601.7066650390625,1120.2857666015625,982.34326171875,652.8089599609375,1122.8876953125,795.4461059570312,426.020751953125,1146.1416015625,955.3402099609375,442.5101013183594,1147.9998779296875,0.0,0.0,0.0,667.9088134765625,654.4754028320312,632.9848022460938,677.6296997070312,535.1692504882812,515.1141357421875,716.5557861328125,433.6914367675781,344.87176513671875,818.962646484375,339.3172607421875,313.79681396484375,679.967041015625,541.8958740234375,201.568359375,1029.1776123046875,615.9097290039062,795.8438110351562,974.6075439453125,578.8040771484375,565.2705688476562,987.141845703125,556.2495727539062,431.1461181640625,943.0037841796875,506.26300048828125,226.2281036376953,886.0186157226562,419.57635498046875,167.60586547851562,913.6520385742188,684.9739990234375,176.01336669921875,0.0,0.0,0.0,0.0,0.0,0.0,0.0,0.0,0.0,0.0,0.0,0.0,1.0,0.0,0.0,0.0,0.0,0.0,0.0,0.0,0.0,0.0,0.0,0.0,0.0,1.0,0.0,0.0,0.0,0.0,0.0,0.0,0.0,0.0,0.0,0.0,0.0,0.0,1.0,0.0,0.0,0.0,0.0,0.0,0.0,0.0,0.0,0.0,0.0,0.0,0.0,1.0,0.0,0.0,0.0,0.0,0.0,0.0,0.0,0.0,0.0,0.0,0.0,0.0,1.0,0.0,0.0,0.0,0.0,0.0,0.0,0.0,0.0,0.0,0.0,0.0,0.0,1.0,0.0,0.0,0.0,0.0,0.0,0.0,0.0,0.0,0.0,0.0,0.0,0.0,1.0,0,0,0,0,0,0,0,0,0,0,0,0,0,0,0,0,0,0,0,0,0,0,0,0,0,0,0,0,0,0,0,0,0,0,0,0
1777383918.4745414,6,1777383907.8604884,,,0,0,,,0,0,0.0,0.0,0.0,0.0,0.0,0.0,0.0,0.0,0.0,0.0,0.0,0.0,0.0,0.0,0.0,0.0,0.0,0.0,0.0,0.0,0.0,0.0,0.0,0.0,0.0,0.0,0.0,734.80419921875,600.0626831054688,1121.1190185546875,981.5348510742188,652.541015625,1123.10546875,796.2117919921875,424.704345703125,1147.0430908203125,955.9257202148438,442.067626953125,1148.75634765625,0.0,0.0,0.0,667.2039794921875,656.9857788085938,635.0659790039062,676.3803100585938,541.7672729492188,511.982421875,714.2547607421875,447.5665588378906,337.5225524902344,816.503173828125,355.2118835449219,300.4548034667969,675.1640014648438,562.3557739257812,200.1611328125,1028.866943359375,613.5946044921875,795.6456298828125,974.8215942382812,573.7929077148438,565.2061767578125,987.2988891601562,550.3084106445312,431.1542663574219,943.1192626953125,498.97308349609375,226.5527801513672,886.23291015625,412.0622863769531,167.84693908691406,913.8738403320312,677.421142578125,176.0131378173828,0.0,0.0,0.0,0.0,0.0,0.0,0.0,0.0,0.0,0.0,0.0,0.0,1.0,0.0,0.0,0.0,0.0,0.0,0.0,0.0,0.0,0.0,0.0,0.0,0.0,1.0,0.0,0.0,0.0,0.0,0.0,0.0,0.0,0.0,0.0,0.0,0.0,0.0,1.0,0.0,0.0,0.0,0.0,0.0,0.0,0.0,0.0,0.0,0.0,0.0,0.0,1.0,0.0,0.0,0.0,0.0,0.0,0.0,0.0,0.0,0.0,0.0,0.0,0.0,1.0,0.0,0.0,0.0,0.0,0.0,0.0,0.0,0.0,0.0,0.0,0.0,0.0,1.0,0.0,0.0,0.0,0.0,0.0,0.0,0.0,0.0,0.0,0.0,0.0,0.0,1.0,0,0,0,0,0,0,0,0,0,0,0,0,0,0,0,0,0,0,0,0,0,0,0,0,0,0,0,0,0,0,0,0,0,0,0,0
1777383918.4749138,7,1777383907.8638296,,,0,0,,,0,0,0.0,0.0,0.0,0.0,0.0,0.0,0.0,0.0,0.0,0.0,0.0,0.0,0.0,0.0,0.0,0.0,0.0,0.0,0.0,0.0,0.0,0.0,0.0,0.0,0.0,0.0,0.0,734.4752807617188,598.5140380859375,1121.825439453125,980.7255249023438,652.2652587890625,1123.2335205078125,796.8446044921875,423.479248046875,1147.864013671875,956.3880004882812,441.6559143066406,1149.4464111328125,0.0,0.0,0.0,666.6809692382812,658.8959350585938,636.777099609375,675.0593872070312,548.3026123046875,508.42999267578125,711.599853515625,461.99090576171875,329.85211181640625,813.6234741210938,371.9936828613281,286.7772216796875,670.1934814453125,583.2713623046875,198.61305236816406,1028.552734375,611.1434936523438,795.4266967773438,975.0486450195312,568.608154296875,565.1680908203125,987.4608764648438,544.2057495117188,431.17822265625,943.213134765625,491.6419677734375,226.8629150390625,886.4336547851562,404.5551452636719,168.06936645507812,914.0863647460938,669.869873046875,176.01197814941406,0.0,0.0,0.0,0.0,0.0,0.0,0.0,0.0,0.0,0.0,0.0,0.0,1.0,0.0,0.0,0.0,0.0,0.0,0.0,0.0,0.0,0.0,0.0,0.0,0.0,1.0,0.0,0.0,0.0,0.0,0.0,0.0,0.0,0.0,0.0,0.0,0.0,0.0,1.0,0.0,0.0,0.0,0.0,0.0,0.0,0.0,0.0,0.0,0.0,0.0,0.0,1.0,0.0,0.0,0.0,0.0,0.0,0.0,0.0,0.0,0.0,0.0,0.0,0.0,1.0,0.0,0.0,0.0,0.0,0.0,0.0,0.0,0.0,0.0,0.0,0.0,0.0,1.0,0.0,0.0,0.0,0.0,0.0,0.0,0.0,0.0,0.0,0.0,0.0,0.0,1.0,0,0,0,0,0,0,0,0,0,0,0,0,0,0,0,0,0,0,0,0,0,0,0,0,0,0,0,0,0,0,0,0,0,0,0,0
1777383918.4749138,8,1777383907.875838,,,0,0,,,0,0,0.0,0.0,0.0,0.0,0.0,0.0,0.0,0.0,0.0,0.0,0.0,0.0,0.0,0.0,0.0,0.0,0.0,0.0,0.0,0.0,0.0,0.0,0.0,0.0,0.0,0.0,0.0,734.0930786132812,597.06396484375,1122.40478515625,979.9168701171875,651.9832763671875,1123.2713623046875,797.343505859375,422.34661865234375,1148.6024169921875,956.7264404296875,441.2750549316406,1150.068115234375,0.0,0.0,0.0,666.3309326171875,660.2171630859375,638.1173095703125,673.6568603515625,554.7892456054688,504.4896545410156,708.60546875,476.9604797363281,321.9507751464844,810.3651123046875,389.63031005859375,272.97308349609375,665.103515625,604.5741577148438,197.00527954101562,1028.233154296875,608.5646362304688,795.1868896484375,975.2868041992188,563.265869140625,565.1546020507812,987.6282958984375,537.9593505859375,431.21710205078125,943.28857421875,484.27447509765625,227.1598663330078,886.6209716796875,397.05157470703125,168.27481079101562,914.2926635742188,662.3197021484375,176.0111846923828,0.0,0.0,0.0,0.0,0.0,0.0,0.0,0.0,0.0,0.0,0.0,0.0,1.0,0.0,0.0,0.0,0.0,0.0,0.0,0.0,0.0,0.0,0.0,0.0,0.0,1.0,0.0,0.0,0.0,0.0,0.0,0.0,0.0,0.0,0.0,0.0,0.0,0.0,1.0,0.0,0.0,0.0,0.0,0.0,0.0,0.0,0.0,0.0,0.0,0.0,0.0,1.0,0.0,0.0,0.0,0.0,0.0,0.0,0.0,0.0,0.0,0.0,0.0,0.0,1.0,0.0,0.0,0.0,0.0,0.0,0.0,0.0,0.0,0.0,0.0,0.0,0.0,1.0,0.0,0.0,0.0,0.0,0.0,0.0,0.0,0.0,0.0,0.0,0.0,0.0,1.0,0,0,0,0,0,0,0,0,0,0,0,0,0,0,0,0,0,0,0,0,0,0,0,0,0,0,0,0,0,0,0,0,0,0,0,0
1777383918.4749138,9,1777383907.893076,,,0,0,,,0,0,0.0,0.0,0.0,0.0,0.0,0.0,0.0,0.0,0.0,0.0,0.0,0.0,0.0,0.0,0.0,0.0,0.0,0.0,0.0,0.0,0.0,0.0,0.0,0.0,0.0,0.0,0.0,733.6593627929688,595.7164916992188,1122.856689453125,979.1105346679688,651.6969604492188,1123.2177734375,797.70703125,421.3080139160156,1149.25537109375,956.9404296875,440.9251708984375,1150.6190185546875,669.47900390625,548.921630859375,875.5728149414062,666.1420288085938,660.966796875,639.0877075195312,672.1629028320312,561.2415771484375,500.2087707519531,705.2938232421875,492.46270751953125,313.9347229003906,806.7628173828125,408.0574645996094,259.2599792480469,659.9654541015625,626.1957397460938,195.45545959472656,1027.9056396484375,605.8690795898438,794.9259643554688,975.5333862304688,557.7875366210938,565.1630249023438,987.8013305664062,531.5926513671875,431.2696838378906,943.3497314453125,476.8767395019531,227.44580078125,886.7962036132812,389.54815673828125,168.46592712402344,914.4964599609375,654.7703247070312,176.01214599609375,0.0,0.0,0.0,0.0,0.0,0.0,0.0,0.0,0.0,0.0,0.0,0.0,1.0,0.0,0.0,0.0,0.0,0.0,0.0,0.0,0.0,0.0,0.0,0.0,0.0,1.0,0.0,0.0,0.0,0.0,0.0,0.0,0.0,0.0,0.0,0.0,0.0,0.0,1.0,0.0,0.0,0.0,0.0,0.0,0.0,0.0,0.0,0.0,0.0,0.0,0.0,1.0,0.0,0.0,0.0,0.0,0.0,0.0,0.0,0.0,0.0,0.0,0.0,0.0,1.0,0.0,0.0,0.0,0.0,0.0,0.0,0.0,0.0,0.0,0.0,0.0,0.0,1.0,0.0,0.0,0.0,0.0,0.0,0.0,0.0,0.0,0.0,0.0,0.0,0.0,1.0,0,0,0,0,0,0,0,0,0,0,0,0,0,0,0,0,0,0,0,0,0,0,0,0,0,0,0,0,0,0,0,0,0,0,0,0
1777383918.4749138,10,1777383907.8955817,,,0,0,,,0,0,0.0,0.0,0.0,0.0,0.0,0.0,0.0,0.0,0.0,0.0,0.0,0.0,0.0,0.0,0.0,0.0,0.0,0.0,0.0,0.0,0.0,0.0,0.0,0.0,0.0,0.0,0.0,733.176025390625,594.4767456054688,1123.1812744140625,978.30810546875,651.4085083007812,1123.0718994140625,797.93359375,420.3654479980469,1149.81982421875,957.0291748046875,440.6064147949219,1151.09619140625,669.2909545898438,546.7326049804688,876.1043701171875,666.0995483398438,661.1696166992188,639.6923828125,670.5703735351562,567.6721801757812,495.65057373046875,701.69677734375,508.471435546875,305.9416198730469,802.8363037109375,427.1777648925781,245.8454132080078,654.8767700195312,648.0711059570312,194.1134033203125,1027.5665283203125,603.0709228515625,794.6435546875,975.7847290039062,552.1996459960938,565.1895141601562,987.9794921875,525.1334228515625,431.3341979980469,943.401123046875,469.45587158203125,227.7238006591797,886.9617309570312,382.0417175292969,168.64666748046875,914.7011108398438,647.2212524414062,176.0158233642578,0.0,0.0,0.0,0.0,0.0,0.0,0.0,0.0,0.0,0.0,0.0,0.0,1.0,0.0,0.0,0.0,0.0,0.0,0.0,0.0,0.0,0.0,0.0,0.0,0.0,1.0,0.0,0.0,0.0,0.0,0.0,0.0,0.0,0.0,0.0,0.0,0.0,0.0,1.0,0.0,0.0,0.0,0.0,0.0,0.0,0.0,0.0,0.0,0.0,0.0,0.0,1.0,0.0,0.0,0.0,0.0,0.0,0.0,0.0,0.0,0.0,0.0,0.0,0.0,1.0,0.0,0.0,0.0,0.0,0.0,0.0,0.0,0.0,0.0,0.0,0.0,0.0,1.0,0.0,0.0,0.0,0.0,0.0,0.0,0.0,0.0,0.0,0.0,0.0,0.0,1.0,0,0,0,0,0,0,0,0,0,0,0,0,0,0,0,0,0,0,0,0,0,0,0,0,0,0,0,0,0,0,0,0,0,0,0,0
1777383918.4749138,11,1777383907.9085908,,,0,0,,,0,0,0.0,0.0,0.0,0.0,0.0,0.0,0.0,0.0,0.0,0.0,0.0,0.0,0.0,0.0,0.0,0.0,0.0,0.0,0.0,0.0,0.0,0.0,0.0,0.0,0.0,0.0,0.0,732.6447143554688,593.350341796875,1123.378662109375,977.5107421875,651.1204223632812,1122.833251953125,798.0213012695312,419.52117919921875,1150.2918701171875,956.9918212890625,440.31884765625,1151.495849609375,668.9895629882812,544.6076049804688,876.4385375976562,666.1861572265625,660.8590087890625,639.93994140625,668.8762817382812,574.0894775390625,490.8936462402344,697.855712890625,524.9415893554688,298.1234130859375,798.5875244140625,446.8630065917969,232.91587829589844,649.9612426757812,670.1360473632812,193.15029907226562,1027.2115478515625,600.1871948242188,794.3387451171875,976.0360107421875,546.5325927734375,565.2291259765625,988.1612548828125,518.6122436523438,431.408447265625,943.4472045898438,462.01934814453125,227.99769592285156,887.1212158203125,374.5294189453125,168.822021484375,914.9095458984375,639.6720581054688,176.02227783203125,0.0,0.0,0.0,0.0,0.0,0.0,0.0,0.0,0.0,0.0,0.0,0.0,1.0,0.0,0.0,0.0,0.0,0.0,0.0,0.0,0.0,0.0,0.0,0.0,0.0,1.0,0.0,0.0,0.0,0.0,0.0,0.0,0.0,0.0,0.0,0.0,0.0,0.0,1.0,0.0,0.0,0.0,0.0,0.0,0.0,0.0,0.0,0.0,0.0,0.0,0.0,1.0,0.0,0.0,0.0,0.0,0.0,0.0,0.0,0.0,0.0,0.0,0.0,0.0,1.0,0.0,0.0,0.0,0.0,0.0,0.0,0.0,0.0,0.0,0.0,0.0,0.0,1.0,0.0,0.0,0.0,0.0,0.0,0.0,0.0,0.0,0.0,0.0,0.0,0.0,1.0,0,0,0,0,0,0,0,0,0,0,0,0,0,0,0,0,0,0,0,0,0,0,0,0,0,0,0,0,0,0,0,0,0,0,0,0
1777383918.4749138,12,1777383907.9276083,,,0,0,,,0,0,0.0,0.0,0.0,0.0,0.0,0.0,0.0,0.0,0.0,0.0,0.0,0.0,0.0,0.0,0.0,0.0,0.0,0.0,0.0,0.0,0.0,0.0,0.0,0.0,0.0,0.0,0.0,732.0668334960938,592.3433837890625,1123.44970703125,976.7190551757812,650.8355102539062,1122.50146484375,797.9684448242188,418.7777404785156,1150.667236328125,956.8276977539062,440.0626220703125,1151.81396484375,668.5748901367188,542.5480346679688,876.575927734375,666.3823852539062,660.0780029296875,639.84375,667.0828857421875,580.4949951171875,486.0296325683594,693.8218994140625,541.8032836914062,290.6372375488281,794.0042724609375,466.9574890136719,220.63253784179688,645.3657836914062,692.3195190429688,192.74403381347656,1026.8360595703125,597.2372436523438,794.0104370117188,976.2810668945312,540.8197021484375,565.2760620117188,988.34375,512.060791015625,431.48992919921875,943.4918212890625,454.5745544433594,228.27203369140625,887.2785034179688,367.0089111328125,168.99722290039062,915.1239624023438,632.1217041015625,176.03045654296875,0.0,0.0,0.0,0.0,0.0,0.0,0.0,0.0,0.0,0.0,0.0,0.0,1.0,0.0,0.0,0.0,0.0,0.0,0.0,0.0,0.0,0.0,0.0,0.0,0.0,1.0,0.0,0.0,0.0,0.0,0.0,0.0,0.0,0.0,0.0,0.0,0.0,0.0,1.0,0.0,0.0,0.0,0.0,0.0,0.0,0.0,0.0,0.0,0.0,0.0,0.0,1.0,0.0,0.0,0.0,0.0,0.0,0.0,0.0,0.0,0.0,0.0,0.0,0.0,1.0,0.0,0.0,0.0,0.0,0.0,0.0,0.0,0.0,0.0,0.0,0.0,0.0,1.0,0.0,0.0,0.0,0.0,0.0,0.0,0.0,0.0,0.0,0.0,0.0,0.0,1.0,0,0,0,0,0,0,0,0,0,0,0,0,0,0,0,0,0,0,0,0,0,0,0,0,0,0,0,0,0,0,0,0,0,0,0,0
1777383918.4749138,13,1777383907.9311192,,,0,0,,,0,0,0.0,0.0,0.0,0.0,0.0,0.0,0.0,0.0,0.0,0.0,0.0,0.0,0.0,0.0,0.0,0.0,0.0,0.0,0.0,0.0,0.0,0.0,0.0,0.0,0.0,0.0,0.0,731.443115234375,591.4620361328125,1123.3961181640625,975.9329223632812,650.556640625,1122.0770263671875,797.7732543945312,418.1378173828125,1150.9417724609375,956.5360717773438,439.83795166015625,1152.0462646484375,668.0470581054688,540.5579223632812,876.518310546875,666.6675415039062,658.8795166015625,639.4227294921875,665.197998046875,586.8815307617188,481.1589050292969,689.6555786132812,558.9569091796875,283.63482666015625,789.0689086914062,487.28216552734375,209.1300506591797,641.2525634765625,714.533203125,193.06211853027344,1026.434814453125,594.2423095703125,793.6566772460938,976.5122680664062,535.0952758789062,565.3239135742188,988.5223388671875,505.5101318359375,431.5760803222656,943.5377197265625,447.12835693359375,228.55191040039062,887.4371948242188,359.4784240722656,169.17703247070312,915.345458984375,624.5692138671875,176.03826904296875,0.0,0.0,0.0,0.0,0.0,0.0,0.0,0.0,0.0,0.0,0.0,0.0,1.0,0.0,0.0,0.0,0.0,0.0,0.0,0.0,0.0,0.0,0.0,0.0,0.0,1.0,0.0,0.0,0.0,0.0,0.0,0.0,0.0,0.0,0.0,0.0,0.0,0.0,1.0,0.0,0.0,0.0,0.0,0.0,0.0,0.0,0.0,0.0,0.0,0.0,0.0,1.0,0.0,0.0,0.0,0.0,0.0,0.0,0.0,0.0,0.0,0.0,0.0,0.0,1.0,0.0,0.0,0.0,0.0,0.0,0.0,0.0,0.0,0.0,0.0,0.0,0.0,1.0,0.0,0.0,0.0,0.0,0.0,0.0,0.0,0.0,0.0,0.0,0.0,0.0,1.0,0,0,0,0,0,0,0,0,0,0,0,0,0,0,0,0,0,0,0,0,0,0,0,0,0,0,0,0,0,0,0,0,0,0,0,0
1777383918.4749138,14,1777383907.942337,,,0,0,,,0,0,0.0,0.0,0.0,0.0,0.0,0.0,0.0,0.0,0.0,0.0,0.0,0.0,0.0,0.0,0.0,0.0,0.0,0.0,0.0,0.0,0.0,0.0,0.0,0.0,0.0,0.0,0.0,730.773681640625,590.71240234375,1123.219970703125,975.1511840820312,650.2871704101562,1121.5614013671875,797.4342651367188,417.6039123535156,1151.111083984375,956.1167602539062,439.64520263671875,1152.1881103515625,667.4065551757812,538.6455688476562,876.2694702148438,667.0198364257812,657.3260498046875,638.700927734375,663.2354736328125,593.2308959960938,476.3845520019531,685.425537109375,576.2694702148438,277.2516784667969,783.77099609375,507.639404296875,198.5165252685547,637.7872924804688,736.65966796875,194.24288940429688,1026.0025634765625,591.2251586914062,793.275146484375,976.720703125,529.3937377929688,565.3661499023438,988.6910400390625,498.9891052246094,431.6646728515625,943.5864868164062,439.6868591308594,228.8427734375,887.6002807617188,351.9367980957031,169.36520385742188,915.573486328125,617.013427734375,176.0426025390625,0.0,0.0,0.0,0.0,0.0,0.0,0.0,0.0,0.0,0.0,0.0,0.0,1.0,0.0,0.0,0.0,0.0,0.0,0.0,0.0,0.0,0.0,0.0,0.0,0.0,1.0,0.0,0.0,0.0,0.0,0.0,0.0,0.0,0.0,0.0,0.0,0.0,0.0,1.0,0.0,0.0,0.0,0.0,0.0,0.0,0.0,0.0,0.0,0.0,0.0,0.0,1.0,0.0,0.0,0.0,0.0,0.0,0.0,0.0,0.0,0.0,0.0,0.0,0.0,1.0,0.0,0.0,0.0,0.0,0.0,0.0,0.0,0.0,0.0,0.0,0.0,0.0,1.0,0.0,0.0,0.0,0.0,0.0,0.0,0.0,0.0,0.0,0.0,0.0,0.0,1.0,0,0,0,0,0,0,0,0,0,0,0,0,0,0,0,0,0,0,0,0,0,0,0,0,0,0,0,0,0,0,0,0,0,0,0,0
1777383918.4749138,15,1777383907.949683,1777383907.9488525,,0,0,0.8304119110107422,,1,0,0.0,0.0,0.0,0.0,0.0,0.0,0.0,0.0,0.0,0.0,0.0,0.0,0.0,0.0,0.0,0.0,0.0,0.0,0.0,0.0,0.0,0.0,0.0,0.0,0.0,0.0,0.0,730.0581665039062,590.0999755859375,1122.9248046875,974.371826171875,650.0306396484375,1120.9566650390625,796.9506225585938,417.178466796875,1151.1715087890625,955.569580078125,439.4848327636719,1152.235107421875,666.6547241210938,536.824462890625,875.8356323242188,667.4173583984375,655.4886474609375,637.707275390625,661.215576171875,599.5125122070312,471.8050842285156,681.2076416015625,593.5728759765625,271.596435546875,778.1190795898438,527.8161010742188,188.87506103515625,635.1231079101562,758.5435791015625,196.37718200683594,1025.5338134765625,588.2090454101562,792.86279296875,976.8959350585938,523.7479858398438,565.3967895507812,988.842041015625,492.5237121582031,431.75408935546875,943.6380615234375,432.2555236816406,229.15023803710938,887.7693481445312,344.3836364746094,169.56393432617188,915.8057861328125,609.4537353515625,176.03993225097656,4.254,0.7417,8.91,0.9766,0.0,-0.6104,4.7681,-25.4553,-129.0399,0.2162,-0.0581,-0.8837,0.411,5.2732,8.1683,-0.4307,0.1831,-0.3662,-0.061,93.0652,-32.8052,-106.7487,0.5713,0.4429,-0.6519,0.2292,1.3733,-8.331,5.101,-0.1831,-0.2441,0.4883,-58.5406,-7.9816,-65.6158,-0.3771,-0.3153,-0.4429,0.7498,0.2105,1.1676,9.9675,-0.5493,-0.2441,0.3052,6.6687,-1.2195,79.3707,0.038,-0.0453,0.637,0.7686,3.9143,-8.0965,3.943,0.4883,-0.6104,-0.6104,-64.0613,-23.5162,160.2136,-0.2594,0.4818,0.8362,0.0361,0.1531,2.2107,-9.3023,0.2441,-0.2441,0.3662,166.6241,-0.9009,-165.7397,0.1242,0.9854,-0.1165,0.0067,0.5981,-0.1388,9.9962,0.4883,0.061,-0.061,-0.7745,-3.4058,3.3508,-0.0076,-0.0295,0.0294,0.9991,0,0,0,0,0,0,0,0,0,0,0,0,0,0,0,0,0,0,0,0,0,0,0,0,0,0,0,0,0,0,0,0,0,0,0,0
1777383918.4749138,16,1777383907.9618113,1777383907.9488525,,0,0,12.958765029907227,,1,0,0.0,0.0,0.0,0.0,0.0,0.0,0.0,0.0,0.0,0.0,0.0,0.0,0.0,0.0,0.0,0.0,0.0,0.0,0.0,0.0,0.0,0.0,0.0,0.0,0.0,0.0,0.0,729.2952880859375,589.629638671875,1122.5150146484375,973.5916137695312,649.7910766601562,1120.2662353515625,796.3218994140625,416.8635559082031,1151.1201171875,954.89501953125,439.3576354980469,1152.183349609375,665.7943115234375,535.1141357421875,875.2259521484375,667.8387451171875,653.4452514648438,636.474609375,659.166015625,605.6831665039062,467.5068359375,677.0835571289062,610.6663208007812,266.741943359375,772.1513061523438,547.5857543945312,180.26556396484375,633.3840942382812,779.986572265625,199.49302673339844,1025.0230712890625,585.2174682617188,792.4163208007812,977.0263061523438,518.1889038085938,565.4105224609375,988.96630859375,486.1364440917969,431.8436279296875,943.6910400390625,424.8391418457031,229.48008728027344,887.9440307617188,336.81890869140625,169.77337646484375,916.0399169921875,601.889892578125,176.02743530273438,4.254,0.7417,8.91,0.9766,0.0,-0.6104,4.7681,-25.4553,-129.0399,0.2162,-0.0581,-0.8837,0.411,5.2732,8.1683,-0.4307,0.1831,-0.3662,-0.061,93.0652,-32.8052,-106.7487,0.5713,0.4429,-0.6519,0.2292,1.3733,-8.331,5.101,-0.1831,-0.2441,0.4883,-58.5406,-7.9816,-65.6158,-0.3771,-0.3153,-0.4429,0.7498,0.2105,1.1676,9.9675,-0.5493,-0.2441,0.3052,6.6687,-1.2195,79.3707,0.038,-0.0453,0.637,0.7686,3.9143,-8.0965,3.943,0.4883,-0.6104,-0.6104,-64.0613,-23.5162,160.2136,-0.2594,0.4818,0.8362,0.0361,0.1531,2.2107,-9.3023,0.2441,-0.2441,0.3662,166.6241,-0.9009,-165.7397,0.1242,0.9854,-0.1165,0.0067,0.5981,-0.1388,9.9962,0.4883,0.061,-0.061,-0.7745,-3.4058,3.3508,-0.0076,-0.0295,0.0294,0.9991,0,0,0,0,0,0,0,0,0,0,0,0,0,0,0,0,0,0,0,0,0,0,0,0,0,0,0,0,0,0,0,0,0,0,0,0
1777383918.4749138,17,1777383907.9650314,1777383907.9488525,,0,0,16.17884635925293,,1,0,0.0,0.0,0.0,0.0,0.0,0.0,0.0,0.0,0.0,0.0,0.0,0.0,0.0,0.0,0.0,0.0,0.0,0.0,0.0,0.0,0.0,0.0,0.0,0.0,0.0,0.0,0.0,728.4834594726562,589.3052978515625,1121.99658203125,972.8064575195312,649.5728149414062,1119.494873046875,795.5486450195312,416.660888671875,1150.954833984375,954.0939331054688,439.2646789550781,1152.0291748046875,664.8299560546875,533.5401611328125,874.4528198242188,668.2635498046875,651.2785034179688,635.0386352539062,657.1212158203125,611.6875610351562,463.5574645996094,673.138671875,627.3212890625,262.71875,765.944091796875,566.7100830078125,172.72479248046875,632.6513671875,800.74853515625,203.54441833496094,1024.4637451171875,582.2732543945312,791.9320068359375,977.0989379882812,512.7445068359375,565.4032592773438,989.053466796875,479.84613037109375,431.933837890625,943.74267578125,417.4419250488281,229.8382568359375,888.1217651367188,329.2431640625,169.99159240722656,916.2735595703125,594.32177734375,176.0039825439453,4.254,0.7417,8.91,0.9766,0.0,-0.6104,4.7681,-25.4553,-129.0399,0.2162,-0.0581,-0.8837,0.411,5.2732,8.1683,-0.4307,0.1831,-0.3662,-0.061,93.0652,-32.8052,-106.7487,0.5713,0.4429,-0.6519,0.2292,1.3733,-8.331,5.101,-0.1831,-0.2441,0.4883,-58.5406,-7.9816,-65.6158,-0.3771,-0.3153,-0.4429,0.7498,0.2105,1.1676,9.9675,-0.5493,-0.2441,0.3052,6.6687,-1.2195,79.3707,0.038,-0.0453,0.637,0.7686,3.9143,-8.0965,3.943,0.4883,-0.6104,-0.6104,-64.0613,-23.5162,160.2136,-0.2594,0.4818,0.8362,0.0361,0.1531,2.2107,-9.3023,0.2441,-0.2441,0.3662,166.6241,-0.9009,-165.7397,0.1242,0.9854,-0.1165,0.0067,0.5981,-0.1388,9.9962,0.4883,0.061,-0.061,-0.7745,-3.4058,3.3508,-0.0076,-0.0295,0.0294,0.9991,0,0,0,0,0,0,0,0,0,0,0,0,0,0,0,0,0,0,0,0,0,0,0,0,0,0,0,0,0,0,0,0,0,0,0,0
1777383918.4749138,18,1777383907.977715,,,0,0,,,0,0,0.0,0.0,0.0,0.0,0.0,0.0,0.0,0.0,0.0,0.0,0.0,0.0,0.0,0.0,0.0,0.0,0.0,0.0,0.0,0.0,0.0,0.0,0.0,0.0,0.0,0.0,0.0,727.6202392578125,589.1298217773438,1121.376708984375,972.0113525390625,649.3807983398438,1118.6480712890625,794.6318969726562,416.57171630859375,1150.675048828125,953.167724609375,439.2073669433594,1151.7703857421875,663.76904296875,532.1334228515625,873.5313720703125,668.6732177734375,649.0728149414062,633.436767578125,655.1216430664062,617.4605712890625,460.0005798339844,669.4594116210938,643.290283203125,259.5119323730469,759.6165161132812,584.940673828125,166.2646026611328,632.9539184570312,820.5555419921875,208.4051971435547,1023.8490600585938,579.3986206054688,791.406494140625,977.1002197265625,507.44000244140625,565.3722534179688,989.0924682617188,473.6681823730469,432.02655029296875,943.7887573242188,410.067626953125,230.23089599609375,888.2982788085938,321.6572570800781,170.2153778076172,916.5054321289062,586.7493286132812,175.9704132080078,0.0,0.0,0.0,0.0,0.0,0.0,0.0,0.0,0.0,0.0,0.0,0.0,1.0,0.0,0.0,0.0,0.0,0.0,0.0,0.0,0.0,0.0,0.0,0.0,0.0,1.0,0.0,0.0,0.0,0.0,0.0,0.0,0.0,0.0,0.0,0.0,0.0,0.0,1.0,0.0,0.0,0.0,0.0,0.0,0.0,0.0,0.0,0.0,0.0,0.0,0.0,1.0,0.0,0.0,0.0,0.0,0.0,0.0,0.0,0.0,0.0,0.0,0.0,0.0,1.0,0.0,0.0,0.0,0.0,0.0,0.0,0.0,0.0,0.0,0.0,0.0,0.0,1.0,0.0,0.0,0.0,0.0,0.0,0.0,0.0,0.0,0.0,0.0,0.0,0.0,1.0,0,0,0,0,0,0,0,0,0,0,0,0,0,0,0,0,0,0,0,0,0,0,0,0,0,0,0,0,0,0,0,0,0,0,0,0
1777383918.4749138,19,1777383908.010067,1777383908.0093765,,0,0,0.690460205078125,,1,0,0.0,0.0,0.0,0.0,0.0,0.0,0.0,0.0,0.0,0.0,0.0,0.0,0.0,0.0,0.0,0.0,0.0,0.0,0.0,0.0,0.0,0.0,0.0,0.0,0.0,0.0,0.0,726.7029418945312,589.1047973632812,1120.6640625,971.2006225585938,649.2203979492188,1117.733154296875,793.5738525390625,416.5967712402344,1150.2816162109375,952.118408203125,439.1874084472656,1151.405517578125,662.62158203125,530.9285278320312,872.4793701171875,669.0513305664062,646.911376953125,631.7066650390625,653.21142578125,622.9299926757812,456.853271484375,666.1298217773438,658.318115234375,257.06134033203125,753.3294677734375,602.0203857421875,160.86947631835938,634.266845703125,839.1135864257812,213.86875915527344,1023.171142578125,576.6144409179688,790.8366088867188,977.0159912109375,502.2976379394531,565.3162231445312,989.0715942382812,467.6147155761719,432.1250915527344,943.8238525390625,402.71954345703125,230.6645965576172,888.4675903320312,314.0622863769531,170.44155883789062,916.7348022460938,579.1722412109375,175.92926025390625,4.2588,0.7369,8.9052,0.9766,-0.061,-0.6104,4.7681,-25.4553,-129.0399,0.2162,-0.0581,-0.8837,0.411,5.2685,8.1635,-0.4354,0.1831,-0.4272,-0.1221,93.0597,-32.8052,-106.8036,0.571,0.4431,-0.652,0.2289,1.3686,-8.3262,5.0962,-0.2441,-0.2441,0.4272,-58.5352,-7.9816,-65.6158,-0.377,-0.3153,-0.4429,0.7499,0.2153,1.1676,9.9627,-0.5493,-0.2441,0.3052,6.6687,-1.2195,79.3707,0.038,-0.0453,0.637,0.7686,3.9143,-8.1061,3.9478,0.4272,-0.5493,-0.6104,-64.0558,-23.5162,160.2081,-0.2594,0.4818,0.8362,0.0362,0.1483,2.2107,-9.3071,0.2441,-0.1831,0.3662,166.6241,-0.9064,-165.3882,0.1272,0.985,-0.1165,0.007,0.5981,-0.134,9.9914,0.4272,0.0,-0.1221,-0.7745,-3.4058,3.3289,-0.0076,-0.0295,0.0292,0.9991,0,0,0,0,0,0,0,0,0,0,0,0,0,0,0,0,0,0,0,0,0,0,0,0,0,0,0,0,0,0,0,0,0,0,0,0
1777383918.4749138,21,1777383908.0113769,1777383908.0093765,,1,1,2.0003318786621094,,1,0,0.0,0.0,0.0,0.0,0.0,0.0,0.0,0.0,0.0,0.0,0.0,0.0,0.0,0.0,0.0,0.0,0.0,0.0,0.0,0.0,0.0,0.0,0.0,0.0,0.0,0.0,0.0,724.6935424804688,589.5067749023438,1119.001220703125,969.50634765625,649.0171508789062,1115.732421875,791.0460815429688,416.9896240234375,1149.1668701171875,949.6608276367188,439.2674865722656,1150.359619140625,660.1210327148438,529.2705688476562,870.0637817382812,669.6621704101562,643.0289306640625,628.0066528320312,649.8377685546875,632.6608276367188,451.7237243652344,660.8139038085938,684.5698852539062,253.99154663085938,741.6735229492188,631.6707763671875,153.0640411376953,639.5791625976562,871.3207397460938,225.42103576660156,1021.5925903320312,571.3971557617188,789.554443359375,976.5342407226562,492.5784606933594,565.1304931640625,988.8042602539062,455.9173278808594,432.3595275878906,943.8333740234375,388.11260986328125,231.68441772460938,888.7577514648438,298.8517761230469,170.8991241455078,917.185791015625,564.003173828125,175.8378448486328,4.2588,0.7369,8.9052,0.9766,-0.061,-0.6104,4.7681,-25.4553,-129.0399,0.2162,-0.0581,-0.8837,0.411,5.2685,8.1635,-0.4354,0.1831,-0.4272,-0.1221,93.0597,-32.8052,-106.8036,0.571,0.4431,-0.652,0.2289,1.3686,-8.3262,5.0962,-0.2441,-0.2441,0.4272,-58.5352,-7.9816,-65.6158,-0.377,-0.3153,-0.4429,0.7499,0.2153,1.1676,9.9627,-0.5493,-0.2441,0.3052,6.6687,-1.2195,79.3707,0.038,-0.0453,0.637,0.7686,3.9143,-8.1061,3.9478,0.4272,-0.5493,-0.6104,-64.0558,-23.5162,160.2081,-0.2594,0.4818,0.8362,0.0362,0.1483,2.2107,-9.3071,0.2441,-0.1831,0.3662,166.6241,-0.9064,-165.3882,0.1272,0.985,-0.1165,0.007,0.5981,-0.134,9.9914,0.4272,0.0,-0.1221,-0.7745,-3.4058,3.3289,-0.0076,-0.0295,0.0292,0.9991,0,0,0,0,0,0,0,0,0,0,0,0,0,0,0,0,0,0,0,0,0,0,0,0,0,0,0,0,0,0,0,0,0,0,0,0
1777383918.4749138,22,1777383908.0245967,1777383908.0093765,,0,0,15.220165252685547,,1,0,0.0,0.0,0.0,0.0,0.0,0.0,0.0,0.0,0.0,0.0,0.0,0.0,0.0,0.0,0.0,0.0,0.0,0.0,0.0,0.0,0.0,0.0,0.0,0.0,0.0,0.0,0.0,723.5946655273438,589.9309692382812,1118.074951171875,968.6088256835938,648.9859008789062,1114.666748046875,789.58447265625,417.3559265136719,1148.45703125,948.2592163085938,439.37164306640625,1149.6842041015625,658.8005981445312,528.8865966796875,868.7425537109375,669.877197265625,641.4403076171875,626.1026611328125,648.4550170898438,636.784423828125,449.6529846191406,658.9367065429688,695.3660278320312,253.08319091796875,736.7229614257812,643.7168579101562,150.47837829589844,643.311279296875,884.4575805664062,230.79022216796875,1020.6753540039062,569.001953125,788.839599609375,976.110107421875,488.0389404296875,565.0037841796875,988.5361328125,450.28802490234375,432.50787353515625,943.7916870117188,380.85833740234375,232.2871551513672,888.8662719726562,291.241455078125,171.14044189453125,917.4077758789062,556.4124755859375,175.79238891601562,4.2588,0.7369,8.9052,0.9766,-0.061,-0.6104,4.7681,-25.4553,-129.0399,0.2162,-0.0581,-0.8837,0.411,5.2685,8.1635,-0.4354,0.1831,-0.4272,-0.1221,93.0597,-32.8052,-106.8036,0.571,0.4431,-0.652,0.2289,1.3686,-8.3262,5.0962,-0.2441,-0.2441,0.4272,-58.5352,-7.9816,-65.6158,-0.377,-0.3153,-0.4429,0.7499,0.2153,1.1676,9.9627,-0.5493,-0.2441,0.3052,6.6687,-1.2195,79.3707,0.038,-0.0453,0.637,0.7686,3.9143,-8.1061,3.9478,0.4272,-0.5493,-0.6104,-64.0558,-23.5162,160.2081,-0.2594,0.4818,0.8362,0.0362,0.1483,2.2107,-9.3071,0.2441,-0.1831,0.3662,166.6241,-0.9064,-165.3882,0.1272,0.985,-0.1165,0.007,0.5981,-0.134,9.9914,0.4272,0.0,-0.1221,-0.7745,-3.4058,3.3289,-0.0076,-0.0295,0.0292,0.9991,0,0,0,0,0,0,0,0,0,0,0,0,0,0,0,0,0,0,0,0,0,0,0,0,0,0,0,0,0,0,0,0,0,0,0,0
1777383918.4749138,23,1777383908.0267916,1777383908.0093765,,0,0,17.41504669189453,,1,0,0.0,0.0,0.0,0.0,0.0,0.0,0.0,0.0,0.0,0.0,0.0,0.0,0.0,0.0,0.0,0.0,0.0,0.0,0.0,0.0,0.0,0.0,0.0,0.0,0.0,0.0,0.0,722.4284057617188,590.5,1117.103271484375,967.6681518554688,649.0089721679688,1113.5726318359375,787.9977416992188,417.8333435058594,1147.656982421875,946.7476196289062,439.5210876464844,1148.9140625,657.45703125,528.8375244140625,867.3742065429688,670.025634765625,640.1557006835938,624.2005615234375,647.3164672851562,640.3389892578125,447.826416015625,657.6159057617188,704.3926391601562,252.37884521484375,732.5970458984375,653.5863647460938,148.62229919433594,647.5406494140625,895.3615112304688,235.3759765625,1019.6627807617188,566.7741088867188,788.0755004882812,975.548095703125,483.739013671875,564.8572998046875,988.1657104492188,444.81500244140625,432.6864013671875,943.7078247070312,373.6401672363281,232.96466064453125,888.9452514648438,283.6336669921875,171.4081268310547,917.6276245117188,548.8212280273438,175.74630737304688,4.2588,0.7369,8.9052,0.9766,-0.061,-0.6104,4.7681,-25.4553,-129.0399,0.2162,-0.0581,-0.8837,0.411,5.2685,8.1635,-0.4354,0.1831,-0.4272,-0.1221,93.0597,-32.8052,-106.8036,0.571,0.4431,-0.652,0.2289,1.3686,-8.3262,5.0962,-0.2441,-0.2441,0.4272,-58.5352,-7.9816,-65.6158,-0.377,-0.3153,-0.4429,0.7499,0.2153,1.1676,9.9627,-0.5493,-0.2441,0.3052,6.6687,-1.2195,79.3707,0.038,-0.0453,0.637,0.7686,3.9143,-8.1061,3.9478,0.4272,-0.5493,-0.6104,-64.0558,-23.5162,160.2081,-0.2594,0.4818,0.8362,0.0362,0.1483,2.2107,-9.3071,0.2441,-0.1831,0.3662,166.6241,-0.9064,-165.3882,0.1272,0.985,-0.1165,0.007,0.5981,-0.134,9.9914,0.4272,0.0,-0.1221,-0.7745,-3.4058,3.3289,-0.0076,-0.0295,0.0292,0.9991,0,0,0,0,0,0,0,0,0,0,0,0,0,0,0,0,0,0,0,0,0,0,0,0,0,0,0,0,0,0,0,0,0,0,0,0
1777383918.4749138,24,1777383908.0407972,,,0,0,,,0,0,0.0,0.0,0.0,0.0,0.0,0.0,0.0,0.0,0.0,0.0,0.0,0.0,0.0,0.0,0.0,0.0,0.0,0.0,0.0,0.0,0.0,0.0,0.0,0.0,0.0,0.0,0.0,721.1915283203125,591.20947265625,1116.1005859375,966.677001953125,649.0912475585938,1112.462890625,786.291748046875,418.4193115234375,1146.778076171875,945.130615234375,439.71722412109375,1148.0570068359375,656.1082153320312,529.1423950195312,865.979736328125,670.1064453125,639.2095947265625,622.3240966796875,646.440185546875,643.2891845703125,446.17230224609375,656.843994140625,711.5567016601562,251.7252655029297,729.4041748046875,661.083740234375,147.38143920898438,652.0863037109375,903.9310913085938,238.82101440429688,1018.548828125,564.7328491210938,787.2632446289062,974.8389892578125,479.7016906738281,564.693115234375,987.6856689453125,439.5083923339844,432.9026794433594,943.5739135742188,366.4618835449219,233.7284698486328,888.99462890625,276.0355224609375,171.7271270751953,917.845703125,541.2345581054688,175.6951446533203,0.0,0.0,0.0,0.0,0.0,0.0,0.0,0.0,0.0,0.0,0.0,0.0,1.0,0.0,0.0,0.0,0.0,0.0,0.0,0.0,0.0,0.0,0.0,0.0,0.0,1.0,0.0,0.0,0.0,0.0,0.0,0.0,0.0,0.0,0.0,0.0,0.0,0.0,1.0,0.0,0.0,0.0,0.0,0.0,0.0,0.0,0.0,0.0,0.0,0.0,0.0,1.0,0.0,0.0,0.0,0.0,0.0,0.0,0.0,0.0,0.0,0.0,0.0,0.0,1.0,0.0,0.0,0.0,0.0,0.0,0.0,0.0,0.0,0.0,0.0,0.0,0.0,1.0,0.0,0.0,0.0,0.0,0.0,0.0,0.0,0.0,0.0,0.0,0.0,0.0,1.0,0,0,0,0,0,0,0,0,0,0,0,0,0,0,0,0,0,0,0,0,0,0,0,0,0,0,0,0,0,0,0,0,0,0,0,0
1777383918.4749138,25,1777383908.0443058,,,0,0,,,0,0,0.0,0.0,0.0,0.0,0.0,0.0,0.0,0.0,0.0,0.0,0.0,0.0,0.0,0.0,0.0,0.0,0.0,0.0,0.0,0.0,0.0,0.0,0.0,0.0,0.0,0.0,0.0,719.8809204101562,592.0537109375,1115.0823974609375,965.6284790039062,649.236572265625,1111.35107421875,784.4729614257812,419.1103820800781,1145.8336181640625,943.4132080078125,439.960693359375,1147.122802734375,654.7701416015625,529.8101806640625,864.579345703125,670.1209716796875,638.62158203125,620.4931640625,645.831298828125,645.6203002929688,444.6231384277344,656.583251953125,716.8311157226562,250.9924774169922,727.1693725585938,666.0828247070312,146.654052734375,656.7640380859375,910.1498413085938,240.83438110351562,1017.329345703125,562.8982543945312,786.4051513671875,973.9763793945312,475.9545593261719,564.512939453125,987.091064453125,434.3823547363281,433.164306640625,943.3838500976562,359.3294677734375,234.59222412109375,889.018310546875,268.45672607421875,172.13304138183594,918.0621948242188,533.6586303710938,175.6317596435547,0.0,0.0,0.0,0.0,0.0,0.0,0.0,0.0,0.0,0.0,0.0,0.0,1.0,0.0,0.0,0.0,0.0,0.0,0.0,0.0,0.0,0.0,0.0,0.0,0.0,1.0,0.0,0.0,0.0,0.0,0.0,0.0,0.0,0.0,0.0,0.0,0.0,0.0,1.0,0.0,0.0,0.0,0.0,0.0,0.0,0.0,0.0,0.0,0.0,0.0,0.0,1.0,0.0,0.0,0.0,0.0,0.0,0.0,0.0,0.0,0.0,0.0,0.0,0.0,1.0,0.0,0.0,0.0,0.0,0.0,0.0,0.0,0.0,0.0,0.0,0.0,0.0,1.0,0.0,0.0,0.0,0.0,0.0,0.0,0.0,0.0,0.0,0.0,0.0,0.0,1.0,0,0,0,0,0,0,0,0,0,0,0,0,0,0,0,0,0,0,0,0,0,0,0,0,0,0,0,0,0,0,0,0,0,0,0,0
1777383918.4749138,26,1777383908.0583053,,,0,0,,,0,0,0.0,0.0,0.0,0.0,0.0,0.0,0.0,0.0,0.0,0.0,0.0,0.0,0.0,0.0,0.0,0.0,0.0,0.0,0.0,0.0,0.0,0.0,0.0,0.0,0.0,0.0,0.0,718.4942016601562,593.0258178710938,1114.0645751953125,964.5159301757812,649.4475708007812,1110.2518310546875,782.54833984375,419.90216064453125,1144.839111328125,941.6010131835938,440.25140380859375,1146.1236572265625,653.4561767578125,530.83837890625,863.1923828125,670.0720825195312,638.3965454101562,618.7251586914062,645.4813232421875,647.3405151367188,443.1236267089844,656.7669067382812,720.2583618164062,250.085693359375,725.8287353515625,668.55712890625,146.35609436035156,661.3923950195312,914.0897216796875,241.2266082763672,1016.0025024414062,561.2918701171875,785.5049438476562,972.9570922851562,472.5311584472656,564.3179321289062,986.3796997070312,429.45684814453125,433.4790954589844,943.1338500976562,352.25238037109375,235.57223510742188,889.0236206054688,260.90966796875,172.67225646972656,918.2769775390625,526.1002807617188,175.54742431640625,0.0,0.0,0.0,0.0,0.0,0.0,0.0,0.0,0.0,0.0,0.0,0.0,1.0,0.0,0.0,0.0,0.0,0.0,0.0,0.0,0.0,0.0,0.0,0.0,0.0,1.0,0.0,0.0,0.0,0.0,0.0,0.0,0.0,0.0,0.0,0.0,0.0,0.0,1.0,0.0,0.0,0.0,0.0,0.0,0.0,0.0,0.0,0.0,0.0,0.0,0.0,1.0,0.0,0.0,0.0,0.0,0.0,0.0,0.0,0.0,0.0,0.0,0.0,0.0,1.0,0.0,0.0,0.0,0.0,0.0,0.0,0.0,0.0,0.0,0.0,0.0,0.0,1.0,0.0,0.0,0.0,0.0,0.0,0.0,0.0,0.0,0.0,0.0,0.0,0.0,1.0,0,0,0,0,0,0,0,0,0,0,0,0,0,0,0,0,0,0,0,0,0,0,0,0,0,0,0,0,0,0,0,0,0,0,0,0
1777383918.4749138,27,1777383908.0738165,,,0,0,,,0,0,0.0,0.0,0.0,0.0,0.0,0.0,0.0,0.0,0.0,0.0,0.0,0.0,0.0,0.0,0.0,0.0,0.0,0.0,0.0,0.0,0.0,0.0,0.0,0.0,0.0,0.0,0.0,717.0296020507812,594.1175537109375,1113.06396484375,963.3334350585938,649.7250366210938,1109.18017578125,780.5254516601562,420.7892150878906,1143.8118896484375,939.6998901367188,440.5879821777344,1145.073486328125,652.17578125,532.2125854492188,861.8373413085938,669.9629516601562,638.5253295898438,617.0355834960938,645.3672485351562,648.4814453125,441.6364440917969,657.3038940429688,721.9492797851562,248.95248413085938,725.2423706054688,668.6043090820312,146.4204559326172,665.7980346679688,915.9063720703125,239.9364013671875,1014.5690307617188,559.9366455078125,784.5677490234375,971.7820434570312,469.4718933105469,564.1087646484375,985.552734375,424.759033203125,433.8554992675781,942.82373046875,345.2449951171875,236.68809509277344,889.0204467773438,253.40911865234375,173.40066528320312,918.489501953125,518.5653076171875,175.43368530273438,0.0,0.0,0.0,0.0,0.0,0.0,0.0,0.0,0.0,0.0,0.0,0.0,1.0,0.0,0.0,0.0,0.0,0.0,0.0,0.0,0.0,0.0,0.0,0.0,0.0,1.0,0.0,0.0,0.0,0.0,0.0,0.0,0.0,0.0,0.0,0.0,0.0,0.0,1.0,0.0,0.0,0.0,0.0,0.0,0.0,0.0,0.0,0.0,0.0,0.0,0.0,1.0,0.0,0.0,0.0,0.0,0.0,0.0,0.0,0.0,0.0,0.0,0.0,0.0,1.0,0.0,0.0,0.0,0.0,0.0,0.0,0.0,0.0,0.0,0.0,0.0,0.0,1.0,0.0,0.0,0.0,0.0,0.0,0.0,0.0,0.0,0.0,0.0,0.0,0.0,1.0,0,0,0,0,0,0,0,0,0,0,0,0,0,0,0,0,0,0,0,0,0,0,0,0,0,0,0,0,0,0,0,0,0,0,0,0
1777383918.4749138,28,1777383908.077325,,,0,0,,,0,0,0.0,0.0,0.0,0.0,0.0,0.0,0.0,0.0,0.0,0.0,0.0,0.0,0.0,0.0,0.0,0.0,0.0,0.0,0.0,0.0,0.0,0.0,0.0,0.0,0.0,0.0,0.0,715.4863891601562,595.3192749023438,1112.097412109375,962.0760498046875,650.0679931640625,1108.152099609375,778.4122924804688,421.764892578125,1142.7706298828125,937.7162475585938,440.9678039550781,1143.98779296875,650.933837890625,533.9066162109375,860.5323486328125,669.7959594726562,638.9861450195312,615.439208984375,645.4515380859375,649.0960083007812,440.1455383300781,658.0858764648438,722.0756225585938,247.58447265625,725.2219848632812,666.4547729492188,146.79270935058594,669.8234252929688,915.826416015625,237.04397583007812,1013.0325317382812,558.8572387695312,783.6006469726562,970.4569091796875,466.824462890625,563.8858642578125,984.615478515625,420.32427978515625,434.3028869628906,942.45751953125,338.32806396484375,237.96324157714844,889.0198974609375,245.97166442871094,174.38101196289062,918.6986083984375,511.05780029296875,175.28443908691406,0.0,0.0,0.0,0.0,0.0,0.0,0.0,0.0,0.0,0.0,0.0,0.0,1.0,0.0,0.0,0.0,0.0,0.0,0.0,0.0,0.0,0.0,0.0,0.0,0.0,1.0,0.0,0.0,0.0,0.0,0.0,0.0,0.0,0.0,0.0,0.0,0.0,0.0,1.0,0.0,0.0,0.0,0.0,0.0,0.0,0.0,0.0,0.0,0.0,0.0,0.0,1.0,0.0,0.0,0.0,0.0,0.0,0.0,0.0,0.0,0.0,0.0,0.0,0.0,1.0,0.0,0.0,0.0,0.0,0.0,0.0,0.0,0.0,0.0,0.0,0.0,0.0,1.0,0.0,0.0,0.0,0.0,0.0,0.0,0.0,0.0,0.0,0.0,0.0,0.0,1.0,0,0,0,0,0,0,0,0,0,0,0,0,0,0,0,0,0,0,0,0,0,0,0,0,0,0,0,0,0,0,0,0,0,0,0,0
1777383918.4749138,29,1777383908.0903242,1777383908.0903242,,0,0,0.0,,1,0,0.0,0.0,0.0,0.0,0.0,0.0,0.0,0.0,0.0,0.0,0.0,0.0,0.0,0.0,0.0,0.0,0.0,0.0,0.0,0.0,0.0,0.0,0.0,0.0,0.0,0.0,0.0,713.8648071289062,596.6198120117188,1111.181884765625,960.73974609375,650.4730224609375,1107.1832275390625,776.2173461914062,422.8213806152344,1141.735107421875,935.65673828125,441.38677978515625,1142.8839111328125,649.7302856445312,535.8834228515625,859.295166015625,669.57177734375,639.746337890625,613.95068359375,645.6828002929688,649.2550659179688,438.656005859375,658.9971923828125,720.8563842773438,246.0133514404297,725.565185546875,662.4561767578125,147.42514038085938,673.3372802734375,914.1260375976562,232.76632690429688,1011.3997192382812,558.0795288085938,782.6127319335938,968.9922485351562,464.64361572265625,563.6500854492188,983.577880859375,416.1966552734375,434.8324890136719,942.0440063476562,331.53021240234375,239.4252166748047,889.0314331054688,238.61489868164062,175.67898559570312,918.902587890625,503.5793151855469,175.09808349609375,4.2588,0.7417,8.9147,1.0376,-0.1221,-0.5493,4.7681,-25.4553,-129.0399,0.2162,-0.0581,-0.8837,0.411,5.2685,8.1683,-0.4307,0.1831,-0.3662,-0.1221,93.0597,-32.8052,-106.8091,0.571,0.4431,-0.652,0.2289,1.3733,-8.3357,5.0962,-0.2441,-0.2441,0.4883,-58.5352,-7.9816,-65.6158,-0.377,-0.3153,-0.4429,0.7499,0.2153,1.1628,9.9723,-0.5493,-0.1831,0.3052,6.6687,-1.2195,79.3707,0.038,-0.0453,0.637,0.7686,3.9238,-8.1013,3.9382,0.4272,-0.5493,-0.6714,-64.0558,-23.5162,160.2081,-0.2594,0.4818,0.8362,0.0362,0.1483,2.2107,-9.3071,0.2441,-0.2441,0.3662,166.6241,-0.9064,-165.3717,0.1274,0.985,-0.1165,0.007,0.5934,-0.134,9.9962,0.4272,0.0,-0.061,-0.7745,-3.4058,3.3289,-0.0076,-0.0295,0.0292,0.9991,0,0,0,0,0,0,0,0,0,0,0,0,0,0,0,0,0,0,0,0,0,0,0,0,0,0,0,0,0,0,0,0,0,0,0,0
1777383918.4749138,30,1777383908.1059005,1777383908.0903242,,0,0,15.576362609863281,,1,0,0.0,0.0,0.0,0.0,0.0,0.0,0.0,0.0,0.0,0.0,0.0,0.0,0.0,0.0,0.0,0.0,0.0,0.0,0.0,0.0,0.0,0.0,0.0,0.0,0.0,0.0,0.0,712.16650390625,598.0066528320312,1110.33447265625,959.3221435546875,650.9340209960938,1106.28955078125,773.94921875,423.9496765136719,1140.725830078125,933.5285034179688,441.8393249511719,1141.7799072265625,648.5602416992188,538.0966796875,858.1434936523438,669.2888793945312,640.764404296875,612.5847778320312,645.9970092773438,649.0416259765625,437.191650390625,659.9252319335938,718.5376586914062,244.302001953125,726.0861206054688,657.0302734375,148.27076721191406,676.2476806640625,911.1024169921875,227.4327850341797,1009.680419921875,557.630126953125,781.6154174804688,967.4043579101562,462.9902038574219,563.4031372070312,982.454833984375,412.42926025390625,435.4578552246094,941.5975341796875,324.88958740234375,241.1059112548828,889.060791015625,231.3574676513672,177.35882568359375,919.0992431640625,496.1288146972656,174.87893676757812,4.2588,0.7417,8.9147,1.0376,-0.1221,-0.5493,4.7681,-25.4553,-129.0399,0.2162,-0.0581,-0.8837,0.411,5.2685,8.1683,-0.4307,0.1831,-0.3662,-0.1221,93.0597,-32.8052,-106.8091,0.571,0.4431,-0.652,0.2289,1.3733,-8.3357,5.0962,-0.2441,-0.2441,0.4883,-58.5352,-7.9816,-65.6158,-0.377,-0.3153,-0.4429,0.7499,0.2153,1.1628,9.9723,-0.5493,-0.1831,0.3052,6.6687,-1.2195,79.3707,0.038,-0.0453,0.637,0.7686,3.9238,-8.1013,3.9382,0.4272,-0.5493,-0.6714,-64.0558,-23.5162,160.2081,-0.2594,0.4818,0.8362,0.0362,0.1483,2.2107,-9.3071,0.2441,-0.2441,0.3662,166.6241,-0.9064,-165.3717,0.1274,0.985,-0.1165,0.007,0.5934,-0.134,9.9962,0.4272,0.0,-0.061,-0.7745,-3.4058,3.3289,-0.0076,-0.0295,0.0292,0.9991,0,0,0,0,0,0,0,0,0,0,0,0,0,0,0,0,0,0,0,0,0,0,0,0,0,0,0,0,0,0,0,0,0,0,0,0
1777383918.4749138,31,1777383908.1083474,1777383908.0903242,,0,0,18.023252487182617,,1,0,0.0,0.0,0.0,0.0,0.0,0.0,0.0,0.0,0.0,0.0,0.0,0.0,0.0,0.0,0.0,0.0,0.0,0.0,0.0,0.0,0.0,0.0,0.0,0.0,0.0,0.0,0.0,710.3944702148438,599.4658203125,1109.571533203125,957.8223266601562,651.4423828125,1105.486572265625,771.6170654296875,425.13934326171875,1139.762939453125,931.3388671875,442.3181457519531,1140.69482421875,647.4144897460938,540.4926147460938,857.0951538085938,668.9443969726562,641.991455078125,611.3557739257812,646.321533203125,648.5435791015625,435.7899475097656,660.7713012695312,715.3695678710938,242.5322265625,726.6357421875,650.6123657226562,149.2788543701172,678.5157470703125,907.042724609375,221.44314575195312,1007.8875732421875,557.534912109375,780.6226196289062,965.7149047851562,461.9295654296875,563.148193359375,981.26611328125,409.08355712890625,436.1951904296875,941.1373901367188,318.4551086425781,243.0410614013672,889.1072998046875,224.2201690673828,179.47962951660156,919.2861938476562,488.70367431640625,174.63742065429688,4.2588,0.7417,8.9147,1.0376,-0.1221,-0.5493,4.7681,-25.4553,-129.0399,0.2162,-0.0581,-0.8837,0.411,5.2685,8.1683,-0.4307,0.1831,-0.3662,-0.1221,93.0597,-32.8052,-106.8091,0.571,0.4431,-0.652,0.2289,1.3733,-8.3357,5.0962,-0.2441,-0.2441,0.4883,-58.5352,-7.9816,-65.6158,-0.377,-0.3153,-0.4429,0.7499,0.2153,1.1628,9.9723,-0.5493,-0.1831,0.3052,6.6687,-1.2195,79.3707,0.038,-0.0453,0.637,0.7686,3.9238,-8.1013,3.9382,0.4272,-0.5493,-0.6714,-64.0558,-23.5162,160.2081,-0.2594,0.4818,0.8362,0.0362,0.1483,2.2107,-9.3071,0.2441,-0.2441,0.3662,166.6241,-0.9064,-165.3717,0.1274,0.985,-0.1165,0.007,0.5934,-0.134,9.9962,0.4272,0.0,-0.061,-0.7745,-3.4058,3.3289,-0.0076,-0.0295,0.0292,0.9991,0,0,0,0,0,0,0,0,0,0,0,0,0,0,0,0,0,0,0,0,0,0,0,0,0,0,0,0,0,0,0,0,0,0,0,0
1777383918.4749138,32,1777383908.1218784,,,0,0,,,0,0,0.0,0.0,0.0,0.0,0.0,0.0,0.0,0.0,0.0,0.0,0.0,0.0,0.0,0.0,0.0,0.0,0.0,0.0,0.0,0.0,0.0,0.0,0.0,0.0,0.0,0.0,0.0,708.5531005859375,600.9818725585938,1108.9088134765625,956.2415161132812,651.9867553710938,1104.7889404296875,769.2301635742188,426.37884521484375,1138.8663330078125,929.0953369140625,442.81451416015625,1139.647705078125,646.2804565429688,543.0126953125,856.1672973632812,668.534912109375,643.3734741210938,610.2764892578125,646.5801391601562,647.8447875976562,434.49566650390625,661.4592895507812,711.58154296875,240.79141235351562,727.1111450195312,643.593017578125,150.39227294921875,680.162353515625,902.1978759765625,215.2165069580078,1006.037109375,557.8179931640625,779.6508178710938,963.951171875,461.52923583984375,562.8906860351562,980.0364379882812,406.22833251953125,437.06353759765625,940.6873168945312,312.2874450683594,245.26951599121094,889.1632690429688,217.22891235351562,182.0950927734375,919.461181640625,481.3013916015625,174.3887481689453,0.0,0.0,0.0,0.0,0.0,0.0,0.0,0.0,0.0,0.0,0.0,0.0,1.0,0.0,0.0,0.0,0.0,0.0,0.0,0.0,0.0,0.0,0.0,0.0,0.0,1.0,0.0,0.0,0.0,0.0,0.0,0.0,0.0,0.0,0.0,0.0,0.0,0.0,1.0,0.0,0.0,0.0,0.0,0.0,0.0,0.0,0.0,0.0,0.0,0.0,0.0,1.0,0.0,0.0,0.0,0.0,0.0,0.0,0.0,0.0,0.0,0.0,0.0,0.0,1.0,0.0,0.0,0.0,0.0,0.0,0.0,0.0,0.0,0.0,0.0,0.0,0.0,1.0,0.0,0.0,0.0,0.0,0.0,0.0,0.0,0.0,0.0,0.0,0.0,0.0,1.0,0,0,0,0,0,0,0,0,0,0,0,0,0,0,0,0,0,0,0,0,0,0,0,0,0,0,0,0,0,0,0,0,0,0,0,0
1777383918.4749138,33,1777383908.1238823,,,0,0,,,0,0,0.0,0.0,0.0,0.0,0.0,0.0,0.0,0.0,0.0,0.0,0.0,0.0,0.0,0.0,0.0,0.0,0.0,0.0,0.0,0.0,0.0,0.0,0.0,0.0,0.0,0.0,0.0,706.6484985351562,602.5385131835938,1108.360107421875,954.5830078125,652.5530395507812,1104.2100830078125,766.7976684570312,427.6554870605469,1138.054443359375,926.8055419921875,443.31817626953125,1138.6573486328125,645.1435546875,545.5958862304688,855.3760375976562,668.0579833984375,644.8522338867188,609.356689453125,646.70068359375,647.0166625976562,433.3537902832031,661.9419555664062,707.3629760742188,239.16062927246094,727.4547729492188,636.2782592773438,151.54776000976562,681.2637329101562,896.7677612304688,209.14218139648438,1004.147705078125,558.499755859375,778.7188110351562,962.1452026367188,461.8558044433594,562.6387329101562,978.7943725585938,403.9378356933594,438.0846862792969,940.2742309570312,306.4591979980469,247.8319091796875,889.2149047851562,210.41940307617188,185.25704956054688,919.622802734375,473.92205810546875,174.14991760253906,0.0,0.0,0.0,0.0,0.0,0.0,0.0,0.0,0.0,0.0,0.0,0.0,1.0,0.0,0.0,0.0,0.0,0.0,0.0,0.0,0.0,0.0,0.0,0.0,0.0,1.0,0.0,0.0,0.0,0.0,0.0,0.0,0.0,0.0,0.0,0.0,0.0,0.0,1.0,0.0,0.0,0.0,0.0,0.0,0.0,0.0,0.0,0.0,0.0,0.0,0.0,1.0,0.0,0.0,0.0,0.0,0.0,0.0,0.0,0.0,0.0,0.0,0.0,0.0,1.0,0.0,0.0,0.0,0.0,0.0,0.0,0.0,0.0,0.0,0.0,0.0,0.0,1.0,0.0,0.0,0.0,0.0,0.0,0.0,0.0,0.0,0.0,0.0,0.0,0.0,1.0,0,0,0,0,0,0,0,0,0,0,0,0,0,0,0,0,0,0,0,0,0,0,0,0,0,0,0,0,0,0,0,0,0,0,0,0
1777383918.4749138,34,1777383908.138503,,,0,0,,,0,0,0.0,0.0,0.0,0.0,0.0,0.0,0.0,0.0,0.0,0.0,0.0,0.0,0.0,0.0,0.0,0.0,0.0,0.0,0.0,0.0,0.0,0.0,0.0,0.0,0.0,0.0,0.0,704.6881103515625,604.1182861328125,1107.9376220703125,952.8524169921875,653.125,1103.7615966796875,764.3289794921875,428.95556640625,1137.3438720703125,924.4771728515625,443.8176574707031,1137.7418212890625,643.98828125,548.1813354492188,854.7347412109375,667.5142211914062,646.3667602539062,608.6013793945312,646.6240234375,646.1104736328125,432.4027099609375,662.202880859375,702.8527221679688,237.70623779296875,727.6474609375,628.8751220703125,152.67965698242188,681.93505859375,890.8987426757812,203.54196166992188,1002.2404174804688,559.594970703125,777.8474731445312,960.3330688476562,462.9713134765625,562.4039306640625,977.5712280273438,402.2890319824219,439.2825012207031,939.9260864257812,301.0539855957031,250.76873779296875,889.2444458007812,203.84323120117188,189.0213165283203,919.7723388671875,466.5715637207031,173.9357147216797,0.0,0.0,0.0,0.0,0.0,0.0,0.0,0.0,0.0,0.0,0.0,0.0,1.0,0.0,0.0,0.0,0.0,0.0,0.0,0.0,0.0,0.0,0.0,0.0,0.0,1.0,0.0,0.0,0.0,0.0,0.0,0.0,0.0,0.0,0.0,0.0,0.0,0.0,1.0,0.0,0.0,0.0,0.0,0.0,0.0,0.0,0.0,0.0,0.0,0.0,0.0,1.0,0.0,0.0,0.0,0.0,0.0,0.0,0.0,0.0,0.0,0.0,0.0,0.0,1.0,0.0,0.0,0.0,0.0,0.0,0.0,0.0,0.0,0.0,0.0,0.0,0.0,1.0,0.0,0.0,0.0,0.0,0.0,0.0,0.0,0.0,0.0,0.0,0.0,0.0,1.0,0,0,0,0,0,0,0,0,0,0,0,0,0,0,0,0,0,0,0,0,0,0,0,0,0,0,0,0,0,0,0,0,0,0,0,0
1777383918.4749138,35,1777383908.1580098,1777383908.157503,,0,0,0.5068778991699219,,1,0,0.0,0.0,0.0,0.0,0.0,0.0,0.0,0.0,0.0,0.0,0.0,0.0,0.0,0.0,0.0,0.0,0.0,0.0,0.0,0.0,0.0,0.0,0.0,0.0,0.0,0.0,0.0,702.6810913085938,605.7034912109375,1107.650634765625,951.057861328125,653.6842041015625,1103.45263671875,761.8331909179688,430.2646789550781,1136.74853515625,922.1177368164062,444.3004455566406,1136.9173583984375,642.7999267578125,550.7108154296875,854.2530517578125,666.9081420898438,647.8538818359375,608.0091552734375,646.3130493164062,645.1521606445312,431.66864013671875,662.2549438476562,698.1389770507812,236.47523498535156,727.6987915039062,621.498291015625,153.72708129882812,682.3071899414062,884.6908569335938,198.64730834960938,1000.338623046875,561.1107177734375,777.0592041015625,958.5533447265625,464.9291687011719,562.201416015625,976.3993530273438,401.35760498046875,440.6822509765625,939.669189453125,296.16412353515625,254.11817932128906,889.2335205078125,197.57418823242188,193.4537811279297,919.9144897460938,459.26422119140625,173.7543487548828,4.2588,0.7465,8.91,1.0376,-0.061,-0.6104,4.7681,-25.4553,-129.0399,0.2162,-0.0581,-0.8837,0.411,5.2685,8.1683,-0.4354,0.1831,-0.4272,-0.1831,93.0597,-32.8052,-106.8146,0.571,0.4432,-0.6521,0.2289,1.3686,-8.3357,5.101,-0.2441,-0.2441,0.4883,-58.5352,-7.9816,-65.6158,-0.377,-0.3153,-0.4429,0.7499,0.2153,1.1676,9.9675,-0.5493,-0.1831,0.3052,6.6687,-1.2195,79.3707,0.038,-0.0453,0.637,0.7686,3.9238,-8.1061,3.943,0.4883,-0.6104,-0.6104,-64.0558,-23.5162,160.2081,-0.2594,0.4818,0.8362,0.0362,0.1483,2.2107,-9.3071,0.1831,-0.2441,0.3662,166.6241,-0.9064,-165.3387,0.1276,0.9849,-0.1165,0.0071,0.5981,-0.1388,9.9962,0.4883,0.0,-0.1221,-0.7745,-3.4058,3.3289,-0.0076,-0.0295,0.0292,0.9991,0,0,0,0,0,0,0,0,0,0,0,0,0,0,0,0,0,0,0,0,0,0,0,0,0,0,0,0,0,0,0,0,0,0,0,0
1777383918.4749138,36,1777383908.159015,1777383908.157503,,0,0,1.5120506286621094,,1,0,0.0,0.0,0.0,0.0,0.0,0.0,0.0,0.0,0.0,0.0,0.0,0.0,0.0,0.0,0.0,0.0,0.0,0.0,0.0,0.0,0.0,0.0,0.0,0.0,0.0,0.0,0.0,700.6380615234375,607.2760620117188,1107.5052490234375,949.2097778320312,654.2110595703125,1103.2900390625,759.3191528320312,431.56787109375,1136.2794189453125,919.7346801757812,444.7533264160156,1136.1986083984375,641.5652465820312,553.1305541992188,853.9353637695312,666.24853515625,649.248779296875,607.5711059570312,645.7601318359375,644.1412353515625,431.1618347167969,662.134033203125,693.2670288085938,235.49354553222656,727.6362915039062,614.1910400390625,154.64276123046875,682.503173828125,878.2109985351562,194.58961486816406,998.4669799804688,563.0446166992188,776.3773803710938,956.8457641601562,467.7696838378906,562.0503540039062,975.3101806640625,401.2135314941406,442.3094177246094,939.5252075195312,291.8869323730469,257.91363525390625,889.1661987304688,191.71372985839844,198.6352996826172,920.058349609375,452.0252685546875,173.6037139892578,4.2588,0.7465,8.91,1.0376,-0.061,-0.6104,4.7681,-25.4553,-129.0399,0.2162,-0.0581,-0.8837,0.411,5.2685,8.1683,-0.4354,0.1831,-0.4272,-0.1831,93.0597,-32.8052,-106.8146,0.571,0.4432,-0.6521,0.2289,1.3686,-8.3357,5.101,-0.2441,-0.2441,0.4883,-58.5352,-7.9816,-65.6158,-0.377,-0.3153,-0.4429,0.7499,0.2153,1.1676,9.9675,-0.5493,-0.1831,0.3052,6.6687,-1.2195,79.3707,0.038,-0.0453,0.637,0.7686,3.9238,-8.1061,3.943,0.4883,-0.6104,-0.6104,-64.0558,-23.5162,160.2081,-0.2594,0.4818,0.8362,0.0362,0.1483,2.2107,-9.3071,0.1831,-0.2441,0.3662,166.6241,-0.9064,-165.3387,0.1276,0.9849,-0.1165,0.0071,0.5981,-0.1388,9.9962,0.4883,0.0,-0.1221,-0.7745,-3.4058,3.3289,-0.0076,-0.0295,0.0292,0.9991,0,0,0,0,0,0,0,0,0,0,0,0,0,0,0,0,0,0,0,0,0,0,0,0,0,0,0,0,0,0,0,0,0,0,0,0
1777383918.4749138,37,1777383908.1680214,1777383908.157503,,0,0,10.518550872802734,,1,0,0.0,0.0,0.0,0.0,0.0,0.0,0.0,0.0,0.0,0.0,0.0,0.0,0.0,0.0,0.0,0.0,0.0,0.0,0.0,0.0,0.0,0.0,0.0,0.0,0.0,0.0,0.0,698.5709838867188,608.8184204101562,1107.5035400390625,947.321044921875,654.6851196289062,1103.27734375,756.7953491210938,432.8500061035156,1135.9439697265625,917.3352661132812,445.1626892089844,1135.597412109375,640.2735595703125,555.3927001953125,853.7802124023438,665.5477905273438,650.4855346679688,607.2711181640625,644.9898071289062,643.0521240234375,430.875732421875,661.8911743164062,688.2511596679688,234.7661590576172,727.496337890625,606.9515380859375,155.39990234375,682.6239013671875,871.5084228515625,191.40216064453125,996.6513061523438,565.3827514648438,775.825439453125,955.2490844726562,471.5158996582031,561.9737548828125,974.3316040039062,401.91583251953125,444.1885070800781,939.5076293945312,288.3193664550781,262.18115234375,889.0314331054688,186.39419555664062,204.6640625,920.2171020507812,444.8919982910156,173.4690399169922,4.2588,0.7465,8.91,1.0376,-0.061,-0.6104,4.7681,-25.4553,-129.0399,0.2162,-0.0581,-0.8837,0.411,5.2685,8.1683,-0.4354,0.1831,-0.4272,-0.1831,93.0597,-32.8052,-106.8146,0.571,0.4432,-0.6521,0.2289,1.3686,-8.3357,5.101,-0.2441,-0.2441,0.4883,-58.5352,-7.9816,-65.6158,-0.377,-0.3153,-0.4429,0.7499,0.2153,1.1676,9.9675,-0.5493,-0.1831,0.3052,6.6687,-1.2195,79.3707,0.038,-0.0453,0.637,0.7686,3.9238,-8.1061,3.943,0.4883,-0.6104,-0.6104,-64.0558,-23.5162,160.2081,-0.2594,0.4818,0.8362,0.0362,0.1483,2.2107,-9.3071,0.1831,-0.2441,0.3662,166.6241,-0.9064,-165.3387,0.1276,0.9849,-0.1165,0.0071,0.5981,-0.1388,9.9962,0.4883,0.0,-0.1221,-0.7745,-3.4058,3.3289,-0.0076,-0.0295,0.0292,0.9991,0,0,0,0,0,0,0,0,0,0,0,0,0,0,0,0,0,0,0,0,0,0,0,0,0,0,0,0,0,0,0,0,0,0,0,0
1777383918.4749138,38,1777383908.1859403,,,0,0,,,0,0,0.0,0.0,0.0,0.0,0.0,0.0,0.0,0.0,0.0,0.0,0.0,0.0,0.0,0.0,0.0,0.0,0.0,0.0,0.0,0.0,0.0,0.0,0.0,0.0,0.0,0.0,0.0,696.492919921875,610.3132934570312,1107.6436767578125,945.4063720703125,655.0859985351562,1103.4144287109375,754.2699584960938,434.09600830078125,1135.74609375,914.9265747070312,445.51507568359375,1135.123046875,638.9168701171875,557.4564208984375,853.77978515625,664.820068359375,651.498779296875,607.086669921875,644.0555419921875,641.8384399414062,430.78778076171875,661.5830688476562,683.0866088867188,234.2791290283203,727.3173217773438,599.7562255859375,155.9938507080078,682.7420043945312,864.6256713867188,189.03457641601562,994.9173583984375,568.0990600585938,775.4259643554688,953.7991943359375,476.16986083984375,561.9981689453125,973.4860229492188,403.5072326660156,446.3414306640625,939.6182250976562,285.5516662597656,266.93682861328125,888.8248291015625,181.7784423828125,211.6534423828125,920.4066162109375,437.9146728515625,173.32192993164062,0.0,0.0,0.0,0.0,0.0,0.0,0.0,0.0,0.0,0.0,0.0,0.0,1.0,0.0,0.0,0.0,0.0,0.0,0.0,0.0,0.0,0.0,0.0,0.0,0.0,1.0,0.0,0.0,0.0,0.0,0.0,0.0,0.0,0.0,0.0,0.0,0.0,0.0,1.0,0.0,0.0,0.0,0.0,0.0,0.0,0.0,0.0,0.0,0.0,0.0,0.0,1.0,0.0,0.0,0.0,0.0,0.0,0.0,0.0,0.0,0.0,0.0,0.0,0.0,1.0,0.0,0.0,0.0,0.0,0.0,0.0,0.0,0.0,0.0,0.0,0.0,0.0,1.0,0.0,0.0,0.0,0.0,0.0,0.0,0.0,0.0,0.0,0.0,0.0,0.0,1.0,0,0,0,0,0,0,0,0,0,0,0,0,0,0,0,0,0,0,0,0,0,0,0,0,0,0,0,0,0,0,0,0,0,0,0,0
1777383918.4749138,39,1777383908.1880229,,,0,0,,,0,0,0.0,0.0,0.0,0.0,0.0,0.0,0.0,0.0,0.0,0.0,0.0,0.0,0.0,0.0,0.0,0.0,0.0,0.0,0.0,0.0,0.0,0.0,0.0,0.0,0.0,0.0,0.0,694.41796875,611.7447509765625,1107.91943359375,943.4820556640625,655.3944091796875,1103.6981201171875,751.7508544921875,435.2911071777344,1135.68603515625,912.5155639648438,445.79742431640625,1134.7813720703125,637.4905395507812,559.28759765625,853.9202270507812,664.07958984375,652.2254638671875,606.9907836914062,643.0304565429688,640.4384765625,430.862548828125,661.2647094726562,677.759033203125,234.0032501220703,727.1351928710938,592.5773315429688,156.43788146972656,682.9017944335938,857.6033325195312,187.3771514892578,993.2898559570312,571.1546630859375,775.19970703125,952.5270385742188,481.7095642089844,562.1530151367188,972.787841796875,406.0091857910156,448.7860107421875,939.8440551757812,283.6605529785156,272.1844177246094,888.5477294921875,178.05516052246094,219.72398376464844,920.6422119140625,431.15594482421875,173.1216583251953,0.0,0.0,0.0,0.0,0.0,0.0,0.0,0.0,0.0,0.0,0.0,0.0,1.0,0.0,0.0,0.0,0.0,0.0,0.0,0.0,0.0,0.0,0.0,0.0,0.0,1.0,0.0,0.0,0.0,0.0,0.0,0.0,0.0,0.0,0.0,0.0,0.0,0.0,1.0,0.0,0.0,0.0,0.0,0.0,0.0,0.0,0.0,0.0,0.0,0.0,0.0,1.0,0.0,0.0,0.0,0.0,0.0,0.0,0.0,0.0,0.0,0.0,0.0,0.0,1.0,0.0,0.0,0.0,0.0,0.0,0.0,0.0,0.0,0.0,0.0,0.0,0.0,1.0,0.0,0.0,0.0,0.0,0.0,0.0,0.0,0.0,0.0,0.0,0.0,0.0,1.0,0,0,0,0,0,0,0,0,0,0,0,0,0,0,0,0,0,0,0,0,0,0,0,0,0,0,0,0,0,0,0,0,0,0,0,0
1777383918.4749138,40,1777383908.2039905,,,0,0,,,0,0,0.0,0.0,0.0,0.0,0.0,0.0,0.0,0.0,0.0,0.0,0.0,0.0,0.0,0.0,0.0,0.0,0.0,0.0,0.0,0.0,0.0,0.0,0.0,0.0,0.0,0.0,0.0,692.36083984375,613.0978393554688,1108.320556640625,941.565673828125,655.5926513671875,1104.1217041015625,749.2456665039062,436.4211730957031,1135.7607421875,910.1090698242188,445.9976806640625,1134.5751953125,635.9935302734375,560.8590698242188,854.1826171875,663.3390502929688,652.6077880859375,606.9541625976562,641.995361328125,638.7826538085938,431.05609130859375,660.983642578125,672.2521362304688,233.89881896972656,726.979736328125,585.3927612304688,156.7561798095703,683.1218872070312,850.4800415039062,186.2875518798828,991.7916259765625,574.4985961914062,775.164794921875,951.456787109375,488.0877380371094,562.4695434570312,972.241943359375,409.4178161621094,451.5345458984375,940.1556396484375,282.7023620605469,277.9137268066406,888.2048950195312,175.42835998535156,228.98745727539062,920.9354248046875,424.68902587890625,172.81997680664062,0.0,0.0,0.0,0.0,0.0,0.0,0.0,0.0,0.0,0.0,0.0,0.0,1.0,0.0,0.0,0.0,0.0,0.0,0.0,0.0,0.0,0.0,0.0,0.0,0.0,1.0,0.0,0.0,0.0,0.0,0.0,0.0,0.0,0.0,0.0,0.0,0.0,0.0,1.0,0.0,0.0,0.0,0.0,0.0,0.0,0.0,0.0,0.0,0.0,0.0,0.0,1.0,0.0,0.0,0.0,0.0,0.0,0.0,0.0,0.0,0.0,0.0,0.0,0.0,1.0,0.0,0.0,0.0,0.0,0.0,0.0,0.0,0.0,0.0,0.0,0.0,0.0,1.0,0.0,0.0,0.0,0.0,0.0,0.0,0.0,0.0,0.0,0.0,0.0,0.0,1.0,0,0,0,0,0,0,0,0,0,0,0,0,0,0,0,0,0,0,0,0,0,0,0,0,0,0,0,0,0,0,0,0,0,0,0,0
1777383918.4749138,41,1777383908.206077,,,0,0,,,0,0,0.0,0.0,0.0,0.0,0.0,0.0,0.0,0.0,0.0,0.0,0.0,0.0,0.0,0.0,0.0,0.0,0.0,0.0,0.0,0.0,0.0,0.0,0.0,0.0,0.0,0.0,0.0,690.33642578125,614.3591918945312,1108.8330078125,939.6749877929688,655.6657104492188,1104.675048828125,746.7619018554688,437.472900390625,1135.9638671875,907.7140502929688,446.1050720214844,1134.5042724609375,634.4288940429688,562.1495361328125,854.5435791015625,662.608642578125,652.59619140625,606.9478759765625,641.0254516601562,636.8017578125,431.3210144042969,660.7759399414062,666.5519409179688,233.92108154296875,726.871826171875,578.1897583007812,156.9774169921875,683.400634765625,843.2908935546875,185.61473083496094,990.4424438476562,578.0693359375,775.3356323242188,950.6043701171875,495.2315368652344,562.979736328125,971.8424072265625,413.70135498046875,454.5923767089844,940.507080078125,282.70733642578125,284.0994567871094,887.7987060546875,174.1000213623047,239.52369689941406,921.2910766601562,418.5940246582031,172.370361328125,0.0,0.0,0.0,0.0,0.0,0.0,0.0,0.0,0.0,0.0,0.0,0.0,1.0,0.0,0.0,0.0,0.0,0.0,0.0,0.0,0.0,0.0,0.0,0.0,0.0,1.0,0.0,0.0,0.0,0.0,0.0,0.0,0.0,0.0,0.0,0.0,0.0,0.0,1.0,0.0,0.0,0.0,0.0,0.0,0.0,0.0,0.0,0.0,0.0,0.0,0.0,1.0,0.0,0.0,0.0,0.0,0.0,0.0,0.0,0.0,0.0,0.0,0.0,0.0,1.0,0.0,0.0,0.0,0.0,0.0,0.0,0.0,0.0,0.0,0.0,0.0,0.0,1.0,0.0,0.0,0.0,0.0,0.0,0.0,0.0,0.0,0.0,0.0,0.0,0.0,1.0,0,0,0,0,0,0,0,0,0,0,0,0,0,0,0,0,0,0,0,0,0,0,0,0,0,0,0,0,0,0,0,0,0,0,0,0
1777383918.4749138,42,1777383908.218996,,,0,0,,,0,0,0.0,0.0,0.0,0.0,0.0,0.0,0.0,0.0,0.0,0.0,0.0,0.0,0.0,0.0,0.0,0.0,0.0,0.0,0.0,0.0,0.0,0.0,0.0,0.0,0.0,0.0,0.0,688.359375,615.5170288085938,1109.440185546875,937.8274536132812,655.6017456054688,1105.345947265625,744.3072509765625,438.4339599609375,1136.286376953125,905.33740234375,446.1105651855469,1134.5650634765625,632.8040771484375,563.1431274414062,854.9772338867188,661.8958129882812,652.152099609375,606.945068359375,640.1807250976562,634.4352416992188,431.61187744140625,660.6650390625,660.6508178710938,234.0254364013672,726.82275390625,570.964599609375,157.1300048828125,683.7237548828125,836.0654296875,185.21763610839844,989.2575073242188,581.7974243164062,775.72265625,949.9766845703125,503.04498291015625,563.71435546875,971.5726318359375,418.7997131347656,457.9570617675781,940.838134765625,283.6758117675781,290.7010192871094,887.3219604492188,174.24722290039062,251.3524627685547,921.7061767578125,412.9532775878906,171.74107360839844,0.0,0.0,0.0,0.0,0.0,0.0,0.0,0.0,0.0,0.0,0.0,0.0,1.0,0.0,0.0,0.0,0.0,0.0,0.0,0.0,0.0,0.0,0.0,0.0,0.0,1.0,0.0,0.0,0.0,0.0,0.0,0.0,0.0,0.0,0.0,0.0,0.0,0.0,1.0,0.0,0.0,0.0,0.0,0.0,0.0,0.0,0.0,0.0,0.0,0.0,0.0,1.0,0.0,0.0,0.0,0.0,0.0,0.0,0.0,0.0,0.0,0.0,0.0,0.0,1.0,0.0,0.0,0.0,0.0,0.0,0.0,0.0,0.0,0.0,0.0,0.0,0.0,1.0,0.0,0.0,0.0,0.0,0.0,0.0,0.0,0.0,0.0,0.0,0.0,0.0,1.0,0,0,0,0,0,0,0,0,0,0,0,0,0,0,0,0,0,0,0,0,0,0,0,0,0,0,0,0,0,0,0,0,0,0,0,0
1777383918.4749138,43,1777383908.2345269,,,0,0,,,0,0,0.0,0.0,0.0,0.0,0.0,0.0,0.0,0.0,0.0,0.0,0.0,0.0,0.0,0.0,0.0,0.0,0.0,0.0,0.0,0.0,0.0,0.0,0.0,0.0,0.0,0.0,0.0,686.4437866210938,616.5612182617188,1110.123291015625,936.0394897460938,655.3927001953125,1106.11962890625,741.8893432617188,439.29339599609375,1136.717041015625,902.986328125,446.0070495605469,1134.7518310546875,631.1311645507812,563.8287353515625,855.4561157226562,661.2055053710938,651.2508544921875,606.9235229492188,639.499755859375,631.6387329101562,431.8894958496094,660.6614379882812,654.5489501953125,234.17189025878906,726.835205078125,563.7205200195312,157.239501953125,684.071533203125,828.82666015625,184.9774932861328,988.2471313476562,585.6088256835938,776.3318481445312,949.5714721679688,511.4126892089844,564.7009887695312,971.4063720703125,424.6267395019531,461.6177673339844,941.0791625976562,285.5773010253906,297.6632080078125,886.7484741210938,175.9966278076172,264.4049377441406,922.17138671875,407.8475646972656,170.9293670654297,0.0,0.0,0.0,0.0,0.0,0.0,0.0,0.0,0.0,0.0,0.0,0.0,1.0,0.0,0.0,0.0,0.0,0.0,0.0,0.0,0.0,0.0,0.0,0.0,0.0,1.0,0.0,0.0,0.0,0.0,0.0,0.0,0.0,0.0,0.0,0.0,0.0,0.0,1.0,0.0,0.0,0.0,0.0,0.0,0.0,0.0,0.0,0.0,0.0,0.0,0.0,1.0,0.0,0.0,0.0,0.0,0.0,0.0,0.0,0.0,0.0,0.0,0.0,0.0,1.0,0.0,0.0,0.0,0.0,0.0,0.0,0.0,0.0,0.0,0.0,0.0,0.0,1.0,0.0,0.0,0.0,0.0,0.0,0.0,0.0,0.0,0.0,0.0,0.0,0.0,1.0,0,0,0,0,0,0,0,0,0,0,0,0,0,0,0,0,0,0,0,0,0,0,0,0,0,0,0,0,0,0,0,0,0,0,0,0
1777383918.4749138,44,1777383908.2385619,,,0,0,,,0,0,0.0,0.0,0.0,0.0,0.0,0.0,0.0,0.0,0.0,0.0,0.0,0.0,0.0,0.0,0.0,0.0,0.0,0.0,0.0,0.0,0.0,0.0,0.0,0.0,0.0,0.0,0.0,684.6024169921875,617.4832763671875,1110.8626708984375,934.3258056640625,655.034423828125,1106.9803466796875,739.5162963867188,440.04168701171875,1137.2430419921875,900.6683959960938,445.78955078125,1135.056640625,629.4268188476562,564.2000122070312,855.9534301757812,660.5411987304688,649.8826904296875,606.8662109375,638.9987182617188,628.3892822265625,432.1243896484375,660.764892578125,648.255126953125,234.32826232910156,726.905029296875,556.4639282226562,157.32766723632812,684.4243774414062,821.5900268554688,184.80441284179688,987.4153442382812,589.4290771484375,777.164794921875,949.3773803710938,520.2056884765625,565.9619750976562,971.3095092773438,431.0750427246094,465.5550537109375,941.1569213867188,288.3533630371094,304.91644287109375,886.0254516601562,179.40072631835938,278.5008544921875,922.6759033203125,403.3551025390625,169.9739227294922,0.0,0.0,0.0,0.0,0.0,0.0,0.0,0.0,0.0,0.0,0.0,0.0,1.0,0.0,0.0,0.0,0.0,0.0,0.0,0.0,0.0,0.0,0.0,0.0,0.0,1.0,0.0,0.0,0.0,0.0,0.0,0.0,0.0,0.0,0.0,0.0,0.0,0.0,1.0,0.0,0.0,0.0,0.0,0.0,0.0,0.0,0.0,0.0,0.0,0.0,0.0,1.0,0.0,0.0,0.0,0.0,0.0,0.0,0.0,0.0,0.0,0.0,0.0,0.0,1.0,0.0,0.0,0.0,0.0,0.0,0.0,0.0,0.0,0.0,0.0,0.0,0.0,1.0,0.0,0.0,0.0,0.0,0.0,0.0,0.0,0.0,0.0,0.0,0.0,0.0,1.0,0,0,0,0,0,0,0,0,0,0,0,0,0,0,0,0,0,0,0,0,0,0,0,0,0,0,0,0,0,0,0,0,0,0,0,0
1777383918.4749138,45,1777383908.2515616,,,0,0,,,0,0,0.0,0.0,0.0,0.0,0.0,0.0,0.0,0.0,0.0,0.0,0.0,0.0,0.0,0.0,0.0,0.0,0.0,0.0,0.0,0.0,0.0,0.0,0.0,0.0,0.0,0.0,0.0,682.8465576171875,618.2765502929688,1111.6387939453125,932.6985473632812,654.52685546875,1107.912353515625,737.1962280273438,440.6709899902344,1137.8504638671875,898.3912353515625,445.4552917480469,1135.47021484375,627.7113647460938,564.2555541992188,856.444091796875,659.9053955078125,648.0540161132812,606.7626342773438,638.6735229492188,624.6885986328125,432.298095703125,660.9661865234375,641.78564453125,234.47210693359375,727.0237426757812,549.2017211914062,157.4121551513672,684.76611328125,814.3641967773438,184.6385955810547,986.760498046875,593.1874389648438,778.2189331054688,949.3756713867188,529.2882690429688,567.5120849609375,971.2430419921875,438.02301025390625,469.7407531738281,941.0025024414062,291.9234313964844,312.3773498535156,885.06884765625,184.42050170898438,293.33819580078125,923.2155151367188,399.5561218261719,168.96226501464844,0.0,0.0,0.0,0.0,0.0,0.0,0.0,0.0,0.0,0.0,0.0,0.0,1.0,0.0,0.0,0.0,0.0,0.0,0.0,0.0,0.0,0.0,0.0,0.0,0.0,1.0,0.0,0.0,0.0,0.0,0.0,0.0,0.0,0.0,0.0,0.0,0.0,0.0,1.0,0.0,0.0,0.0,0.0,0.0,0.0,0.0,0.0,0.0,0.0,0.0,0.0,1.0,0.0,0.0,0.0,0.0,0.0,0.0,0.0,0.0,0.0,0.0,0.0,0.0,1.0,0.0,0.0,0.0,0.0,0.0,0.0,0.0,0.0,0.0,0.0,0.0,0.0,1.0,0.0,0.0,0.0,0.0,0.0,0.0,0.0,0.0,0.0,0.0,0.0,0.0,1.0,0,0,0,0,0,0,0,0,0,0,0,0,0,0,0,0,0,0,0,0,0,0,0,0,0,0,0,0,0,0,0,0,0,0,0,0
1777383918.4749138,46,1777383908.2553396,,,0,0,,,0,0,0.0,0.0,0.0,0.0,0.0,0.0,0.0,0.0,0.0,0.0,0.0,0.0,0.0,0.0,0.0,0.0,0.0,0.0,0.0,0.0,0.0,0.0,0.0,0.0,0.0,0.0,0.0,681.1853637695312,618.9358520507812,1112.433349609375,931.1672973632812,653.8734741210938,1108.8997802734375,734.9375610351562,441.17535400390625,1138.5247802734375,896.1627807617188,445.0037536621094,1135.9818115234375,626.0079956054688,563.9993286132812,856.9069213867188,659.30078125,645.786376953125,606.6083374023438,638.504638671875,620.5621948242188,432.40350341796875,661.2498779296875,635.16259765625,234.59085083007812,727.1809692382812,541.9381103515625,157.50636291503906,685.0858154296875,807.1511840820312,184.4473114013672,986.2752685546875,596.8209838867188,779.48828125,949.541748046875,538.524658203125,569.35693359375,971.1661987304688,445.34326171875,474.137939453125,940.5580444335938,296.19329833984375,319.9485778808594,883.765625,190.91888427734375,308.4988708496094,923.8011474609375,396.5424499511719,168.03067016601562,0.0,0.0,0.0,0.0,0.0,0.0,0.0,0.0,0.0,0.0,0.0,0.0,1.0,0.0,0.0,0.0,0.0,0.0,0.0,0.0,0.0,0.0,0.0,0.0,0.0,1.0,0.0,0.0,0.0,0.0,0.0,0.0,0.0,0.0,0.0,0.0,0.0,0.0,1.0,0.0,0.0,0.0,0.0,0.0,0.0,0.0,0.0,0.0,0.0,0.0,0.0,1.0,0.0,0.0,0.0,0.0,0.0,0.0,0.0,0.0,0.0,0.0,0.0,0.0,1.0,0.0,0.0,0.0,0.0,0.0,0.0,0.0,0.0,0.0,0.0,0.0,0.0,1.0,0.0,0.0,0.0,0.0,0.0,0.0,0.0,0.0,0.0,0.0,0.0,0.0,1.0,0,0,0,0,0,0,0,0,0,0,0,0,0,0,0,0,0,0,0,0,0,0,0,0,0,0,0,0,0,0,0,0,0,0,0,0
1777383918.475913,47,1777383908.2663646,,,0,0,,,0,0,0.0,0.0,0.0,0.0,0.0,0.0,0.0,0.0,0.0,0.0,0.0,0.0,0.0,0.0,0.0,0.0,0.0,0.0,0.0,0.0,0.0,0.0,0.0,0.0,0.0,0.0,0.0,679.6258544921875,619.457763671875,1113.2296142578125,929.7384643554688,653.0810546875,1109.9283447265625,732.7486572265625,441.5507507324219,1139.2518310546875,893.9910278320312,444.4363098144531,1136.5809326171875,624.3414306640625,563.4418334960938,857.3253173828125,658.7305908203125,643.1145629882812,606.4048461914062,638.4625244140625,616.0565795898438,432.4434509277344,661.5972900390625,628.4110717773438,234.6809539794922,727.3662719726562,534.6731567382812,157.61917114257812,685.3777465820312,799.947509765625,184.21945190429688,985.9479370117188,600.2782592773438,780.9647827148438,949.8470458984375,547.7858276367188,571.49169921875,971.0401000976562,452.91082763671875,478.7008056640625,939.7825317382812,301.0642395019531,327.51873779296875,881.9846801757812,198.666015625,323.47161865234375,924.464111328125,394.4293212890625,167.35562133789062,0.0,0.0,0.0,0.0,0.0,0.0,0.0,0.0,0.0,0.0,0.0,0.0,1.0,0.0,0.0,0.0,0.0,0.0,0.0,0.0,0.0,0.0,0.0,0.0,0.0,1.0,0.0,0.0,0.0,0.0,0.0,0.0,0.0,0.0,0.0,0.0,0.0,0.0,1.0,0.0,0.0,0.0,0.0,0.0,0.0,0.0,0.0,0.0,0.0,0.0,0.0,1.0,0.0,0.0,0.0,0.0,0.0,0.0,0.0,0.0,0.0,0.0,0.0,0.0,1.0,0.0,0.0,0.0,0.0,0.0,0.0,0.0,0.0,0.0,0.0,0.0,0.0,1.0,0.0,0.0,0.0,0.0,0.0,0.0,0.0,0.0,0.0,0.0,0.0,0.0,1.0,0,0,0,0,0,0,0,0,0,0,0,0,0,0,0,0,0,0,0,0,0,0,0,0,0,0,0,0,0,0,0,0,0,0,0,0
1777383918.475913,48,1777383908.2850807,1777383908.2843828,,0,0,0.6978511810302734,,1,0,0.0,0.0,0.0,0.0,0.0,0.0,0.0,0.0,0.0,0.0,0.0,0.0,0.0,0.0,0.0,0.0,0.0,0.0,0.0,0.0,0.0,0.0,0.0,0.0,0.0,0.0,0.0,678.1724853515625,619.8407592773438,1114.013916015625,928.4154663085938,652.1589965820312,1110.9853515625,730.6378173828125,441.79534912109375,1140.017578125,891.8839721679688,443.7561950683594,1137.256591796875,622.7362060546875,562.6002807617188,857.6887817382812,658.198974609375,640.0836181640625,606.1586303710938,638.5137329101562,611.23291015625,432.4287414550781,661.9886474609375,621.5568237304688,234.7459259033203,727.5708618164062,527.4024658203125,157.75526428222656,685.6407470703125,792.7454223632812,183.95887756347656,985.7640991210938,603.5215454101562,782.6388549804688,950.261474609375,556.9544677734375,573.9007568359375,970.8310546875,460.6105041503906,483.3746643066406,938.65576171875,306.4425354003906,334.9627990722656,879.5972900390625,207.3578338623047,337.6910705566406,925.2564086914062,393.3627014160156,167.13621520996094,4.254,0.7417,8.9147,1.0376,-0.061,-0.6104,4.7681,-25.4553,-129.0399,0.2162,-0.0581,-0.8837,0.411,5.2685,8.1683,-0.4354,0.1831,-0.3662,-0.1221,93.0597,-32.8052,-106.8146,0.571,0.4432,-0.6521,0.2289,1.3733,-8.331,5.0962,-0.2441,-0.2441,0.4883,-58.5352,-7.9816,-65.6158,-0.377,-0.3153,-0.4429,0.7499,0.2153,1.1628,9.9675,-0.5493,-0.1831,0.3052,6.6687,-1.2195,79.3707,0.038,-0.0453,0.637,0.7686,3.9238,-8.1013,3.9478,0.4883,-0.5493,-0.6104,-64.0558,-23.5162,160.2081,-0.2594,0.4818,0.8362,0.0362,0.1483,2.2155,-9.3119,0.1831,-0.3052,0.3662,166.6241,-0.9009,-165.3223,0.1278,0.9849,-0.1165,0.0071,0.5934,-0.134,9.9962,0.4883,0.061,-0.1221,-0.7745,-3.4058,3.3289,-0.0076,-0.0295,0.0292,0.9991,0,0,0,0,0,0,0,0,0,0,0,0,0,0,0,0,0,0,0,0,0,0,0,0,0,0,0,0,0,0,0,0,0,0,0,0
1777383918.475913,49,1777383908.286388,1777383908.2843828,,0,0,2.0051002502441406,,1,0,0.0,0.0,0.0,0.0,0.0,0.0,0.0,0.0,0.0,0.0,0.0,0.0,0.0,0.0,0.0,0.0,0.0,0.0,0.0,0.0,0.0,0.0,0.0,0.0,0.0,0.0,0.0,676.8272094726562,620.0847778320312,1114.7752685546875,927.1991577148438,651.11865234375,1112.0604248046875,728.6127319335938,441.9092712402344,1140.80908203125,889.8494262695312,442.96820068359375,1137.9981689453125,621.2149658203125,561.4988403320312,857.99267578125,657.7108154296875,636.744873046875,605.8796997070312,638.6255493164062,606.1600952148438,432.3752746582031,662.4055786132812,614.6238403320312,234.79408264160156,727.7879028320312,520.1182250976562,157.91615295410156,685.8772583007812,785.53466796875,183.6779022216797,985.7077026367188,606.5280151367188,784.5010375976562,950.7555541992188,565.9287719726562,576.5579833984375,970.5132446289062,468.34222412109375,488.09576416015625,937.1798095703125,312.2469787597656,342.1435546875,876.5022583007812,216.6486358642578,350.5910339355469,926.2438354492188,393.51751708984375,167.5675811767578,4.254,0.7417,8.9147,1.0376,-0.061,-0.6104,4.7681,-25.4553,-129.0399,0.2162,-0.0581,-0.8837,0.411,5.2685,8.1683,-0.4354,0.1831,-0.3662,-0.1221,93.0597,-32.8052,-106.8146,0.571,0.4432,-0.6521,0.2289,1.3733,-8.331,5.0962,-0.2441,-0.2441,0.4883,-58.5352,-7.9816,-65.6158,-0.377,-0.3153,-0.4429,0.7499,0.2153,1.1628,9.9675,-0.5493,-0.1831,0.3052,6.6687,-1.2195,79.3707,0.038,-0.0453,0.637,0.7686,3.9238,-8.1013,3.9478,0.4883,-0.5493,-0.6104,-64.0558,-23.5162,160.2081,-0.2594,0.4818,0.8362,0.0362,0.1483,2.2155,-9.3119,0.1831,-0.3052,0.3662,166.6241,-0.9009,-165.3223,0.1278,0.9849,-0.1165,0.0071,0.5934,-0.134,9.9962,0.4883,0.061,-0.1221,-0.7745,-3.4058,3.3289,-0.0076,-0.0295,0.0292,0.9991,0,0,0,0,0,0,0,0,0,0,0,0,0,0,0,0,0,0,0,0,0,0,0,0,0,0,0,0,0,0,0,0,0,0,0,0
1777383918.475913,50,1777383908.2974167,1777383908.2843828,,0,0,13.033866882324219,,1,0,0.0,0.0,0.0,0.0,0.0,0.0,0.0,0.0,0.0,0.0,0.0,0.0,0.0,0.0,0.0,0.0,0.0,0.0,0.0,0.0,0.0,0.0,0.0,0.0,0.0,0.0,0.0,675.5899047851562,620.1919555664062,1115.5054931640625,926.087890625,649.972412109375,1113.1451416015625,726.6806030273438,441.89483642578125,1141.614501953125,887.8948364257812,442.0783996582031,1138.7958984375,619.7968139648438,560.1681518554688,858.2379760742188,657.2716674804688,633.1515502929688,605.580078125,638.7702026367188,600.9065551757812,432.30126953125,662.8328247070312,607.6324462890625,234.8361358642578,728.0132446289062,512.8117065429688,158.10154724121094,686.091552734375,778.3046264648438,183.39173889160156,985.7621459960938,609.2894287109375,786.5421752929688,951.3016967773438,574.6243286132812,579.4281616210938,970.0708618164062,476.0244445800781,492.7919006347656,935.378173828125,318.4147644042969,348.9148864746094,872.6506958007812,226.19607543945312,361.66534423828125,927.4924926757812,395.08251953125,168.8068084716797,4.254,0.7417,8.9147,1.0376,-0.061,-0.6104,4.7681,-25.4553,-129.0399,0.2162,-0.0581,-0.8837,0.411,5.2685,8.1683,-0.4354,0.1831,-0.3662,-0.1221,93.0597,-32.8052,-106.8146,0.571,0.4432,-0.6521,0.2289,1.3733,-8.331,5.0962,-0.2441,-0.2441,0.4883,-58.5352,-7.9816,-65.6158,-0.377,-0.3153,-0.4429,0.7499,0.2153,1.1628,9.9675,-0.5493,-0.1831,0.3052,6.6687,-1.2195,79.3707,0.038,-0.0453,0.637,0.7686,3.9238,-8.1013,3.9478,0.4883,-0.5493,-0.6104,-64.0558,-23.5162,160.2081,-0.2594,0.4818,0.8362,0.0362,0.1483,2.2155,-9.3119,0.1831,-0.3052,0.3662,166.6241,-0.9009,-165.3223,0.1278,0.9849,-0.1165,0.0071,0.5934,-0.134,9.9962,0.4883,0.061,-0.1221,-0.7745,-3.4058,3.3289,-0.0076,-0.0295,0.0292,0.9991,0,0,0,0,0,0,0,0,0,0,0,0,0,0,0,0,0,0,0,0,0,0,0,0,0,0,0,0,0,0,0,0,0,0,0,0
1777383918.475913,51,1777383908.3114202,,,0,0,,,0,0,0.0,0.0,0.0,0.0,0.0,0.0,0.0,0.0,0.0,0.0,0.0,0.0,0.0,0.0,0.0,0.0,0.0,0.0,0.0,0.0,0.0,0.0,0.0,0.0,0.0,0.0,0.0,674.4583740234375,620.1658935546875,1116.19970703125,925.078369140625,648.7333984375,1114.2333984375,724.8477172851562,441.7562255859375,1142.423583984375,886.0269775390625,441.09393310546875,1139.64013671875,618.4962158203125,558.6437377929688,858.4304809570312,656.8868408203125,629.3548583984375,605.2726440429688,638.9274291992188,595.533447265625,432.22442626953125,663.259033203125,600.5987548828125,234.88323974609375,728.2451782226562,505.475341796875,158.31036376953125,686.2888793945312,771.0460815429688,183.1143798828125,985.9110107421875,611.810302734375,788.7537841796875,951.8757934570312,582.974609375,582.46875,969.4995727539062,483.5954284667969,497.3834228515625,933.2940063476562,324.9051513671875,355.1263427734375,868.0650634765625,235.7121124267578,370.5262145996094,929.05078125,398.2334899902344,170.9348907470703,0.0,0.0,0.0,0.0,0.0,0.0,0.0,0.0,0.0,0.0,0.0,0.0,1.0,0.0,0.0,0.0,0.0,0.0,0.0,0.0,0.0,0.0,0.0,0.0,0.0,1.0,0.0,0.0,0.0,0.0,0.0,0.0,0.0,0.0,0.0,0.0,0.0,0.0,1.0,0.0,0.0,0.0,0.0,0.0,0.0,0.0,0.0,0.0,0.0,0.0,0.0,1.0,0.0,0.0,0.0,0.0,0.0,0.0,0.0,0.0,0.0,0.0,0.0,0.0,1.0,0.0,0.0,0.0,0.0,0.0,0.0,0.0,0.0,0.0,0.0,0.0,0.0,1.0,0.0,0.0,0.0,0.0,0.0,0.0,0.0,0.0,0.0,0.0,0.0,0.0,1.0,0,0,0,0,0,0,0,0,0,0,0,0,0,0,0,0,0,0,0,0,0,0,0,0,0,0,0,0,0,0,0,0,0,0,0,0
1777383918.475913,52,1777383908.3163426,,,0,0,,,0,0,0.0,0.0,0.0,0.0,0.0,0.0,0.0,0.0,0.0,0.0,0.0,0.0,0.0,0.0,0.0,0.0,0.0,0.0,0.0,0.0,0.0,0.0,0.0,0.0,0.0,0.0,0.0,673.4290771484375,620.0123901367188,1116.85498046875,924.1661987304688,647.4146118164062,1115.3206787109375,723.119384765625,441.4993896484375,1143.227294921875,884.2520751953125,440.02264404296875,1140.5224609375,617.3219604492188,556.9639892578125,858.5791015625,656.5610961914062,625.400390625,604.9693603515625,639.0853271484375,590.0892944335938,432.16033935546875,663.677001953125,593.5341796875,234.94537353515625,728.4837036132812,498.1047058105469,158.54086303710938,686.474609375,763.7522583007812,182.85618591308594,986.1378173828125,614.1046752929688,791.1273803710938,952.45751953125,590.9302978515625,585.6320190429688,968.8067016601562,491.0126953125,501.7854919433594,930.986083984375,331.700439453125,360.6292724609375,862.8463134765625,245.00851440429688,376.94586181640625,930.9332885742188,403.099853515625,173.92457580566406,0.0,0.0,0.0,0.0,0.0,0.0,0.0,0.0,0.0,0.0,0.0,0.0,1.0,0.0,0.0,0.0,0.0,0.0,0.0,0.0,0.0,0.0,0.0,0.0,0.0,1.0,0.0,0.0,0.0,0.0,0.0,0.0,0.0,0.0,0.0,0.0,0.0,0.0,1.0,0.0,0.0,0.0,0.0,0.0,0.0,0.0,0.0,0.0,0.0,0.0,0.0,1.0,0.0,0.0,0.0,0.0,0.0,0.0,0.0,0.0,0.0,0.0,0.0,0.0,1.0,0.0,0.0,0.0,0.0,0.0,0.0,0.0,0.0,0.0,0.0,0.0,0.0,1.0,0.0,0.0,0.0,0.0,0.0,0.0,0.0,0.0,0.0,0.0,0.0,0.0,1.0,0,0,0,0,0,0,0,0,0,0,0,0,0,0,0,0,0,0,0,0,0,0,0,0,0,0,0,0,0,0,0,0,0,0,0,0
1777383918.475913,53,1777383908.3304803,,,0,0,,,0,0,0.0,0.0,0.0,0.0,0.0,0.0,0.0,0.0,0.0,0.0,0.0,0.0,0.0,0.0,0.0,0.0,0.0,0.0,0.0,0.0,0.0,0.0,0.0,0.0,0.0,0.0,0.0,672.4974365234375,619.7386474609375,1117.470458984375,923.346435546875,646.0285034179688,1116.403564453125,721.4996337890625,441.1318054199219,1144.0181884765625,882.5753173828125,438.87310791015625,1141.4342041015625,616.2772216796875,555.1673583984375,858.6947021484375,656.2977905273438,621.3262939453125,604.6807250976562,639.2401123046875,584.6069946289062,432.1214294433594,664.083251953125,586.4453735351562,235.0301971435547,728.7298583984375,490.6991271972656,158.79051208496094,686.6533203125,756.4192504882812,182.623291015625,986.4264526367188,616.1922607421875,793.6534423828125,953.0302734375,598.457763671875,588.8670043945312,968.0108642578125,498.251220703125,505.9111633300781,928.5243530273438,338.8047790527344,365.2838134765625,857.168701171875,254.02183532714844,380.8699645996094,933.1105346679688,409.7369079589844,177.62808227539062,0.0,0.0,0.0,0.0,0.0,0.0,0.0,0.0,0.0,0.0,0.0,0.0,1.0,0.0,0.0,0.0,0.0,0.0,0.0,0.0,0.0,0.0,0.0,0.0,0.0,1.0,0.0,0.0,0.0,0.0,0.0,0.0,0.0,0.0,0.0,0.0,0.0,0.0,1.0,0.0,0.0,0.0,0.0,0.0,0.0,0.0,0.0,0.0,0.0,0.0,0.0,1.0,0.0,0.0,0.0,0.0,0.0,0.0,0.0,0.0,0.0,0.0,0.0,0.0,1.0,0.0,0.0,0.0,0.0,0.0,0.0,0.0,0.0,0.0,0.0,0.0,0.0,1.0,0.0,0.0,0.0,0.0,0.0,0.0,0.0,0.0,0.0,0.0,0.0,0.0,1.0,0,0,0,0,0,0,0,0,0,0,0,0,0,0,0,0,0,0,0,0,0,0,0,0,0,0,0,0,0,0,0,0,0,0,0,0
1777383918.475913,54,1777383908.3339899,,,0,0,,,0,0,0.0,0.0,0.0,0.0,0.0,0.0,0.0,0.0,0.0,0.0,0.0,0.0,0.0,0.0,0.0,0.0,0.0,0.0,0.0,0.0,0.0,0.0,0.0,0.0,0.0,0.0,0.0,671.6585083007812,619.3534545898438,1118.0467529296875,922.6143188476562,644.5868530273438,1117.479248046875,719.9913330078125,440.6622314453125,1144.7900390625,881.0010375976562,437.65435791015625,1142.36767578125,615.3594360351562,553.2898559570312,858.7880859375,656.0984497070312,617.1615600585938,604.414794921875,639.39404296875,579.103515625,432.1166076660156,664.4774780273438,579.3351440429688,235.1425323486328,728.9847412109375,483.26129150390625,159.05552673339844,686.8283081054688,749.0455322265625,182.4183349609375,986.76123046875,618.094482421875,796.3201904296875,953.5814208984375,605.5364990234375,592.1218872070312,967.1398315429688,505.3010559082031,509.675048828125,925.9849243164062,346.2400207519531,368.9659729003906,851.261962890625,262.8076477050781,382.3985900878906,935.509521484375,418.11505126953125,181.79345703125,0.0,0.0,0.0,0.0,0.0,0.0,0.0,0.0,0.0,0.0,0.0,0.0,1.0,0.0,0.0,0.0,0.0,0.0,0.0,0.0,0.0,0.0,0.0,0.0,0.0,1.0,0.0,0.0,0.0,0.0,0.0,0.0,0.0,0.0,0.0,0.0,0.0,0.0,1.0,0.0,0.0,0.0,0.0,0.0,0.0,0.0,0.0,0.0,0.0,0.0,0.0,1.0,0.0,0.0,0.0,0.0,0.0,0.0,0.0,0.0,0.0,0.0,0.0,0.0,1.0,0.0,0.0,0.0,0.0,0.0,0.0,0.0,0.0,0.0,0.0,0.0,0.0,1.0,0.0,0.0,0.0,0.0,0.0,0.0,0.0,0.0,0.0,0.0,0.0,0.0,1.0,0,0,0,0,0,0,0,0,0,0,0,0,0,0,0,0,0,0,0,0,0,0,0,0,0,0,0,0,0,0,0,0,0,0,0,0
1777383918.475913,55,1777383908.3469894,,,0,0,,,0,0,0.0,0.0,0.0,0.0,0.0,0.0,0.0,0.0,0.0,0.0,0.0,0.0,0.0,0.0,0.0,0.0,0.0,0.0,0.0,0.0,0.0,0.0,0.0,0.0,0.0,0.0,0.0,670.9076538085938,618.866943359375,1118.58447265625,921.96533203125,643.1007080078125,1118.5447998046875,718.595947265625,440.10040283203125,1145.537841796875,879.532470703125,436.3758850097656,1143.31494140625,614.5619506835938,551.3624267578125,858.8690795898438,655.9625244140625,612.9265747070312,604.1767578125,639.5531616210938,573.582275390625,432.1514892578125,664.8610229492188,572.2031860351562,235.28439331054688,729.2485961914062,475.796875,159.33082580566406,687.001220703125,741.6318969726562,182.24166870117188,987.1275634765625,619.8309326171875,799.1121826171875,954.1016845703125,612.1568603515625,595.3451538085938,966.2277221679688,512.1643676757812,512.997314453125,923.444580078125,354.0399475097656,371.5742492675781,845.3863525390625,271.5074462890625,381.7444152832031,938.0253295898438,428.1306457519531,186.1061553955078,0.0,0.0,0.0,0.0,0.0,0.0,0.0,0.0,0.0,0.0,0.0,0.0,1.0,0.0,0.0,0.0,0.0,0.0,0.0,0.0,0.0,0.0,0.0,0.0,0.0,1.0,0.0,0.0,0.0,0.0,0.0,0.0,0.0,0.0,0.0,0.0,0.0,0.0,1.0,0.0,0.0,0.0,0.0,0.0,0.0,0.0,0.0,0.0,0.0,0.0,0.0,1.0,0.0,0.0,0.0,0.0,0.0,0.0,0.0,0.0,0.0,0.0,0.0,0.0,1.0,0.0,0.0,0.0,0.0,0.0,0.0,0.0,0.0,0.0,0.0,0.0,0.0,1.0,0.0,0.0,0.0,0.0,0.0,0.0,0.0,0.0,0.0,0.0,0.0,0.0,1.0,0,0,0,0,0,0,0,0,0,0,0,0,0,0,0,0,0,0,0,0,0,0,0,0,0,0,0,0,0,0,0,0,0,0,0,0
1777383918.475913,56,1777383908.3640745,,,0,0,,,0,0,0.0,0.0,0.0,0.0,0.0,0.0,0.0,0.0,0.0,0.0,0.0,0.0,0.0,0.0,0.0,0.0,0.0,0.0,0.0,0.0,0.0,0.0,0.0,0.0,0.0,0.0,0.0,670.2403564453125,618.2900390625,1119.0843505859375,921.3959350585938,641.5801391601562,1119.5960693359375,717.3140869140625,439.4568176269531,1146.2578125,878.1719360351562,435.0474548339844,1144.268310546875,613.875,549.4090576171875,858.945068359375,655.8872680664062,608.634033203125,603.968994140625,639.7244873046875,568.0369873046875,432.2284851074219,665.2365112304688,565.0475463867188,235.4552764892578,729.520751953125,468.3140563964844,159.6103057861328,687.1724853515625,734.1810302734375,182.0922393798828,987.5126342773438,621.4169311523438,802.0093383789062,954.5852661132812,618.317138671875,598.48681640625,965.3115234375,518.8519897460938,515.80712890625,920.9761352539062,362.2437744140625,373.0350036621094,839.8025512695312,280.3031921386719,379.1800231933594,940.5399169921875,439.6327209472656,190.24282836914062,0.0,0.0,0.0,0.0,0.0,0.0,0.0,0.0,0.0,0.0,0.0,0.0,1.0,0.0,0.0,0.0,0.0,0.0,0.0,0.0,0.0,0.0,0.0,0.0,0.0,1.0,0.0,0.0,0.0,0.0,0.0,0.0,0.0,0.0,0.0,0.0,0.0,0.0,1.0,0.0,0.0,0.0,0.0,0.0,0.0,0.0,0.0,0.0,0.0,0.0,0.0,1.0,0.0,0.0,0.0,0.0,0.0,0.0,0.0,0.0,0.0,0.0,0.0,0.0,1.0,0.0,0.0,0.0,0.0,0.0,0.0,0.0,0.0,0.0,0.0,0.0,0.0,1.0,0.0,0.0,0.0,0.0,0.0,0.0,0.0,0.0,0.0,0.0,0.0,0.0,1.0,0,0,0,0,0,0,0,0,0,0,0,0,0,0,0,0,0,0,0,0,0,0,0,0,0,0,0,0,0,0,0,0,0,0,0,0
1777383918.475913,57,1777383908.3681765,,,0,0,,,0,0,0.0,0.0,0.0,0.0,0.0,0.0,0.0,0.0,0.0,0.0,0.0,0.0,0.0,0.0,0.0,0.0,0.0,0.0,0.0,0.0,0.0,0.0,0.0,0.0,0.0,0.0,0.0,669.6530151367188,617.63427734375,1119.5462646484375,920.903076171875,640.0346069335938,1120.627685546875,716.1450805664062,438.7424621582031,1146.94677734375,876.9207153320312,433.67926025390625,1145.219970703125,613.28759765625,547.4459838867188,859.0206298828125,655.8682250976562,604.29052734375,603.7909545898438,639.9138793945312,562.4572143554688,432.3467102050781,665.6067504882812,557.8663330078125,235.65280151367188,729.7993774414062,460.82257080078125,159.88746643066406,687.3416137695312,726.6976928710938,181.96817016601562,987.90625,622.8614501953125,804.9862060546875,955.029296875,624.0204467773438,601.4990234375,964.427490234375,525.38037109375,518.045654296875,918.6442260742188,370.8902282714844,373.3056945800781,834.7427978515625,289.3749084472656,374.9859313964844,942.9436645507812,452.453857421875,193.9215545654297,0.0,0.0,0.0,0.0,0.0,0.0,0.0,0.0,0.0,0.0,0.0,0.0,1.0,0.0,0.0,0.0,0.0,0.0,0.0,0.0,0.0,0.0,0.0,0.0,0.0,1.0,0.0,0.0,0.0,0.0,0.0,0.0,0.0,0.0,0.0,0.0,0.0,0.0,1.0,0.0,0.0,0.0,0.0,0.0,0.0,0.0,0.0,0.0,0.0,0.0,0.0,1.0,0.0,0.0,0.0,0.0,0.0,0.0,0.0,0.0,0.0,0.0,0.0,0.0,1.0,0.0,0.0,0.0,0.0,0.0,0.0,0.0,0.0,0.0,0.0,0.0,0.0,1.0,0.0,0.0,0.0,0.0,0.0,0.0,0.0,0.0,0.0,0.0,0.0,0.0,1.0,0,0,0,0,0,0,0,0,0,0,0,0,0,0,0,0,0,0,0,0,0,0,0,0,0,0,0,0,0,0,0,0,0,0,0,0
1777383918.475913,58,1777383908.3796847,,,0,0,,,0,0,0.0,0.0,0.0,0.0,0.0,0.0,0.0,0.0,0.0,0.0,0.0,0.0,0.0,0.0,0.0,0.0,0.0,0.0,0.0,0.0,0.0,0.0,0.0,0.0,0.0,0.0,0.0,669.1427612304688,616.9115600585938,1119.96923828125,920.4845581054688,638.4730834960938,1121.6328125,715.0875244140625,437.9684753417969,1147.6021728515625,875.7793579101562,432.2817687988281,1146.1617431640625,612.7893676757812,545.4813232421875,859.0971069335938,655.8997192382812,599.8983154296875,603.639404296875,640.1249389648438,556.8328247070312,432.50189208984375,665.974609375,550.6588134765625,235.87315368652344,730.0818481445312,453.3325500488281,160.1560516357422,687.5081176757812,719.1885986328125,181.86672973632812,988.3007202148438,624.1666870117188,808.0118408203125,955.4334716796875,629.2723388671875,604.3365478515625,963.6083374023438,531.7678833007812,519.6683349609375,916.5029907226562,380.012939453125,372.375732421875,830.3863525390625,298.8718566894531,369.409423828125,945.1541748046875,466.4351806640625,196.9374237060547,0.0,0.0,0.0,0.0,0.0,0.0,0.0,0.0,0.0,0.0,0.0,0.0,1.0,0.0,0.0,0.0,0.0,0.0,0.0,0.0,0.0,0.0,0.0,0.0,0.0,1.0,0.0,0.0,0.0,0.0,0.0,0.0,0.0,0.0,0.0,0.0,0.0,0.0,1.0,0.0,0.0,0.0,0.0,0.0,0.0,0.0,0.0,0.0,0.0,0.0,0.0,1.0,0.0,0.0,0.0,0.0,0.0,0.0,0.0,0.0,0.0,0.0,0.0,0.0,1.0,0.0,0.0,0.0,0.0,0.0,0.0,0.0,0.0,0.0,0.0,0.0,0.0,1.0,0.0,0.0,0.0,0.0,0.0,0.0,0.0,0.0,0.0,0.0,0.0,0.0,1.0,0,0,0,0,0,0,0,0,0,0,0,0,0,0,0,0,0,0,0,0,0,0,0,0,0,0,0,0,0,0,0,0,0,0,0,0
1777383918.475913,59,1777383908.381683,,,0,0,,,0,0,0.0,0.0,0.0,0.0,0.0,0.0,0.0,0.0,0.0,0.0,0.0,0.0,0.0,0.0,0.0,0.0,0.0,0.0,0.0,0.0,0.0,0.0,0.0,0.0,0.0,0.0,0.0,668.7071533203125,616.1336669921875,1120.3507080078125,920.1384887695312,636.9043579101562,1122.60205078125,714.1395874023438,437.14593505859375,1148.221923828125,874.747802734375,430.8656921386719,1147.0855712890625,612.3716430664062,543.515869140625,859.1726684570312,655.9755249023438,595.4573364257812,603.5086669921875,640.3587036132812,551.1576538085938,432.686767578125,666.3430786132812,543.42626953125,236.1117401123047,730.3651123046875,445.85260009765625,160.4113006591797,687.6721801757812,711.661376953125,181.78443908691406,988.6914672851562,625.3283081054688,811.0498657226562,955.7994995117188,634.0786743164062,606.9567260742188,962.8809204101562,538.0323486328125,520.6456909179688,914.5944213867188,389.6379699707031,370.2650146484375,826.8429565429688,308.90142822265625,362.640869140625,947.12890625,481.440185546875,199.17825317382812,0.0,0.0,0.0,0.0,0.0,0.0,0.0,0.0,0.0,0.0,0.0,0.0,1.0,0.0,0.0,0.0,0.0,0.0,0.0,0.0,0.0,0.0,0.0,0.0,0.0,1.0,0.0,0.0,0.0,0.0,0.0,0.0,0.0,0.0,0.0,0.0,0.0,0.0,1.0,0.0,0.0,0.0,0.0,0.0,0.0,0.0,0.0,0.0,0.0,0.0,0.0,1.0,0.0,0.0,0.0,0.0,0.0,0.0,0.0,0.0,0.0,0.0,0.0,0.0,1.0,0.0,0.0,0.0,0.0,0.0,0.0,0.0,0.0,0.0,0.0,0.0,0.0,1.0,0.0,0.0,0.0,0.0,0.0,0.0,0.0,0.0,0.0,0.0,0.0,0.0,1.0,0,0,0,0,0,0,0,0,0,0,0,0,0,0,0,0,0,0,0,0,0,0,0,0,0,0,0,0,0,0,0,0,0,0,0,0
1777383918.475913,60,1777383908.3950431,,,0,0,,,0,0,0.0,0.0,0.0,0.0,0.0,0.0,0.0,0.0,0.0,0.0,0.0,0.0,0.0,0.0,0.0,0.0,0.0,0.0,0.0,0.0,0.0,0.0,0.0,0.0,0.0,0.0,0.0,668.344482421875,615.31201171875,1120.6864013671875,919.8633422851562,635.3370971679688,1123.524658203125,713.2990112304688,436.2857971191406,1148.80419921875,873.8255615234375,429.4419250488281,1147.982666015625,612.0284423828125,541.54443359375,859.2427978515625,656.0897827148438,590.9666748046875,603.3910522460938,640.6143798828125,545.4310913085938,432.8912048339844,666.7152099609375,536.171875,236.3636016845703,730.6461181640625,438.3876647949219,160.65159606933594,687.83447265625,704.1243286132812,181.7172088623047,989.0762939453125,626.3363647460938,814.0593872070312,956.1306762695312,638.4440307617188,609.3199462890625,962.2654418945312,544.1896362304688,520.9635009765625,912.948974609375,399.783203125,367.0209655761719,824.1464233398438,319.5343017578125,354.8106689453125,948.86962890625,497.35614013671875,200.62088012695312,0.0,0.0,0.0,0.0,0.0,0.0,0.0,0.0,0.0,0.0,0.0,0.0,1.0,0.0,0.0,0.0,0.0,0.0,0.0,0.0,0.0,0.0,0.0,0.0,0.0,1.0,0.0,0.0,0.0,0.0,0.0,0.0,0.0,0.0,0.0,0.0,0.0,0.0,1.0,0.0,0.0,0.0,0.0,0.0,0.0,0.0,0.0,0.0,0.0,0.0,0.0,1.0,0.0,0.0,0.0,0.0,0.0,0.0,0.0,0.0,0.0,0.0,0.0,0.0,1.0,0.0,0.0,0.0,0.0,0.0,0.0,0.0,0.0,0.0,0.0,0.0,0.0,1.0,0.0,0.0,0.0,0.0,0.0,0.0,0.0,0.0,0.0,0.0,0.0,0.0,1.0,0,0,0,0,0,0,0,0,0,0,0,0,0,0,0,0,0,0,0,0,0,0,0,0,0,0,0,0,0,0,0,0,0,0,0,0
1777383918.475913,61,1777383908.415811,1777383908.415811,,0,0,0.0,,1,0,0.0,0.0,0.0,0.0,0.0,0.0,0.0,0.0,0.0,0.0,0.0,0.0,0.0,0.0,0.0,0.0,0.0,0.0,0.0,0.0,0.0,0.0,0.0,0.0,0.0,0.0,0.0,668.0531005859375,614.4573364257812,1120.97119140625,919.6574096679688,633.7803344726562,1124.388427734375,712.5634155273438,435.3985290527344,1149.3470458984375,873.0117797851562,428.02154541015625,1148.8446044921875,611.7568969726562,539.5574951171875,859.301025390625,656.2374877929688,586.4253540039062,603.277587890625,640.8907470703125,539.6578369140625,433.1031799316406,667.0940551757812,528.9004516601562,236.6238555908203,730.9219970703125,430.93707275390625,160.87985229492188,687.9967041015625,696.5849609375,181.660400390625,989.4552612304688,627.1770629882812,816.9961547851562,956.4313354492188,642.3709716796875,611.389892578125,961.7752685546875,550.2525024414062,520.6215209960938,911.5867309570312,410.4593811035156,362.7142028808594,822.2588500976562,330.8187561035156,346.00384521484375,950.4201049804688,514.0872192382812,201.31309509277344,4.2588,0.7465,8.9147,1.0376,-0.061,-0.6104,4.7681,-25.4553,-129.0399,0.2162,-0.0581,-0.8837,0.411,5.2685,8.1635,-0.4354,0.1221,-0.3662,-0.1831,93.0542,-32.8052,-106.8256,0.5709,0.4432,-0.6521,0.2289,1.3733,-8.331,5.0962,-0.2441,-0.2441,0.4883,-58.5352,-7.9816,-65.6158,-0.377,-0.3153,-0.4429,0.7499,0.2105,1.1676,9.9627,-0.5493,-0.1831,0.3052,6.6687,-1.2195,79.3707,0.038,-0.0453,0.637,0.7686,3.9238,-8.1061,3.943,0.4883,-0.6104,-0.6104,-64.0558,-23.5162,160.2081,-0.2594,0.4818,0.8362,0.0362,0.1483,2.2155,-9.3071,0.2441,-0.3052,0.3662,166.6241,-0.9009,-165.2618,0.1283,0.9848,-0.1165,0.0072,0.5981,-0.134,9.9962,0.4272,0.061,-0.061,-0.7745,-3.4058,3.3234,-0.0076,-0.0295,0.0292,0.9991,0,0,0,0,0,0,0,0,0,0,0,0,0,0,0,0,0,0,0,0,0,0,0,0,0,0,0,0,0,0,0,0,0,0,0,0
1777383918.475913,62,1777383908.417589,1777383908.415811,,0,0,1.7778873443603516,,1,0,0.0,0.0,0.0,0.0,0.0,0.0,0.0,0.0,0.0,0.0,0.0,0.0,0.0,0.0,0.0,0.0,0.0,0.0,0.0,0.0,0.0,0.0,0.0,0.0,0.0,0.0,0.0,667.8313598632812,613.57958984375,1121.1986083984375,919.5188598632812,632.2432861328125,1125.179931640625,711.9307861328125,434.4942932128906,1149.8485107421875,872.3057250976562,426.6156921386719,1149.6622314453125,611.5567016601562,537.543212890625,859.3394165039062,656.414794921875,581.8331298828125,603.15869140625,641.1868896484375,533.84619140625,433.3097229003906,667.4829711914062,521.6172485351562,236.88784790039062,731.1910400390625,423.4935302734375,161.10354614257812,688.1617431640625,689.0497436523438,181.60923767089844,989.8301391601562,627.8343505859375,819.8140258789062,956.7064208984375,645.8598022460938,613.1341552734375,961.4181518554688,556.2310180664062,519.632080078125,910.51953125,421.67181396484375,357.4342041015625,821.0849609375,342.7958068847656,336.28515625,951.8568115234375,531.543701171875,201.3482666015625,4.2588,0.7465,8.9147,1.0376,-0.061,-0.6104,4.7681,-25.4553,-129.0399,0.2162,-0.0581,-0.8837,0.411,5.2685,8.1635,-0.4354,0.1221,-0.3662,-0.1831,93.0542,-32.8052,-106.8256,0.5709,0.4432,-0.6521,0.2289,1.3733,-8.331,5.0962,-0.2441,-0.2441,0.4883,-58.5352,-7.9816,-65.6158,-0.377,-0.3153,-0.4429,0.7499,0.2105,1.1676,9.9627,-0.5493,-0.1831,0.3052,6.6687,-1.2195,79.3707,0.038,-0.0453,0.637,0.7686,3.9238,-8.1061,3.943,0.4883,-0.6104,-0.6104,-64.0558,-23.5162,160.2081,-0.2594,0.4818,0.8362,0.0362,0.1483,2.2155,-9.3071,0.2441,-0.3052,0.3662,166.6241,-0.9009,-165.2618,0.1283,0.9848,-0.1165,0.0072,0.5981,-0.134,9.9962,0.4272,0.061,-0.061,-0.7745,-3.4058,3.3234,-0.0076,-0.0295,0.0292,0.9991,0,0,0,0,0,0,0,0,0,0,0,0,0,0,0,0,0,0,0,0,0,0,0,0,0,0,0,0,0,0,0,0,0,0,0,0
1777383918.475913,63,1777383908.4281251,1777383908.415811,,0,0,12.314081192016602,,1,0,0.0,0.0,0.0,0.0,0.0,0.0,0.0,0.0,0.0,0.0,0.0,0.0,0.0,0.0,0.0,0.0,0.0,0.0,0.0,0.0,0.0,0.0,0.0,0.0,0.0,0.0,0.0,667.677490234375,612.6878662109375,1121.3612060546875,919.4452514648438,630.7355346679688,1125.8851318359375,711.3992919921875,433.58258056640625,1150.306396484375,871.7067260742188,425.2354431152344,1150.4267578125,611.4295654296875,535.4891967773438,859.35009765625,656.6190795898438,577.1904907226562,603.0247802734375,641.5028076171875,528.0057983398438,433.4981994628906,667.8851318359375,514.326904296875,237.15122985839844,731.4526977539062,416.0437927246094,161.33306884765625,688.33349609375,681.522705078125,181.55909729003906,990.2042236328125,628.2919311523438,822.4666748046875,956.961181640625,648.9091186523438,614.524658203125,961.1982421875,562.1327514648438,518.0185546875,909.7532958984375,433.42230224609375,351.2854919433594,820.4923095703125,355.50897216796875,325.72564697265625,953.27587890625,549.6331787109375,200.84005737304688,4.2588,0.7465,8.9147,1.0376,-0.061,-0.6104,4.7681,-25.4553,-129.0399,0.2162,-0.0581,-0.8837,0.411,5.2685,8.1635,-0.4354,0.1221,-0.3662,-0.1831,93.0542,-32.8052,-106.8256,0.5709,0.4432,-0.6521,0.2289,1.3733,-8.331,5.0962,-0.2441,-0.2441,0.4883,-58.5352,-7.9816,-65.6158,-0.377,-0.3153,-0.4429,0.7499,0.2105,1.1676,9.9627,-0.5493,-0.1831,0.3052,6.6687,-1.2195,79.3707,0.038,-0.0453,0.637,0.7686,3.9238,-8.1061,3.943,0.4883,-0.6104,-0.6104,-64.0558,-23.5162,160.2081,-0.2594,0.4818,0.8362,0.0362,0.1483,2.2155,-9.3071,0.2441,-0.3052,0.3662,166.6241,-0.9009,-165.2618,0.1283,0.9848,-0.1165,0.0072,0.5981,-0.134,9.9962,0.4272,0.061,-0.061,-0.7745,-3.4058,3.3234,-0.0076,-0.0295,0.0292,0.9991,0,0,0,0,0,0,0,0,0,0,0,0,0,0,0,0,0,0,0,0,0,0,0,0,0,0,0,0,0,0,0,0,0,0,0,0
1777383918.475913,64,1777383908.4458022,,,0,0,,,0,0,0.0,0.0,0.0,0.0,0.0,0.0,0.0,0.0,0.0,0.0,0.0,0.0,0.0,0.0,0.0,0.0,0.0,0.0,0.0,0.0,0.0,0.0,0.0,0.0,0.0,0.0,0.0,667.5892333984375,611.7901611328125,1121.4517822265625,919.4337768554688,629.2672729492188,1126.490478515625,710.9677124023438,432.6724548339844,1150.71826171875,871.21435546875,423.89166259765625,1151.1290283203125,611.3782348632812,533.3840942382812,859.3255004882812,656.8486938476562,572.4988403320312,602.8671264648438,641.8390502929688,522.1455078125,433.6573486328125,668.3029174804688,507.0326232910156,237.41012573242188,731.7079467773438,408.57220458984375,161.5780792236328,688.5161743164062,674.005615234375,181.50570678710938,990.5817260742188,628.534912109375,824.9093017578125,957.2006225585938,651.5162353515625,615.5384521484375,961.117919921875,567.9634399414062,515.8141479492188,909.2904663085938,445.7100524902344,344.384521484375,820.334228515625,369.00628662109375,314.4226989746094,954.77783203125,568.25634765625,199.90292358398438,0.0,0.0,0.0,0.0,0.0,0.0,0.0,0.0,0.0,0.0,0.0,0.0,1.0,0.0,0.0,0.0,0.0,0.0,0.0,0.0,0.0,0.0,0.0,0.0,0.0,1.0,0.0,0.0,0.0,0.0,0.0,0.0,0.0,0.0,0.0,0.0,0.0,0.0,1.0,0.0,0.0,0.0,0.0,0.0,0.0,0.0,0.0,0.0,0.0,0.0,0.0,1.0,0.0,0.0,0.0,0.0,0.0,0.0,0.0,0.0,0.0,0.0,0.0,0.0,1.0,0.0,0.0,0.0,0.0,0.0,0.0,0.0,0.0,0.0,0.0,0.0,0.0,1.0,0.0,0.0,0.0,0.0,0.0,0.0,0.0,0.0,0.0,0.0,0.0,0.0,1.0,0,0,0,0,0,0,0,0,0,0,0,0,0,0,0,0,0,0,0,0,0,0,0,0,0,0,0,0,0,0,0,0,0,0,0,0
1777383918.475913,65,1777383908.4478083,,,0,0,,,0,0,0.0,0.0,0.0,0.0,0.0,0.0,0.0,0.0,0.0,0.0,0.0,0.0,0.0,0.0,0.0,0.0,0.0,0.0,0.0,0.0,0.0,0.0,0.0,0.0,0.0,0.0,0.0,667.5641479492188,610.8936157226562,1121.4627685546875,919.4813842773438,627.8488159179688,1126.983154296875,710.6353759765625,431.77252197265625,1151.081298828125,870.8285522460938,422.5950622558594,1151.7606201171875,611.4053955078125,531.2188720703125,859.259521484375,657.1024780273438,567.7605590820312,602.6782836914062,642.1962890625,516.2716674804688,433.77813720703125,668.7373046875,499.7354736328125,237.66110229492188,731.9599609375,401.0657653808594,161.84312438964844,688.7138061523438,666.4974975585938,181.4452362060547,990.9677734375,628.5513305664062,827.1001586914062,957.429443359375,653.6787719726562,616.1586303710938,961.1792602539062,573.727294921875,513.0613403320312,909.1314697265625,458.53167724609375,336.8577880859375,820.47119140625,383.3354187011719,302.5087890625,956.453369140625,587.3089599609375,198.6420440673828,0.0,0.0,0.0,0.0,0.0,0.0,0.0,0.0,0.0,0.0,0.0,0.0,1.0,0.0,0.0,0.0,0.0,0.0,0.0,0.0,0.0,0.0,0.0,0.0,0.0,1.0,0.0,0.0,0.0,0.0,0.0,0.0,0.0,0.0,0.0,0.0,0.0,0.0,1.0,0.0,0.0,0.0,0.0,0.0,0.0,0.0,0.0,0.0,0.0,0.0,0.0,1.0,0.0,0.0,0.0,0.0,0.0,0.0,0.0,0.0,0.0,0.0,0.0,0.0,1.0,0.0,0.0,0.0,0.0,0.0,0.0,0.0,0.0,0.0,0.0,0.0,0.0,1.0,0.0,0.0,0.0,0.0,0.0,0.0,0.0,0.0,0.0,0.0,0.0,0.0,1.0,0,0,0,0,0,0,0,0,0,0,0,0,0,0,0,0,0,0,0,0,0,0,0,0,0,0,0,0,0,0,0,0,0,0,0,0
1777383918.475913,66,1777383908.4610336,,,0,0,,,0,0,0.0,0.0,0.0,0.0,0.0,0.0,0.0,0.0,0.0,0.0,0.0,0.0,0.0,0.0,0.0,0.0,0.0,0.0,0.0,0.0,0.0,0.0,0.0,0.0,0.0,0.0,0.0,667.599365234375,610.0047607421875,1121.3875732421875,919.5845336914062,626.4906616210938,1127.3515625,710.4022216796875,430.890869140625,1151.392578125,870.549560546875,421.35589599609375,1152.3128662109375,611.5128784179688,528.9876708984375,859.1477661132812,657.3795166015625,562.9790649414062,602.4527587890625,642.574462890625,510.38787841796875,433.8544616699219,669.1871948242188,492.4346008300781,237.90135192871094,732.2130737304688,393.5177917480469,162.12545776367188,688.928955078125,658.9954223632812,181.37452697753906,991.3682250976562,628.3333740234375,829.0018920898438,957.651611328125,655.39599609375,616.3753662109375,961.3843994140625,579.4270629882812,509.8115234375,909.2765502929688,471.8799743652344,328.84027099609375,820.7882690429688,398.5333251953125,290.1493835449219,958.371826171875,606.687744140625,197.1531982421875,0.0,0.0,0.0,0.0,0.0,0.0,0.0,0.0,0.0,0.0,0.0,0.0,1.0,0.0,0.0,0.0,0.0,0.0,0.0,0.0,0.0,0.0,0.0,0.0,0.0,1.0,0.0,0.0,0.0,0.0,0.0,0.0,0.0,0.0,0.0,0.0,0.0,0.0,1.0,0.0,0.0,0.0,0.0,0.0,0.0,0.0,0.0,0.0,0.0,0.0,0.0,1.0,0.0,0.0,0.0,0.0,0.0,0.0,0.0,0.0,0.0,0.0,0.0,0.0,1.0,0.0,0.0,0.0,0.0,0.0,0.0,0.0,0.0,0.0,0.0,0.0,0.0,1.0,0.0,0.0,0.0,0.0,0.0,0.0,0.0,0.0,0.0,0.0,0.0,0.0,1.0,0,0,0,0,0,0,0,0,0,0,0,0,0,0,0,0,0,0,0,0,0,0,0,0,0,0,0,0,0,0,0,0,0,0,0,0
1777383918.475913,67,1777383908.4670343,,,0,0,,,0,0,0.0,0.0,0.0,0.0,0.0,0.0,0.0,0.0,0.0,0.0,0.0,0.0,0.0,0.0,0.0,0.0,0.0,0.0,0.0,0.0,0.0,0.0,0.0,0.0,0.0,0.0,0.0,667.6920776367188,609.12939453125,1121.2208251953125,919.7398681640625,625.203369140625,1127.586181640625,710.2689208984375,430.0352783203125,1151.6485595703125,870.3780517578125,420.1839904785156,1152.7779541015625,611.701171875,526.688232421875,858.9878540039062,657.678466796875,558.1591186523438,602.1868896484375,642.971923828125,504.49542236328125,433.8834228515625,669.6490478515625,485.1276550292969,238.12879943847656,732.4720458984375,385.928955078125,162.4158935546875,689.1620483398438,651.4949951171875,181.2913360595703,991.7891845703125,627.8782958984375,830.582763671875,957.8701782226562,656.6699829101562,616.1864013671875,961.7352294921875,585.0638427734375,506.12548828125,909.726318359375,485.7417907714844,320.4739685058594,821.20751953125,414.6153259277344,277.5326843261719,960.574951171875,626.297607421875,195.5296173095703,0.0,0.0,0.0,0.0,0.0,0.0,0.0,0.0,0.0,0.0,0.0,0.0,1.0,0.0,0.0,0.0,0.0,0.0,0.0,0.0,0.0,0.0,0.0,0.0,0.0,1.0,0.0,0.0,0.0,0.0,0.0,0.0,0.0,0.0,0.0,0.0,0.0,0.0,1.0,0.0,0.0,0.0,0.0,0.0,0.0,0.0,0.0,0.0,0.0,0.0,0.0,1.0,0.0,0.0,0.0,0.0,0.0,0.0,0.0,0.0,0.0,0.0,0.0,0.0,1.0,0.0,0.0,0.0,0.0,0.0,0.0,0.0,0.0,0.0,0.0,0.0,0.0,1.0,0.0,0.0,0.0,0.0,0.0,0.0,0.0,0.0,0.0,0.0,0.0,0.0,1.0,0,0,0,0,0,0,0,0,0,0,0,0,0,0,0,0,0,0,0,0,0,0,0,0,0,0,0,0,0,0,0,0,0,0,0,0
1777383918.475913,68,1777383908.4833326,1777383908.4829996,,0,0,0.3330707550048828,,1,0,0.0,0.0,0.0,0.0,0.0,0.0,0.0,0.0,0.0,0.0,0.0,0.0,0.0,0.0,0.0,0.0,0.0,0.0,0.0,0.0,0.0,0.0,0.0,0.0,0.0,0.0,0.0,667.8394775390625,608.27294921875,1120.9583740234375,919.944091796875,623.9971923828125,1127.6798095703125,710.2364501953125,429.2131652832031,1151.8455810546875,870.3150024414062,419.0885925292969,1153.148681640625,611.9689331054688,524.3222045898438,858.7794799804688,657.997802734375,553.3071899414062,601.8793334960938,643.3858032226562,498.59454345703125,433.8653869628906,670.1170654296875,477.81170654296875,238.34222412109375,732.7401123046875,378.3065490722656,162.70188903808594,689.4108276367188,643.9915161132812,181.1947784423828,992.2373657226562,627.1893310546875,831.8177490234375,958.087158203125,657.5078125,615.5983276367188,962.2323608398438,590.6365356445312,502.0732421875,910.4815063476562,500.0950012207031,311.9064636230469,821.69482421875,431.56500244140625,264.85504150390625,963.0734252929688,646.0576782226562,193.8719940185547,4.2588,0.7417,8.91,1.0986,-0.061,-0.6104,4.7681,-25.4553,-129.0399,0.2162,-0.0581,-0.8837,0.411,5.2732,8.1635,-0.4307,0.1831,-0.4272,-0.1221,93.0542,-32.8052,-106.8311,0.5709,0.4432,-0.6521,0.2288,1.3686,-8.3357,5.0962,-0.1831,-0.3052,0.4883,-58.5352,-7.9816,-65.6158,-0.377,-0.3153,-0.4429,0.7499,0.2153,1.1676,9.9675,-0.5493,-0.2441,0.3052,6.6687,-1.2195,79.3707,0.038,-0.0453,0.637,0.7686,3.9238,-8.1013,3.9382,0.4883,-0.5493,-0.6104,-64.0558,-23.5162,160.2026,-0.2594,0.4818,0.8362,0.0362,0.1531,2.206,-9.3071,0.2441,-0.2441,0.3662,166.6241,-0.9009,-165.2289,0.1286,0.9848,-0.1165,0.0072,0.5981,-0.1388,9.9962,0.4883,0.061,-0.1221,-0.7745,-3.4058,3.3234,-0.0076,-0.0295,0.0292,0.9991,0,0,0,0,0,0,0,0,0,0,0,0,0,0,0,0,0,0,0,0,0,0,0,0,0,0,0,0,0,0,0,0,0,0,0,0
1777383918.475913,69,1777383908.4953957,1777383908.4829996,,0,0,12.396097183227539,,1,0,0.0,0.0,0.0,0.0,0.0,0.0,0.0,0.0,0.0,0.0,0.0,0.0,0.0,0.0,0.0,0.0,0.0,0.0,0.0,0.0,0.0,0.0,0.0,0.0,0.0,0.0,0.0,668.039306640625,607.4410400390625,1120.5980224609375,920.1945190429688,622.8819580078125,1127.6280517578125,710.3063354492188,428.4317321777344,1151.9801025390625,870.361572265625,418.0782775878906,1153.418701171875,612.3131103515625,521.8950805664062,858.5241088867188,658.3355712890625,548.4318237304688,601.530517578125,643.811767578125,492.68560791015625,433.8037414550781,670.5839233398438,470.484130859375,238.5413055419922,733.0175170898438,370.6616516113281,162.97142028808594,689.6702880859375,636.4807739257812,181.08575439453125,992.7192993164062,626.276123046875,832.6890869140625,958.3037719726562,657.9223022460938,614.626953125,962.8738403320312,596.1415405273438,497.73382568359375,911.5427856445312,514.9053344726562,303.28851318359375,822.261474609375,449.3274230957031,252.30752563476562,965.8469848632812,665.9036254882812,192.2969970703125,4.2588,0.7417,8.91,1.0986,-0.061,-0.6104,4.7681,-25.4553,-129.0399,0.2162,-0.0581,-0.8837,0.411,5.2732,8.1635,-0.4307,0.1831,-0.4272,-0.1221,93.0542,-32.8052,-106.8311,0.5709,0.4432,-0.6521,0.2288,1.3686,-8.3357,5.0962,-0.1831,-0.3052,0.4883,-58.5352,-7.9816,-65.6158,-0.377,-0.3153,-0.4429,0.7499,0.2153,1.1676,9.9675,-0.5493,-0.2441,0.3052,6.6687,-1.2195,79.3707,0.038,-0.0453,0.637,0.7686,3.9238,-8.1013,3.9382,0.4883,-0.5493,-0.6104,-64.0558,-23.5162,160.2026,-0.2594,0.4818,0.8362,0.0362,0.1531,2.206,-9.3071,0.2441,-0.2441,0.3662,166.6241,-0.9009,-165.2289,0.1286,0.9848,-0.1165,0.0072,0.5981,-0.1388,9.9962,0.4883,0.061,-0.1221,-0.7745,-3.4058,3.3234,-0.0076,-0.0295,0.0292,0.9991,0,0,0,0,0,0,0,0,0,0,0,0,0,0,0,0,0,0,0,0,0,0,0,0,0,0,0,0,0,0,0,0,0,0,0,0
1777383918.475913,70,1777383908.4978971,1777383908.4829996,,0,0,14.897584915161133,,1,0,0.0,0.0,0.0,0.0,0.0,0.0,0.0,0.0,0.0,0.0,0.0,0.0,0.0,0.0,0.0,0.0,0.0,0.0,0.0,0.0,0.0,0.0,0.0,0.0,0.0,0.0,0.0,668.2900390625,606.63916015625,1120.1396484375,920.4893188476562,621.8670043945312,1127.42919921875,710.4804077148438,427.6978759765625,1152.048095703125,870.5191040039062,417.1610412597656,1153.58251953125,612.7290649414062,519.41650390625,858.2249755859375,658.6900024414062,543.5433959960938,601.1428833007812,644.2452392578125,486.7702941894531,433.70465087890625,671.0418090820312,463.1434020996094,238.726806640625,733.3008422851562,363.00616455078125,163.21617126464844,689.93359375,628.9599609375,180.96710205078125,993.2416381835938,625.1548461914062,833.1870727539062,958.520751953125,657.9337158203125,613.297119140625,963.6550903320312,601.572265625,493.1936950683594,912.9092407226562,530.1229248046875,294.7709655761719,822.959228515625,467.8049621582031,240.06578063964844,968.84521484375,685.7855224609375,190.94093322753906,4.2588,0.7417,8.91,1.0986,-0.061,-0.6104,4.7681,-25.4553,-129.0399,0.2162,-0.0581,-0.8837,0.411,5.2732,8.1635,-0.4307,0.1831,-0.4272,-0.1221,93.0542,-32.8052,-106.8311,0.5709,0.4432,-0.6521,0.2288,1.3686,-8.3357,5.0962,-0.1831,-0.3052,0.4883,-58.5352,-7.9816,-65.6158,-0.377,-0.3153,-0.4429,0.7499,0.2153,1.1676,9.9675,-0.5493,-0.2441,0.3052,6.6687,-1.2195,79.3707,0.038,-0.0453,0.637,0.7686,3.9238,-8.1013,3.9382,0.4883,-0.5493,-0.6104,-64.0558,-23.5162,160.2026,-0.2594,0.4818,0.8362,0.0362,0.1531,2.206,-9.3071,0.2441,-0.2441,0.3662,166.6241,-0.9009,-165.2289,0.1286,0.9848,-0.1165,0.0072,0.5981,-0.1388,9.9962,0.4883,0.061,-0.1221,-0.7745,-3.4058,3.3234,-0.0076,-0.0295,0.0292,0.9991,0,0,0,0,0,0,0,0,0,0,0,0,0,0,0,0,0,0,0,0,0,0,0,0,0,0,0,0,0,0,0,0,0,0,0,0
1777383918.475913,71,1777383908.5122957,,,0,0,,,0,0,0.0,0.0,0.0,0.0,0.0,0.0,0.0,0.0,0.0,0.0,0.0,0.0,0.0,0.0,0.0,0.0,0.0,0.0,0.0,0.0,0.0,0.0,0.0,0.0,0.0,0.0,0.0,668.5910034179688,605.8734130859375,1119.5850830078125,920.8275146484375,620.9608764648438,1127.0845947265625,710.7604370117188,427.0184631347656,1152.0458984375,870.7888793945312,416.34405517578125,1153.63623046875,613.2109375,516.899658203125,857.8865356445312,659.059814453125,538.6543579101562,600.7201538085938,644.68212890625,480.85235595703125,433.576416015625,671.4835205078125,455.7895202636719,238.900634765625,733.5846557617188,355.349853515625,163.4334259033203,690.1942138671875,621.4277954101562,180.8429718017578,993.810546875,623.8485107421875,833.31005859375,958.738525390625,657.5700073242188,611.6425170898438,964.5684204101562,606.9193725585938,488.5442199707031,914.5767822265625,545.679443359375,286.5007019042969,823.869873046875,486.8555603027344,228.28472900390625,971.9878540039062,705.6610107421875,189.95603942871094,0.0,0.0,0.0,0.0,0.0,0.0,0.0,0.0,0.0,0.0,0.0,0.0,1.0,0.0,0.0,0.0,0.0,0.0,0.0,0.0,0.0,0.0,0.0,0.0,0.0,1.0,0.0,0.0,0.0,0.0,0.0,0.0,0.0,0.0,0.0,0.0,0.0,0.0,1.0,0.0,0.0,0.0,0.0,0.0,0.0,0.0,0.0,0.0,0.0,0.0,0.0,1.0,0.0,0.0,0.0,0.0,0.0,0.0,0.0,0.0,0.0,0.0,0.0,0.0,1.0,0.0,0.0,0.0,0.0,0.0,0.0,0.0,0.0,0.0,0.0,0.0,0.0,1.0,0.0,0.0,0.0,0.0,0.0,0.0,0.0,0.0,0.0,0.0,0.0,0.0,1.0,0,0,0,0,0,0,0,0,0,0,0,0,0,0,0,0,0,0,0,0,0,0,0,0,0,0,0,0,0,0,0,0,0,0,0,0
1777383918.475913,72,1777383908.514363,,,0,0,,,0,0,0.0,0.0,0.0,0.0,0.0,0.0,0.0,0.0,0.0,0.0,0.0,0.0,0.0,0.0,0.0,0.0,0.0,0.0,0.0,0.0,0.0,0.0,0.0,0.0,0.0,0.0,0.0,668.9426879882812,605.1504516601562,1118.938232421875,921.2093505859375,620.1714477539062,1126.59814453125,711.1483154296875,426.400146484375,1151.9696044921875,871.172119140625,415.6339111328125,1153.57666015625,613.7518310546875,514.3614501953125,857.5138549804688,659.44482421875,533.779052734375,600.2673950195312,645.1200561523438,474.9380798339844,433.4289245605469,671.9037475585938,448.4244079589844,239.06590270996094,733.8624267578125,347.6991882324219,163.62608337402344,690.447509765625,613.8834228515625,180.7177734375,994.4314575195312,622.3867797851562,833.06494140625,958.9579467773438,656.8672485351562,609.7039794921875,965.6040649414062,612.1709594726562,483.8775329589844,916.5357666015625,561.4854736328125,278.6153564453125,825.0910034179688,506.2934265136719,217.0979766845703,975.1661376953125,725.4859008789062,189.49954223632812,0.0,0.0,0.0,0.0,0.0,0.0,0.0,0.0,0.0,0.0,0.0,0.0,1.0,0.0,0.0,0.0,0.0,0.0,0.0,0.0,0.0,0.0,0.0,0.0,0.0,1.0,0.0,0.0,0.0,0.0,0.0,0.0,0.0,0.0,0.0,0.0,0.0,0.0,1.0,0.0,0.0,0.0,0.0,0.0,0.0,0.0,0.0,0.0,0.0,0.0,0.0,1.0,0.0,0.0,0.0,0.0,0.0,0.0,0.0,0.0,0.0,0.0,0.0,0.0,1.0,0.0,0.0,0.0,0.0,0.0,0.0,0.0,0.0,0.0,0.0,0.0,0.0,1.0,0.0,0.0,0.0,0.0,0.0,0.0,0.0,0.0,0.0,0.0,0.0,0.0,1.0,0,0,0,0,0,0,0,0,0,0,0,0,0,0,0,0,0,0,0,0,0,0,0,0,0,0,0,0,0,0,0,0,0,0,0,0
1777383918.475913,73,1777383908.5271168,,,0,0,,,0,0,0.0,0.0,0.0,0.0,0.0,0.0,0.0,0.0,0.0,0.0,0.0,0.0,0.0,0.0,0.0,0.0,0.0,0.0,0.0,0.0,0.0,0.0,0.0,0.0,0.0,0.0,0.0,669.3466796875,604.4774780273438,1118.2049560546875,921.63623046875,619.505615234375,1125.9766845703125,711.6454467773438,425.8495788574219,1151.8157958984375,871.6697387695312,415.036376953125,1153.4027099609375,614.3446044921875,511.82196044921875,857.1123657226562,659.8465576171875,528.93310546875,599.7904052734375,645.55908203125,469.0361022949219,433.27301025390625,672.2999267578125,441.0519104003906,239.2270050048828,734.1285400390625,340.05718994140625,163.8009033203125,690.6910400390625,606.3262939453125,180.59552001953125,995.108642578125,620.8054809570312,832.466796875,959.1804809570312,655.869384765625,607.5277709960938,966.7503662109375,617.3126831054688,479.2820739746094,918.76806640625,577.4285888671875,271.237548828125,826.7192993164062,525.8937377929688,206.61993408203125,978.2449340820312,745.2026977539062,189.71673583984375,0.0,0.0,0.0,0.0,0.0,0.0,0.0,0.0,0.0,0.0,0.0,0.0,1.0,0.0,0.0,0.0,0.0,0.0,0.0,0.0,0.0,0.0,0.0,0.0,0.0,1.0,0.0,0.0,0.0,0.0,0.0,0.0,0.0,0.0,0.0,0.0,0.0,0.0,1.0,0.0,0.0,0.0,0.0,0.0,0.0,0.0,0.0,0.0,0.0,0.0,0.0,1.0,0.0,0.0,0.0,0.0,0.0,0.0,0.0,0.0,0.0,0.0,0.0,0.0,1.0,0.0,0.0,0.0,0.0,0.0,0.0,0.0,0.0,0.0,0.0,0.0,0.0,1.0,0.0,0.0,0.0,0.0,0.0,0.0,0.0,0.0,0.0,0.0,0.0,0.0,1.0,0,0,0,0,0,0,0,0,0,0,0,0,0,0,0,0,0,0,0,0,0,0,0,0,0,0,0,0,0,0,0,0,0,0,0,0
1777383918.475913,74,1777383908.5449455,,,0,0,,,0,0,0.0,0.0,0.0,0.0,0.0,0.0,0.0,0.0,0.0,0.0,0.0,0.0,0.0,0.0,0.0,0.0,0.0,0.0,0.0,0.0,0.0,0.0,0.0,0.0,0.0,0.0,0.0,669.8056030273438,603.8626098632812,1117.392822265625,922.1107177734375,618.9695434570312,1125.2294921875,712.2531127929688,425.37335205078125,1151.581298828125,872.2822265625,414.5564880371094,1153.1141357421875,614.9818115234375,509.3040466308594,856.6871948242188,660.2683715820312,524.1331176757812,599.2955932617188,646.0025024414062,463.1572265625,433.12005615234375,672.6727905273438,433.677490234375,239.3896484375,734.379150390625,332.42431640625,163.96664428710938,690.9244995117188,598.755859375,180.47918701171875,995.8447265625,619.1461791992188,831.5386962890625,959.4085693359375,654.626953125,605.1634521484375,967.994384765625,622.3284912109375,474.8375244140625,921.24462890625,593.3724975585938,264.4690246582031,828.833984375,545.400634765625,196.94822692871094,981.0687255859375,764.7307739257812,190.72125244140625,0.0,0.0,0.0,0.0,0.0,0.0,0.0,0.0,0.0,0.0,0.0,0.0,1.0,0.0,0.0,0.0,0.0,0.0,0.0,0.0,0.0,0.0,0.0,0.0,0.0,1.0,0.0,0.0,0.0,0.0,0.0,0.0,0.0,0.0,0.0,0.0,0.0,0.0,1.0,0.0,0.0,0.0,0.0,0.0,0.0,0.0,0.0,0.0,0.0,0.0,0.0,1.0,0.0,0.0,0.0,0.0,0.0,0.0,0.0,0.0,0.0,0.0,0.0,0.0,1.0,0.0,0.0,0.0,0.0,0.0,0.0,0.0,0.0,0.0,0.0,0.0,0.0,1.0,0.0,0.0,0.0,0.0,0.0,0.0,0.0,0.0,0.0,0.0,0.0,0.0,1.0,0,0,0,0,0,0,0,0,0,0,0,0,0,0,0,0,0,0,0,0,0,0,0,0,0,0,0,0,0,0,0,0,0,0,0,0
1777383918.475913,75,1777383908.5474524,,,0,0,,,0,0,0.0,0.0,0.0,0.0,0.0,0.0,0.0,0.0,0.0,0.0,0.0,0.0,0.0,0.0,0.0,0.0,0.0,0.0,0.0,0.0,0.0,0.0,0.0,0.0,0.0,0.0,0.0,670.3229370117188,603.3145141601562,1116.510986328125,922.6363525390625,618.5684204101562,1124.3682861328125,712.9718627929688,424.97802734375,1151.2635498046875,873.0097045898438,414.1986083984375,1152.7127685546875,615.656494140625,506.83306884765625,856.2428588867188,660.7154541015625,519.3963623046875,598.7894897460938,646.4566040039062,457.3138427734375,432.9814453125,673.0264282226562,426.307861328125,239.56069946289062,734.6130981445312,324.79931640625,164.13255310058594,691.1489868164062,591.1724243164062,180.3704071044922,996.640380859375,617.4552001953125,830.311279296875,959.6456298828125,653.1959838867188,602.6611328125,969.3212890625,627.199951171875,470.6107177734375,923.9238891601562,609.1572875976562,258.3855285644531,831.4825439453125,564.5360717773438,188.16624450683594,983.4698486328125,783.9580688476562,192.57679748535156,0.0,0.0,0.0,0.0,0.0,0.0,0.0,0.0,0.0,0.0,0.0,0.0,1.0,0.0,0.0,0.0,0.0,0.0,0.0,0.0,0.0,0.0,0.0,0.0,0.0,1.0,0.0,0.0,0.0,0.0,0.0,0.0,0.0,0.0,0.0,0.0,0.0,0.0,1.0,0.0,0.0,0.0,0.0,0.0,0.0,0.0,0.0,0.0,0.0,0.0,0.0,1.0,0.0,0.0,0.0,0.0,0.0,0.0,0.0,0.0,0.0,0.0,0.0,0.0,1.0,0.0,0.0,0.0,0.0,0.0,0.0,0.0,0.0,0.0,0.0,0.0,0.0,1.0,0.0,0.0,0.0,0.0,0.0,0.0,0.0,0.0,0.0,0.0,0.0,0.0,1.0,0,0,0,0,0,0,0,0,0,0,0,0,0,0,0,0,0,0,0,0,0,0,0,0,0,0,0,0,0,0,0,0,0,0,0,0
1777383918.475913,76,1777383908.5625823,,,0,0,,,0,0,0.0,0.0,0.0,0.0,0.0,0.0,0.0,0.0,0.0,0.0,0.0,0.0,0.0,0.0,0.0,0.0,0.0,0.0,0.0,0.0,0.0,0.0,0.0,0.0,0.0,0.0,0.0,670.9031372070312,602.8426513671875,1115.5694580078125,923.2177734375,618.306640625,1123.4063720703125,713.8018188476562,424.6701354980469,1150.8602294921875,873.8516845703125,413.9662780761719,1152.201904296875,616.3623046875,504.43603515625,855.7827758789062,661.1948852539062,514.740234375,598.278564453125,646.93017578125,451.5191345214844,432.8681945800781,673.3681030273438,418.95068359375,239.7480926513672,734.8327026367188,317.1800537109375,164.30718994140625,691.3665161132812,583.5772094726562,180.2692108154297,997.4939575195312,615.7824096679688,828.8214721679688,959.8958129882812,651.63623046875,600.069580078125,970.7134399414062,631.9060668945312,466.652587890625,926.750244140625,624.6013793945312,253.03302001953125,834.6719360351562,583.00830078125,180.34397888183594,985.279052734375,802.7359619140625,195.2829132080078,0.0,0.0,0.0,0.0,0.0,0.0,0.0,0.0,0.0,0.0,0.0,0.0,1.0,0.0,0.0,0.0,0.0,0.0,0.0,0.0,0.0,0.0,0.0,0.0,0.0,1.0,0.0,0.0,0.0,0.0,0.0,0.0,0.0,0.0,0.0,0.0,0.0,0.0,1.0,0.0,0.0,0.0,0.0,0.0,0.0,0.0,0.0,0.0,0.0,0.0,0.0,1.0,0.0,0.0,0.0,0.0,0.0,0.0,0.0,0.0,0.0,0.0,0.0,0.0,1.0,0.0,0.0,0.0,0.0,0.0,0.0,0.0,0.0,0.0,0.0,0.0,0.0,1.0,0.0,0.0,0.0,0.0,0.0,0.0,0.0,0.0,0.0,0.0,0.0,0.0,1.0,0,0,0,0,0,0,0,0,0,0,0,0,0,0,0,0,0,0,0,0,0,0,0,0,0,0,0,0,0,0,0,0,0,0,0,0
