Timestamp,Vicon_Frame_Num,IsDuplicate,Vicon_Root_X,Vicon_Root_Y,Vicon_Root_Z,Vicon_L_Femur_X,Vicon_L_Femur_Y,Vicon_L_Femur_Z,Vicon_L_Tibia_X,Vicon_L_Tibia_Y,Vicon_L_Tibia_Z,Vicon_L_Foot_X,Vicon_L_Foot_Y,Vicon_L_Foot_Z,Vicon_L_Toe_X,Vicon_L_Toe_Y,Vicon_L_Toe_Z,Vicon_R_Femur_X,Vicon_R_Femur_Y,Vicon_R_Femur_Z,Vicon_R_Tibia_X,Vicon_R_Tibia_Y,Vicon_R_Tibia_Z,Vicon_R_Foot_X,Vicon_R_Foot_Y,Vicon_R_Foot_Z,Vicon_R_Toe_X,Vicon_R_Toe_Y,Vicon_R_Toe_Z,Vicon_LASI_X,Vicon_LASI_Y,Vicon_LASI_Z,Vicon_RASI_X,Vicon_RASI_Y,Vicon_RASI_Z,Vicon_LPSI_X,Vicon_LPSI_Y,Vicon_LPSI_Z,Vicon_RPSI_X,Vicon_RPSI_Y,Vicon_RPSI_Z,Vicon_LTHI_X,Vicon_LTHI_Y,Vicon_LTHI_Z,Vicon_LKNE_X,Vicon_LKNE_Y,Vicon_LKNE_Z,Vicon_LTIB_X,Vicon_LTIB_Y,Vicon_LTIB_Z,Vicon_LANK_X,Vicon_LANK_Y,Vicon_LANK_Z,Vicon_LHEE_X,Vicon_LHEE_Y,Vicon_LHEE_Z,Vicon_LTOE_X,Vicon_LTOE_Y,Vicon_LTOE_Z,Vicon_RTHI_X,Vicon_RTHI_Y,Vicon_RTHI_Z,Vicon_RKNE_X,Vicon_RKNE_Y,Vicon_RKNE_Z,Vicon_RTIB_X,Vicon_RTIB_Y,Vicon_RTIB_Z,Vicon_RANK_X,Vicon_RANK_Y,Vicon_RANK_Z,Vicon_RHEE_X,Vicon_RHEE_Y,Vicon_RHEE_Z,Vicon_RTOE_X,Vicon_RTOE_Y,Vicon_RTOE_Z,IMU_Trunk_Acc_X,IMU_Trunk_Acc_Y,IMU_Trunk_Acc_Z,IMU_Trunk_Gyro_X,IMU_Trunk_Gyro_Y,IMU_Trunk_Gyro_Z,IMU_Trunk_Roll,IMU_Trunk_Pitch,IMU_Trunk_Yaw,IMU_Trunk_Quat_x,IMU_Trunk_Quat_y,IMU_Trunk_Quat_z,IMU_Trunk_Quat_w,IMU_L_Femur_Acc_X,IMU_L_Femur_Acc_Y,IMU_L_Femur_Acc_Z,IMU_L_Femur_Gyro_X,IMU_L_Femur_Gyro_Y,IMU_L_Femur_Gyro_Z,IMU_L_Femur_Roll,IMU_L_Femur_Pitch,IMU_L_Femur_Yaw,IMU_L_Femur_Quat_x,IMU_L_Femur_Quat_y,IMU_L_Femur_Quat_z,IMU_L_Femur_Quat_w,IMU_L_Tibia_Acc_X,IMU_L_Tibia_Acc_Y,IMU_L_Tibia_Acc_Z,IMU_L_Tibia_Gyro_X,IMU_L_Tibia_Gyro_Y,IMU_L_Tibia_Gyro_Z,IMU_L_Tibia_Roll,IMU_L_Tibia_Pitch,IMU_L_Tibia_Yaw,IMU_L_Tibia_Quat_x,IMU_L_Tibia_Quat_y,IMU_L_Tibia_Quat_z,IMU_L_Tibia_Quat_w,IMU_L_Foot_Acc_X,IMU_L_Foot_Acc_Y,IMU_L_Foot_Acc_Z,IMU_L_Foot_Gyro_X,IMU_L_Foot_Gyro_Y,IMU_L_Foot_Gyro_Z,IMU_L_Foot_Roll,IMU_L_Foot_Pitch,IMU_L_Foot_Yaw,IMU_L_Foot_Quat_x,IMU_L_Foot_Quat_y,IMU_L_Foot_Quat_z,IMU_L_Foot_Quat_w,IMU_R_Femur_Acc_X,IMU_R_Femur_Acc_Y,IMU_R_Femur_Acc_Z,IMU_R_Femur_Gyro_X,IMU_R_Femur_Gyro_Y,IMU_R_Femur_Gyro_Z,IMU_R_Femur_Roll,IMU_R_Femur_Pitch,IMU_R_Femur_Yaw,IMU_R_Femur_Quat_x,IMU_R_Femur_Quat_y,IMU_R_Femur_Quat_z,IMU_R_Femur_Quat_w,IMU_R_Tibia_Acc_X,IMU_R_Tibia_Acc_Y,IMU_R_Tibia_Acc_Z,IMU_R_Tibia_Gyro_X,IMU_R_Tibia_Gyro_Y,IMU_R_Tibia_Gyro_Z,IMU_R_Tibia_Roll,IMU_R_Tibia_Pitch,IMU_R_Tibia_Yaw,IMU_R_Tibia_Quat_x,IMU_R_Tibia_Quat_y,IMU_R_Tibia_Quat_z,IMU_R_Tibia_Quat_w,IMU_R_Foot_Acc_X,IMU_R_Foot_Acc_Y,IMU_R_Foot_Acc_Z,IMU_R_Foot_Gyro_X,IMU_R_Foot_Gyro_Y,IMU_R_Foot_Gyro_Z,IMU_R_Foot_Roll,IMU_R_Foot_Pitch,IMU_R_Foot_Yaw,IMU_R_Foot_Quat_x,IMU_R_Foot_Quat_y,IMU_R_Foot_Quat_z,IMU_R_Foot_Quat_w,Planter_Left_0,Planter_Left_1,Planter_Left_2,Planter_Left_3,Planter_Left_4,Planter_Left_5,Planter_Left_6,Planter_Left_7,Planter_Left_8,Planter_Left_9,Planter_Left_10,Planter_Left_11,Planter_Left_12,Planter_Left_13,Planter_Left_14,Planter_Left_15,Planter_Left_16,Planter_Left_17,Planter_Right_0,Planter_Right_1,Planter_Right_2,Planter_Right_3,Planter_Right_4,Planter_Right_5,Planter_Right_6,Planter_Right_7,Planter_Right_8,Planter_Right_9,Planter_Right_10,Planter_Right_11,Planter_Right_12,Planter_Right_13,Planter_Right_14,Planter_Right_15,Planter_Right_16,Planter_Right_17
1777280469.0746102,10822,0,0.0,0.0,0.0,0.0,0.0,0.0,0.0,0.0,0.0,0.0,0.0,0.0,0.0,0.0,0.0,0.0,0.0,0.0,0.0,0.0,0.0,0.0,0.0,0.0,0.0,0.0,0.0,737.8087158203125,572.3461303710938,1123.0030517578125,986.361083984375,618.3235473632812,1122.7496337890625,796.6581420898438,397.1434020996094,1152.7767333984375,957.1674194335938,408.86895751953125,1155.8214111328125,676.2199096679688,530.5473022460938,874.4898681640625,690.8695678710938,627.5224609375,632.9696044921875,693.5106811523438,514.4164428710938,510.15521240234375,725.0314331054688,420.60400390625,336.36798095703125,820.857666015625,322.53076171875,294.9867858886719,690.228271484375,541.2737426757812,204.1424560546875,1045.3709716796875,556.7747802734375,800.3801879882812,992.1611938476562,503.00482177734375,568.7897338867188,1001.2130737304688,480.6315612792969,433.0570373535156,948.087890625,442.9989318847656,226.26553344726562,881.6016845703125,364.5401306152344,168.65438842773438,938.550048828125,625.4979858398438,175.76705932617188,1.1245,-1.5791,9.7426,0.9766,-0.1221,-0.6104,-9.3878,-9.7284,137.016,-0.1085,0.0449,0.9266,0.3574,5.345,-8.1778,0.0957,0.3052,-0.4883,-0.1831,-89.2145,-33.8379,-10.2612,-0.6506,-0.2664,0.1426,0.6967,7.2687,-4.522,4.8761,-0.3052,-0.2441,0.4883,-42.2314,-48.2794,149.8041,-0.454,0.218,0.8603,0.0795,0.4211,0.5646,-9.4507,-0.5493,-0.3662,0.3662,174.4189,1.2634,5.3009,0.9977,-0.0456,0.0133,0.0481,-1.7609,5.3163,8.1348,0.5493,-0.5493,-0.6104,30.6189,9.2175,149.4745,0.144,-0.2335,0.9331,0.2326,5.2637,-4.9191,6.7566,0.1831,-0.2441,0.3662,-35.9033,-34.3652,-2.4719,-0.2883,-0.2873,0.0714,0.9106,-9.7713,0.0144,-0.268,0.4883,-0.061,-0.1221,177.2974,88.374,113.3569,0.4075,-0.59,0.3969,-0.573,0,0,0,0,0,0,0,0,0,0,0,0,0,0,0,0,0,0,0,0,0,0,0,0,0,0,0,0,0,0,0,0,0,0,0,0
1777280469.091792,10824,0,0.0,0.0,0.0,0.0,0.0,0.0,0.0,0.0,0.0,0.0,0.0,0.0,0.0,0.0,0.0,0.0,0.0,0.0,0.0,0.0,0.0,0.0,0.0,0.0,0.0,0.0,0.0,738.1527709960938,568.997314453125,1123.7476806640625,986.5992431640625,616.1159057617188,1122.156494140625,797.8965454101562,394.0755615234375,1153.9576416015625,958.2350463867188,406.7963562011719,1156.386962890625,676.9641723632812,526.5340576171875,876.60693359375,690.4901733398438,630.821044921875,636.0419311523438,691.9706420898438,527.2103881835938,502.9396667480469,722.9258422851562,448.323974609375,321.6128234863281,818.096435546875,354.57354736328125,270.75457763671875,687.6142578125,580.77099609375,200.2941131591797,1044.64990234375,551.6268310546875,799.6419067382812,992.0064697265625,493.4050598144531,568.8570556640625,1001.0693359375,468.97296142578125,433.4209899902344,948.1218872070312,428.2915344238281,227.11080932617188,882.0068359375,349.3284606933594,169.15968322753906,938.8997192382812,610.2365112304688,175.69129943847656,1.1245,-1.5791,9.7426,0.9766,-0.1221,-0.6104,-9.3878,-9.7284,137.016,-0.1085,0.0449,0.9266,0.3574,5.3546,-8.1826,0.0909,0.3052,-0.4883,-0.1221,-89.2145,-33.8379,-10.2612,-0.6506,-0.2664,0.1426,0.6967,7.2734,-4.5268,4.8761,-0.2441,-0.3052,0.4883,-42.2369,-48.2794,149.8041,-0.454,0.2181,0.8603,0.0795,0.4211,0.5694,-9.4555,-0.6104,-0.3662,0.3052,174.4299,1.2415,5.3064,0.9977,-0.0457,0.0131,0.048,-1.7562,5.3115,8.1396,0.5493,-0.5493,-0.5493,30.6299,9.223,149.48,0.1441,-0.2336,0.9331,0.2325,5.2637,-4.9191,6.7566,0.1831,-0.2441,0.3662,-35.9033,-34.3652,-2.4719,-0.2883,-0.2873,0.0714,0.9106,-9.7713,0.0144,-0.268,0.4883,-0.061,-0.1221,177.2974,88.374,113.3569,0.4075,-0.59,0.3969,-0.573,0,0,0,0,0,0,0,0,0,0,0,0,0,0,0,0,0,0,0,0,0,0,0,0,0,0,0,0,0,0,0,0,0,0,0,0
1777280469.1064997,10824,1,0.0,0.0,0.0,0.0,0.0,0.0,0.0,0.0,0.0,0.0,0.0,0.0,0.0,0.0,0.0,0.0,0.0,0.0,0.0,0.0,0.0,0.0,0.0,0.0,0.0,0.0,0.0,738.1527709960938,568.997314453125,1123.7476806640625,986.5992431640625,616.1159057617188,1122.156494140625,797.8965454101562,394.0755615234375,1153.9576416015625,958.2350463867188,406.7963562011719,1156.386962890625,676.9641723632812,526.5340576171875,876.60693359375,690.4901733398438,630.821044921875,636.0419311523438,691.9706420898438,527.2103881835938,502.9396667480469,722.9258422851562,448.323974609375,321.6128234863281,818.096435546875,354.57354736328125,270.75457763671875,687.6142578125,580.77099609375,200.2941131591797,1044.64990234375,551.6268310546875,799.6419067382812,992.0064697265625,493.4050598144531,568.8570556640625,1001.0693359375,468.97296142578125,433.4209899902344,948.1218872070312,428.2915344238281,227.11080932617188,882.0068359375,349.3284606933594,169.15968322753906,938.8997192382812,610.2365112304688,175.69129943847656,1.1245,-1.5791,9.7426,0.9766,-0.1221,-0.6104,-9.3878,-9.7284,137.016,-0.1085,0.0449,0.9266,0.3574,5.3546,-8.1826,0.0909,0.3052,-0.4883,-0.1221,-89.2145,-33.8379,-10.2612,-0.6506,-0.2664,0.1426,0.6967,7.2734,-4.5268,4.8761,-0.2441,-0.3052,0.4883,-42.2369,-48.2794,149.8041,-0.454,0.2181,0.8603,0.0795,0.4211,0.5694,-9.4555,-0.6104,-0.3662,0.3052,174.4299,1.2415,5.3064,0.9977,-0.0457,0.0131,0.048,-1.7562,5.3115,8.1396,0.5493,-0.5493,-0.5493,30.6299,9.223,149.48,0.1441,-0.2336,0.9331,0.2325,5.2637,-4.9191,6.7566,0.1831,-0.2441,0.3662,-35.9033,-34.3652,-2.4719,-0.2883,-0.2873,0.0714,0.9106,-9.7713,0.0144,-0.268,0.4883,-0.061,-0.1221,177.2974,88.374,113.3569,0.4075,-0.59,0.3969,-0.573,0,0,0,0,0,0,0,0,0,0,0,0,0,0,0,0,0,0,0,0,0,0,0,0,0,0,0,0,0,0,0,0,0,0,0,0
1777280469.122143,10827,0,0.0,0.0,0.0,0.0,0.0,0.0,0.0,0.0,0.0,0.0,0.0,0.0,0.0,0.0,0.0,0.0,0.0,0.0,0.0,0.0,0.0,0.0,0.0,0.0,0.0,0.0,0.0,738.180419921875,564.5155639648438,1124.1866455078125,986.524169921875,612.961181640625,1120.752685546875,798.9260864257812,390.0060729980469,1155.2132568359375,959.0259399414062,403.9404602050781,1156.8868408203125,677.7205810546875,519.0892333984375,878.1912231445312,690.5438842773438,631.615478515625,638.17529296875,688.9382934570312,546.138671875,489.4676513671875,717.9448852539062,494.2550048828125,298.272216796875,811.9901733398438,408.1891784667969,233.56373596191406,683.2617797851562,643.3921508789062,195.8479766845703,1043.383056640625,543.3179321289062,798.353271484375,991.6190795898438,478.7592468261719,568.8804321289062,1000.6915893554688,451.2406311035156,433.9159240722656,948.0864868164062,406.1972961425781,228.3423614501953,882.4891357421875,326.5184326171875,169.7704315185547,939.5039672851562,587.324462890625,175.66009521484375,1.1245,-1.5791,9.7474,0.9766,-0.061,-0.6104,-9.3878,-9.679,137.016,-0.1081,0.0451,0.9266,0.3574,5.3498,-8.1826,0.0957,0.3662,-0.4883,-0.1221,-89.2145,-33.8324,-10.2612,-0.6506,-0.2664,0.1426,0.6967,7.2687,-4.5268,4.8761,-0.2441,-0.2441,0.4883,-42.2424,-48.2684,149.8096,-0.4539,0.2182,0.8603,0.0794,0.4211,0.5694,-9.4555,-0.6104,-0.3052,0.3052,174.4519,1.1975,5.3119,0.9977,-0.0458,0.0127,0.0479,-1.7609,5.3163,8.1348,0.5493,-0.5493,-0.5493,30.6573,9.234,149.48,0.1442,-0.2338,0.933,0.2325,5.2685,-4.9239,6.7614,0.2441,-0.1831,0.3662,-35.9033,-34.3542,-2.4719,-0.2883,-0.2872,0.0714,0.9106,-9.7713,0.0191,-0.268,0.4883,0.061,-0.061,177.2919,88.374,113.3514,0.4076,-0.5899,0.397,-0.5729,0,0,0,0,0,0,0,0,0,0,0,0,0,0,0,0,0,0,0,0,0,0,0,0,0,0,0,0,0,0,0,0,0,0,0,0
1777280469.136816,10827,1,0.0,0.0,0.0,0.0,0.0,0.0,0.0,0.0,0.0,0.0,0.0,0.0,0.0,0.0,0.0,0.0,0.0,0.0,0.0,0.0,0.0,0.0,0.0,0.0,0.0,0.0,0.0,738.180419921875,564.5155639648438,1124.1866455078125,986.524169921875,612.961181640625,1120.752685546875,798.9260864257812,390.0060729980469,1155.2132568359375,959.0259399414062,403.9404602050781,1156.8868408203125,677.7205810546875,519.0892333984375,878.1912231445312,690.5438842773438,631.615478515625,638.17529296875,688.9382934570312,546.138671875,489.4676513671875,717.9448852539062,494.2550048828125,298.272216796875,811.9901733398438,408.1891784667969,233.56373596191406,683.2617797851562,643.3921508789062,195.8479766845703,1043.383056640625,543.3179321289062,798.353271484375,991.6190795898438,478.7592468261719,568.8804321289062,1000.6915893554688,451.2406311035156,433.9159240722656,948.0864868164062,406.1972961425781,228.3423614501953,882.4891357421875,326.5184326171875,169.7704315185547,939.5039672851562,587.324462890625,175.66009521484375,1.1245,-1.5791,9.7474,0.9766,-0.061,-0.6104,-9.3878,-9.679,137.016,-0.1081,0.0451,0.9266,0.3574,5.3498,-8.1826,0.0957,0.3662,-0.4883,-0.1221,-89.2145,-33.8324,-10.2612,-0.6506,-0.2664,0.1426,0.6967,7.2687,-4.5268,4.8761,-0.2441,-0.2441,0.4883,-42.2424,-48.2684,149.8096,-0.4539,0.2182,0.8603,0.0794,0.4211,0.5694,-9.4555,-0.6104,-0.3052,0.3052,174.4519,1.1975,5.3119,0.9977,-0.0458,0.0127,0.0479,-1.7609,5.3163,8.1348,0.5493,-0.5493,-0.5493,30.6573,9.234,149.48,0.1442,-0.2338,0.933,0.2325,5.2685,-4.9239,6.7614,0.2441,-0.1831,0.3662,-35.9033,-34.3542,-2.4719,-0.2883,-0.2872,0.0714,0.9106,-9.7713,0.0191,-0.268,0.4883,0.061,-0.061,177.2919,88.374,113.3514,0.4076,-0.5899,0.397,-0.5729,0,0,0,0,0,0,0,0,0,0,0,0,0,0,0,0,0,0,0,0,0,0,0,0,0,0,0,0,0,0,0,0,0,0,0,0
1777280469.1399434,10829,0,0.0,0.0,0.0,0.0,0.0,0.0,0.0,0.0,0.0,0.0,0.0,0.0,0.0,0.0,0.0,0.0,0.0,0.0,0.0,0.0,0.0,0.0,0.0,0.0,0.0,0.0,0.0,737.89794921875,562.0704956054688,1123.8802490234375,986.2222900390625,611.068359375,1119.4053955078125,799.0009155273438,387.8031005859375,1155.593994140625,958.97412109375,402.3013000488281,1156.9259033203125,677.6568603515625,513.8096313476562,878.1397705078125,690.9200439453125,629.5142211914062,637.8352661132812,686.7156982421875,558.4603271484375,479.7385559082031,713.7780151367188,527.2482299804688,283.80206298828125,806.7555541992188,446.92169189453125,210.34774780273438,680.598876953125,686.33544921875,195.73362731933594,1042.4771728515625,537.4368286132812,797.3496704101562,991.29541015625,468.8348083496094,568.8282470703125,1000.3855590820312,439.3052673339844,434.1936950683594,948.0341186523438,391.4508972167969,229.14537048339844,882.7868041992188,311.2865295410156,170.12852478027344,939.9561767578125,572.0518798828125,175.69845581054688,1.1245,-1.5743,9.7426,0.9766,-0.1221,-0.6104,-9.3878,-9.657,137.016,-0.1079,0.0451,0.9266,0.3574,5.3498,-8.1778,0.0957,0.3662,-0.4883,-0.1221,-89.22,-33.8269,-10.2612,-0.6507,-0.2664,0.1426,0.6967,7.2687,-4.5268,4.8713,-0.2441,-0.3052,0.4883,-42.2424,-48.2684,149.8096,-0.4539,0.2182,0.8603,0.0794,0.4211,0.5646,-9.4507,-0.6104,-0.3662,0.3052,174.4684,1.181,5.3174,0.9977,-0.0458,0.0125,0.0477,-1.7609,5.3115,8.1348,0.5493,-0.6104,-0.6104,30.6738,9.2395,149.4855,0.1443,-0.2339,0.933,0.2324,5.2637,-4.9239,6.7566,0.1831,-0.3052,0.4272,-35.9088,-34.3268,-2.4719,-0.2884,-0.287,0.0713,0.9107,-9.7713,0.0191,-0.2632,0.4883,0.0,-0.061,177.2809,88.374,113.3459,0.4077,-0.5899,0.3971,-0.5729,0,0,0,0,0,0,0,0,0,0,0,0,0,0,0,0,0,0,0,0,0,0,0,0,0,0,0,0,0,0,0,0,0,0,0,0
1777280469.1533432,10829,1,0.0,0.0,0.0,0.0,0.0,0.0,0.0,0.0,0.0,0.0,0.0,0.0,0.0,0.0,0.0,0.0,0.0,0.0,0.0,0.0,0.0,0.0,0.0,0.0,0.0,0.0,0.0,737.89794921875,562.0704956054688,1123.8802490234375,986.2222900390625,611.068359375,1119.4053955078125,799.0009155273438,387.8031005859375,1155.593994140625,958.97412109375,402.3013000488281,1156.9259033203125,677.6568603515625,513.8096313476562,878.1397705078125,690.9200439453125,629.5142211914062,637.8352661132812,686.7156982421875,558.4603271484375,479.7385559082031,713.7780151367188,527.2482299804688,283.80206298828125,806.7555541992188,446.92169189453125,210.34774780273438,680.598876953125,686.33544921875,195.73362731933594,1042.4771728515625,537.4368286132812,797.3496704101562,991.29541015625,468.8348083496094,568.8282470703125,1000.3855590820312,439.3052673339844,434.1936950683594,948.0341186523438,391.4508972167969,229.14537048339844,882.7868041992188,311.2865295410156,170.12852478027344,939.9561767578125,572.0518798828125,175.69845581054688,1.1245,-1.5743,9.7426,0.9766,-0.1221,-0.6104,-9.3878,-9.657,137.016,-0.1079,0.0451,0.9266,0.3574,5.3498,-8.1778,0.0957,0.3662,-0.4883,-0.1221,-89.22,-33.8269,-10.2612,-0.6507,-0.2664,0.1426,0.6967,7.2687,-4.5268,4.8713,-0.2441,-0.3052,0.4883,-42.2424,-48.2684,149.8096,-0.4539,0.2182,0.8603,0.0794,0.4211,0.5646,-9.4507,-0.6104,-0.3662,0.3052,174.4684,1.181,5.3174,0.9977,-0.0458,0.0125,0.0477,-1.7609,5.3115,8.1348,0.5493,-0.6104,-0.6104,30.6738,9.2395,149.4855,0.1443,-0.2339,0.933,0.2324,5.2637,-4.9239,6.7566,0.1831,-0.3052,0.4272,-35.9088,-34.3268,-2.4719,-0.2884,-0.287,0.0713,0.9107,-9.7713,0.0191,-0.2632,0.4883,0.0,-0.061,177.2809,88.374,113.3459,0.4077,-0.5899,0.3971,-0.5729,0,0,0,0,0,0,0,0,0,0,0,0,0,0,0,0,0,0,0,0,0,0,0,0,0,0,0,0,0,0,0,0,0,0,0,0
1777280469.1715734,10831,0,0.0,0.0,0.0,0.0,0.0,0.0,0.0,0.0,0.0,0.0,0.0,0.0,0.0,0.0,0.0,0.0,0.0,0.0,0.0,0.0,0.0,0.0,0.0,0.0,0.0,0.0,0.0,737.3839111328125,560.1920166015625,1123.01708984375,985.7327880859375,609.4331665039062,1117.7078857421875,798.55029296875,386.11749267578125,1155.5322265625,958.4379272460938,400.9464416503906,1156.6767578125,676.9832153320312,508.7054138183594,877.2037963867188,691.4877319335938,625.6756591796875,636.1558227539062,684.4946899414062,570.3203125,470.3003845214844,709.27001953125,561.1270141601562,271.52191162109375,800.6624145507812,487.1432189941406,189.7855682373047,678.8604125976562,729.128662109375,199.2068634033203,1041.5487060546875,531.3945922851562,796.225341796875,990.9358520507812,458.8313293457031,568.72216796875,1000.0714111328125,427.3330993652344,434.4358825683594,947.9862060546875,376.6961975097656,229.95448303222656,883.1115112304688,296.021484375,170.48597717285156,940.4234619140625,556.7857055664062,175.74270629882812,1.1245,-1.5839,9.7426,0.9766,-0.1221,-0.6104,-9.3823,-9.6405,137.016,-0.1078,0.0451,0.9266,0.3575,5.3546,-8.1826,0.0861,0.3662,-0.4272,-0.1221,-89.22,-33.8214,-10.2612,-0.6507,-0.2663,0.1426,0.6967,7.2734,-4.522,4.8713,-0.2441,-0.2441,0.4883,-42.2479,-48.2629,149.8151,-0.4538,0.2183,0.8603,0.0794,0.4211,0.5694,-9.4555,-0.6104,-0.3662,0.3052,174.4794,1.1591,5.3229,0.9977,-0.0459,0.0123,0.0476,-1.7562,5.3115,8.13,0.5493,-0.5493,-0.6104,30.7013,9.2505,149.491,0.1444,-0.2341,0.9329,0.2323,5.2637,-4.9191,6.7566,0.2441,-0.1831,0.4272,-35.9088,-34.3048,-2.4719,-0.2884,-0.2868,0.0713,0.9107,-9.7713,0.0239,-0.2728,0.5493,0.0,-0.061,177.2754,88.374,113.335,0.4078,-0.5898,0.3971,-0.5728,0,0,0,0,0,0,0,0,0,0,0,0,0,0,0,0,0,0,0,0,0,0,0,0,0,0,0,0,0,0,0,0,0,0,0,0
1777280469.1858127,10832,0,0.0,0.0,0.0,0.0,0.0,0.0,0.0,0.0,0.0,0.0,0.0,0.0,0.0,0.0,0.0,0.0,0.0,0.0,0.0,0.0,0.0,0.0,0.0,0.0,0.0,0.0,0.0,737.0392456054688,559.4947509765625,1122.369873046875,985.4165649414062,608.7362060546875,1116.7325439453125,798.1222534179688,385.49224853515625,1155.3206787109375,957.9856567382812,400.3933410644531,1156.4312744140625,676.4137573242188,506.3128967285156,876.4132690429688,691.81884765625,623.267822265625,634.8677368164062,683.4103393554688,575.9835205078125,465.90447998046875,706.9903564453125,577.9503784179688,266.4439697265625,797.352294921875,507.3952331542969,180.80857849121094,678.5674438476562,750.03955078125,202.42758178710938,1041.07470703125,528.3578491210938,795.6183471679688,990.7405395507812,453.8265686035156,568.6509399414062,999.913330078125,421.3543395996094,434.5492248535156,947.9667358398438,369.3199768066406,230.370849609375,883.2850341796875,288.37640380859375,170.6694793701172,940.6558837890625,549.1530151367188,175.75350952148438,1.1245,-1.5839,9.7426,0.9766,-0.1221,-0.6104,-9.3823,-9.6405,137.016,-0.1078,0.0451,0.9266,0.3575,5.3546,-8.1826,0.0861,0.3662,-0.4272,-0.1221,-89.22,-33.8214,-10.2612,-0.6507,-0.2663,0.1426,0.6967,7.2734,-4.522,4.8713,-0.2441,-0.2441,0.4883,-42.2479,-48.2629,149.8151,-0.4538,0.2183,0.8603,0.0794,0.4211,0.5694,-9.4555,-0.6104,-0.3662,0.3052,174.4794,1.1591,5.3229,0.9977,-0.0459,0.0123,0.0476,-1.7562,5.3115,8.13,0.5493,-0.5493,-0.6104,30.7013,9.2505,149.491,0.1444,-0.2341,0.9329,0.2323,5.2637,-4.9191,6.7566,0.2441,-0.1831,0.4272,-35.9088,-34.3048,-2.4719,-0.2884,-0.2868,0.0713,0.9107,-9.7713,0.0239,-0.2728,0.5493,0.0,-0.061,177.2754,88.374,113.335,0.4078,-0.5898,0.3971,-0.5728,0,0,0,0,0,0,0,0,0,0,0,0,0,0,0,0,0,0,0,0,0,0,0,0,0,0,0,0,0,0,0,0,0,0,0,0
1777280469.2001863,10833,0,0.0,0.0,0.0,0.0,0.0,0.0,0.0,0.0,0.0,0.0,0.0,0.0,0.0,0.0,0.0,0.0,0.0,0.0,0.0,0.0,0.0,0.0,0.0,0.0,0.0,0.0,0.0,736.6343994140625,558.9713745117188,1121.5816650390625,985.0502319335938,608.1322021484375,1115.6796875,797.5579223632812,385.0217590332031,1154.98486328125,957.41064453125,399.93157958984375,1156.099853515625,675.7027587890625,504.0733337402344,875.4180297851562,692.1680908203125,620.64306640625,633.3207397460938,682.3544311523438,581.4066772460938,461.81005859375,704.7576293945312,594.3900146484375,262.1342468261719,793.923583984375,527.400390625,172.85328674316406,678.770263671875,770.3224487304688,206.56497192382812,1040.58984375,525.339599609375,794.98193359375,990.5306396484375,448.8396301269531,568.5693969726562,999.7518310546875,415.39471435546875,434.66180419921875,947.9492797851562,361.9482421875,230.80198669433594,883.461181640625,280.7238464355469,170.85743713378906,940.8854370117188,541.518310546875,175.75289916992188,1.1245,-1.5839,9.7426,0.9766,-0.1221,-0.6104,-9.3823,-9.6405,137.016,-0.1078,0.0451,0.9266,0.3575,5.3546,-8.1826,0.0861,0.3662,-0.4272,-0.1221,-89.22,-33.8214,-10.2612,-0.6507,-0.2663,0.1426,0.6967,7.2734,-4.522,4.8713,-0.2441,-0.2441,0.4883,-42.2479,-48.2629,149.8151,-0.4538,0.2183,0.8603,0.0794,0.4211,0.5694,-9.4555,-0.6104,-0.3662,0.3052,174.4794,1.1591,5.3229,0.9977,-0.0459,0.0123,0.0476,-1.7562,5.3115,8.13,0.5493,-0.5493,-0.6104,30.7013,9.2505,149.491,0.1444,-0.2341,0.9329,0.2323,5.2637,-4.9191,6.7566,0.2441,-0.1831,0.4272,-35.9088,-34.3048,-2.4719,-0.2884,-0.2868,0.0713,0.9107,-9.7713,0.0239,-0.2728,0.5493,0.0,-0.061,177.2754,88.374,113.335,0.4078,-0.5898,0.3971,-0.5728,0,0,0,0,0,0,0,0,0,0,0,0,0,0,0,0,0,0,0,0,0,0,0,0,0,0,0,0,0,0,0,0,0,0,0,0
1777280469.2171915,10835,0,0.0,0.0,0.0,0.0,0.0,0.0,0.0,0.0,0.0,0.0,0.0,0.0,0.0,0.0,0.0,0.0,0.0,0.0,0.0,0.0,0.0,0.0,0.0,0.0,0.0,0.0,0.0,735.6350708007812,558.4729614257812,1119.61083984375,984.1552124023438,607.23779296875,1113.3751220703125,796.0234985351562,384.5643310546875,1153.9415283203125,955.8975219726562,399.303955078125,1155.1710205078125,673.9349975585938,500.196044921875,872.8653564453125,692.882568359375,615.10986328125,629.59423828125,680.37060546875,591.318603515625,454.6600341796875,700.662109375,625.0604858398438,255.75479125976562,786.978271484375,565.2494506835938,160.3526611328125,680.8937377929688,807.8787841796875,216.8484649658203,1039.563720703125,519.458251953125,793.6222534179688,990.044189453125,438.99383544921875,568.382080078125,999.3993530273438,403.5837707519531,434.9016418457031,947.9103393554688,347.2328796386719,231.734130859375,883.7951049804688,265.4013977050781,171.25196838378906,941.33251953125,526.2344360351562,175.71829223632812,1.1197,-1.5743,9.7474,0.9766,-0.1221,-0.6104,-9.3823,-9.6075,137.016,-0.1075,0.0453,0.9266,0.3575,5.3546,-8.1826,0.0957,0.3052,-0.4883,-0.1221,-89.22,-33.8214,-10.2612,-0.6507,-0.2663,0.1426,0.6967,7.2687,-4.522,4.8761,-0.3052,-0.3052,0.4883,-42.2534,-48.252,149.8206,-0.4538,0.2183,0.8603,0.0794,0.4163,0.5694,-9.4507,-0.6104,-0.3052,0.3052,174.5013,1.1151,5.3284,0.9977,-0.046,0.0119,0.0475,-1.7609,5.3115,8.1396,0.5493,-0.5493,-0.6104,30.7123,9.256,149.491,0.1445,-0.2342,0.9329,0.2323,5.2685,-4.9144,6.7566,0.1831,-0.2441,0.3662,-35.9088,-34.2938,-2.4719,-0.2884,-0.2868,0.0713,0.9108,-9.7713,0.0144,-0.2728,0.4883,0.0,-0.061,177.2644,88.374,113.3295,0.4078,-0.5898,0.3972,-0.5728,0,0,0,0,0,0,0,0,0,0,0,0,0,0,0,0,0,0,0,0,0,0,0,0,0,0,0,0,0,0,0,0,0,0,0,0
1777280469.2202103,10837,0,0.0,0.0,0.0,0.0,0.0,0.0,0.0,0.0,0.0,0.0,0.0,0.0,0.0,0.0,0.0,0.0,0.0,0.0,0.0,0.0,0.0,0.0,0.0,0.0,0.0,0.0,0.0,734.3624267578125,558.7295532226562,1117.1937255859375,983.017333984375,606.8121948242188,1110.8804931640625,793.9635620117188,384.7666015625,1152.4329833984375,953.9158935546875,399.0993347167969,1153.8900146484375,671.881103515625,497.3701171875,869.6924438476562,693.564697265625,609.823974609375,625.286376953125,678.6632080078125,599.6109619140625,448.8900451660156,697.4854736328125,650.9790649414062,251.85287475585938,780.52294921875,597.395263671875,152.4947052001953,685.428466796875,839.368408203125,227.79910278320312,1038.40771484375,513.9657592773438,792.1483154296875,989.416748046875,429.4668884277344,568.17626953125,998.9624633789062,392.012451171875,435.1951904296875,947.8424072265625,332.5828552246094,232.80865478515625,884.0574951171875,250.06875610351562,171.6951446533203,941.7616577148438,510.92333984375,175.6490478515625,1.1245,-1.5743,9.7426,1.0376,-0.1221,-0.6104,-9.3823,-9.5911,137.016,-0.1074,0.0453,0.9266,0.3575,5.3546,-8.1778,0.0909,0.3052,-0.4272,-0.1831,-89.22,-33.8159,-10.2612,-0.6507,-0.2663,0.1425,0.6967,7.2782,-4.5315,4.8761,-0.2441,-0.2441,0.4883,-42.2589,-48.252,149.8206,-0.4538,0.2184,0.8603,0.0794,0.4211,0.5646,-9.4603,-0.5493,-0.3662,0.3052,174.5123,1.0986,5.3339,0.9977,-0.046,0.0118,0.0474,-1.7562,5.3115,8.1348,0.5493,-0.4883,-0.6104,30.7288,9.2615,149.4965,0.1446,-0.2343,0.9329,0.2322,5.2685,-4.9144,6.7566,0.1831,-0.2441,0.3662,-35.9088,-34.2938,-2.4719,-0.2884,-0.2868,0.0713,0.9108,-9.7713,0.0144,-0.2728,0.4883,0.0,-0.061,177.2644,88.374,113.3295,0.4078,-0.5898,0.3972,-0.5728,0,0,0,0,0,0,0,0,0,0,0,0,0,0,0,0,0,0,0,0,0,0,0,0,0,0,0,0,0,0,0,0,0,0,0,0
1777280469.2331018,10837,1,0.0,0.0,0.0,0.0,0.0,0.0,0.0,0.0,0.0,0.0,0.0,0.0,0.0,0.0,0.0,0.0,0.0,0.0,0.0,0.0,0.0,0.0,0.0,0.0,0.0,0.0,0.0,734.3624267578125,558.7295532226562,1117.1937255859375,983.017333984375,606.8121948242188,1110.8804931640625,793.9635620117188,384.7666015625,1152.4329833984375,953.9158935546875,399.0993347167969,1153.8900146484375,671.881103515625,497.3701171875,869.6924438476562,693.564697265625,609.823974609375,625.286376953125,678.6632080078125,599.6109619140625,448.8900451660156,697.4854736328125,650.9790649414062,251.85287475585938,780.52294921875,597.395263671875,152.4947052001953,685.428466796875,839.368408203125,227.79910278320312,1038.40771484375,513.9657592773438,792.1483154296875,989.416748046875,429.4668884277344,568.17626953125,998.9624633789062,392.012451171875,435.1951904296875,947.8424072265625,332.5828552246094,232.80865478515625,884.0574951171875,250.06875610351562,171.6951446533203,941.7616577148438,510.92333984375,175.6490478515625,1.1245,-1.5743,9.7426,1.0376,-0.1221,-0.6104,-9.3823,-9.5911,137.016,-0.1074,0.0453,0.9266,0.3575,5.3546,-8.1778,0.0909,0.3052,-0.4272,-0.1831,-89.22,-33.8159,-10.2612,-0.6507,-0.2663,0.1425,0.6967,7.2782,-4.5315,4.8761,-0.2441,-0.2441,0.4883,-42.2589,-48.252,149.8206,-0.4538,0.2184,0.8603,0.0794,0.4211,0.5646,-9.4603,-0.5493,-0.3662,0.3052,174.5123,1.0986,5.3339,0.9977,-0.046,0.0118,0.0474,-1.7562,5.3115,8.1348,0.5493,-0.4883,-0.6104,30.7288,9.2615,149.4965,0.1446,-0.2343,0.9329,0.2322,5.2685,-4.9144,6.7566,0.1831,-0.2441,0.3662,-35.9088,-34.2938,-2.4719,-0.2884,-0.2868,0.0713,0.9108,-9.7713,0.0144,-0.2728,0.4883,0.0,-0.061,177.2644,88.374,113.3295,0.4078,-0.5898,0.3972,-0.5728,0,0,0,0,0,0,0,0,0,0,0,0,0,0,0,0,0,0,0,0,0,0,0,0,0,0,0,0,0,0,0,0,0,0,0,0
1777280469.2483284,10838,0,0.0,0.0,0.0,0.0,0.0,0.0,0.0,0.0,0.0,0.0,0.0,0.0,0.0,0.0,0.0,0.0,0.0,0.0,0.0,0.0,0.0,0.0,0.0,0.0,0.0,0.0,0.0,733.6142578125,559.1419677734375,1115.8590087890625,982.3455810546875,606.7901611328125,1109.596435546875,792.7461547851562,385.1141357421875,1151.526123046875,952.7581176757812,399.1627197265625,1153.1260986328125,670.8192749023438,496.444580078125,867.9375,693.8800659179688,607.4931030273438,623.0149536132812,677.9679565429688,603.01806640625,446.4442443847656,696.3977661132812,661.5432739257812,250.5208740234375,777.7484741210938,610.2554321289062,150.09800720214844,688.5286865234375,852.1051025390625,232.5848846435547,1037.7564697265625,511.43768310546875,791.3695068359375,989.0267333984375,424.8873596191406,568.072021484375,998.6927490234375,386.3561096191406,435.3768615722656,947.7880249023438,325.2935485839844,233.42005920410156,884.1487426757812,242.40589904785156,171.9541778564453,941.970947265625,503.260498046875,175.60292053222656,1.1245,-1.5791,9.7474,1.0376,-0.1221,-0.5493,-9.3823,-9.5746,137.016,-0.1073,0.0454,0.9266,0.3575,5.3546,-8.1778,0.0909,0.3662,-0.4883,-0.061,-89.22,-33.8104,-10.2612,-0.6507,-0.2663,0.1425,0.6967,7.2734,-4.5268,4.8761,-0.2441,-0.1831,0.4883,-42.2589,-48.252,149.8206,-0.4538,0.2184,0.8603,0.0794,0.4211,0.5694,-9.4555,-0.6104,-0.3662,0.3052,174.5233,1.0767,5.3339,0.9978,-0.046,0.0116,0.0473,-1.7562,5.3115,8.13,0.5493,-0.5493,-0.5493,30.7397,9.267,149.4965,0.1446,-0.2344,0.9329,0.2322,5.2685,-4.9144,6.7566,0.1831,-0.2441,0.3662,-35.9088,-34.2938,-2.4719,-0.2884,-0.2868,0.0713,0.9108,-9.7713,0.0144,-0.2728,0.4883,0.0,-0.061,177.2644,88.374,113.3295,0.4078,-0.5898,0.3972,-0.5728,0,0,0,0,0,0,0,0,0,0,0,0,0,0,0,0,0,0,0,0,0,0,0,0,0,0,0,0,0,0,0,0,0,0,0,0
1777280469.2512977,10840,0,0.0,0.0,0.0,0.0,0.0,0.0,0.0,0.0,0.0,0.0,0.0,0.0,0.0,0.0,0.0,0.0,0.0,0.0,0.0,0.0,0.0,0.0,0.0,0.0,0.0,0.0,0.0,731.8723754882812,560.51708984375,1113.0419921875,980.7701416015625,607.144775390625,1107.0372314453125,789.9640502929688,386.2840881347656,1149.4759521484375,950.1311645507812,399.6243591308594,1151.3878173828125,668.761474609375,495.7276916503906,864.2489624023438,694.4520874023438,603.806396484375,618.4296264648438,677.0332641601562,608.1612548828125,442.16278076171875,695.4417114257812,677.0407104492188,248.3578643798828,773.6160888671875,627.8969116210938,147.5358428955078,695.9769287109375,870.537353515625,238.88723754882812,1036.25439453125,506.9667663574219,789.7332763671875,988.0443725585938,416.249267578125,567.8731079101562,998.0113525390625,375.3918151855469,435.8441467285156,947.6226196289062,310.8112487792969,234.8391571044922,884.2489013671875,227.10926818847656,172.62168884277344,942.3885498046875,487.94085693359375,175.47891235351562,1.1245,-1.5791,9.7474,1.0376,-0.1221,-0.5493,-9.3823,-9.5746,137.016,-0.1073,0.0454,0.9266,0.3575,5.345,-8.1778,0.0957,0.3662,-0.4883,-0.1831,-89.22,-33.8049,-10.2612,-0.6507,-0.2662,0.1425,0.6967,7.2639,-4.5172,4.8713,-0.2441,-0.2441,0.4883,-42.2644,-48.2465,149.826,-0.4537,0.2185,0.8603,0.0793,0.4211,0.5646,-9.4555,-0.6104,-0.3052,0.3662,174.5233,1.0767,5.3339,0.9978,-0.046,0.0116,0.0473,-1.7609,5.3115,8.1348,0.6104,-0.5493,-0.5493,30.7507,9.2725,149.4965,0.1447,-0.2345,0.9328,0.2321,5.2685,-4.9287,6.7519,0.2441,-0.1831,0.4272,-35.9088,-34.2719,-2.4719,-0.2885,-0.2866,0.0712,0.9108,-9.7713,0.0144,-0.2728,0.4883,0.0,-0.061,177.2644,88.374,113.3295,0.4078,-0.5898,0.3972,-0.5728,0,0,0,0,0,0,0,0,0,0,0,0,0,0,0,0,0,0,0,0,0,0,0,0,0,0,0,0,0,0,0,0,0,0,0,0
1777280469.2637963,10840,1,0.0,0.0,0.0,0.0,0.0,0.0,0.0,0.0,0.0,0.0,0.0,0.0,0.0,0.0,0.0,0.0,0.0,0.0,0.0,0.0,0.0,0.0,0.0,0.0,0.0,0.0,0.0,731.8723754882812,560.51708984375,1113.0419921875,980.7701416015625,607.144775390625,1107.0372314453125,789.9640502929688,386.2840881347656,1149.4759521484375,950.1311645507812,399.6243591308594,1151.3878173828125,668.761474609375,495.7276916503906,864.2489624023438,694.4520874023438,603.806396484375,618.4296264648438,677.0332641601562,608.1612548828125,442.16278076171875,695.4417114257812,677.0407104492188,248.3578643798828,773.6160888671875,627.8969116210938,147.5358428955078,695.9769287109375,870.537353515625,238.88723754882812,1036.25439453125,506.9667663574219,789.7332763671875,988.0443725585938,416.249267578125,567.8731079101562,998.0113525390625,375.3918151855469,435.8441467285156,947.6226196289062,310.8112487792969,234.8391571044922,884.2489013671875,227.10926818847656,172.62168884277344,942.3885498046875,487.94085693359375,175.47891235351562,1.1245,-1.5791,9.7474,1.0376,-0.1221,-0.5493,-9.3823,-9.5746,137.016,-0.1073,0.0454,0.9266,0.3575,5.345,-8.1778,0.0957,0.3662,-0.4883,-0.1831,-89.22,-33.8049,-10.2612,-0.6507,-0.2662,0.1425,0.6967,7.2639,-4.5172,4.8713,-0.2441,-0.2441,0.4883,-42.2644,-48.2465,149.826,-0.4537,0.2185,0.8603,0.0793,0.4211,0.5646,-9.4555,-0.6104,-0.3052,0.3662,174.5233,1.0767,5.3339,0.9978,-0.046,0.0116,0.0473,-1.7609,5.3115,8.1348,0.6104,-0.5493,-0.5493,30.7507,9.2725,149.4965,0.1447,-0.2345,0.9328,0.2321,5.2685,-4.9287,6.7519,0.2441,-0.1831,0.4272,-35.9088,-34.2719,-2.4719,-0.2885,-0.2866,0.0712,0.9108,-9.7713,0.0144,-0.2728,0.4883,0.0,-0.061,177.2644,88.374,113.3295,0.4078,-0.5898,0.3972,-0.5728,0,0,0,0,0,0,0,0,0,0,0,0,0,0,0,0,0,0,0,0,0,0,0,0,0,0,0,0,0,0,0,0,0,0,0,0
1777280469.2795339,10841,0,0.0,0.0,0.0,0.0,0.0,0.0,0.0,0.0,0.0,0.0,0.0,0.0,0.0,0.0,0.0,0.0,0.0,0.0,0.0,0.0,0.0,0.0,0.0,0.0,0.0,0.0,0.0,730.8699340820312,561.4658203125,1111.6077880859375,979.8555297851562,607.5221557617188,1105.798095703125,788.4125366210938,387.0939025878906,1148.3680419921875,948.6727294921875,400.0195007324219,1150.43505859375,667.8084716796875,495.97869873046875,862.38525390625,694.7120971679688,602.5462036132812,616.1869506835938,676.850341796875,609.864013671875,440.2146911621094,695.5972900390625,681.8421630859375,247.26385498046875,772.382568359375,632.3623657226562,147.03372192382812,700.0787353515625,876.088623046875,239.8147735595703,1035.383544921875,505.0830078125,788.8807373046875,987.4342651367188,412.262939453125,567.7833251953125,997.5862426757812,370.12579345703125,436.1456604003906,947.5083618164062,303.6307067871094,235.66986083984375,884.2674560546875,219.48825073242188,173.07571411132812,942.6023559570312,480.294921875,175.39427185058594,1.1245,-1.5743,9.7378,1.0376,-0.1221,-0.6104,-9.3768,-9.5581,137.016,-0.1071,0.0454,0.9266,0.3575,5.3498,-8.1826,0.0957,0.2441,-0.4272,-0.1831,-89.2255,-33.8049,-10.2612,-0.6508,-0.2662,0.1425,0.6966,7.2639,-4.5172,4.8713,-0.2441,-0.2441,0.4883,-42.2644,-48.2465,149.826,-0.4537,0.2185,0.8603,0.0793,0.4211,0.5646,-9.4555,-0.6104,-0.3052,0.3662,174.5233,1.0767,5.3339,0.9978,-0.046,0.0116,0.0473,-1.7609,5.3115,8.1348,0.6104,-0.5493,-0.5493,30.7507,9.2725,149.4965,0.1447,-0.2345,0.9328,0.2321,5.2685,-4.9287,6.7519,0.2441,-0.1831,0.4272,-35.9088,-34.2719,-2.4719,-0.2885,-0.2866,0.0712,0.9108,-9.7713,0.0144,-0.2728,0.4883,0.0,-0.061,177.2644,88.374,113.3295,0.4078,-0.5898,0.3972,-0.5728,0,0,0,0,0,0,0,0,0,0,0,0,0,0,0,0,0,0,6144,0,0,0,0,0,0,0,0,0,0,0,0,0,0,0,0,0
1777280469.2826555,10843,0,0.0,0.0,0.0,0.0,0.0,0.0,0.0,0.0,0.0,0.0,0.0,0.0,0.0,0.0,0.0,0.0,0.0,0.0,0.0,0.0,0.0,0.0,0.0,0.0,0.0,0.0,0.0,728.5825805664062,563.8330078125,1108.818115234375,977.746826171875,608.660888671875,1103.49658203125,785.0259399414062,389.1180114746094,1146.090087890625,945.4946899414062,401.1171875,1148.432861328125,666.1183471679688,497.7227783203125,858.7966918945312,695.194580078125,601.3002319335938,611.9637451171875,677.148681640625,611.599365234375,436.5013732910156,697.0324096679688,685.830078125,244.6374969482422,771.5304565429688,632.9553833007812,146.99624633789062,708.30908203125,880.3065185546875,236.58766174316406,1033.3609619140625,502.16229248046875,787.1304321289062,985.947021484375,405.17364501953125,567.636962890625,996.5479125976562,360.15679931640625,436.9339904785156,947.2233276367188,289.4390869140625,237.64926147460938,884.2941284179688,204.34373474121094,174.3848876953125,943.05126953125,465.05572509765625,175.16342163085938,1.1245,-1.5743,9.7378,1.0376,-0.1221,-0.6104,-9.3768,-9.5581,137.016,-0.1071,0.0454,0.9266,0.3575,5.3498,-8.1826,0.0957,0.2441,-0.4272,-0.1831,-89.2255,-33.8049,-10.2612,-0.6508,-0.2662,0.1425,0.6966,7.2687,-4.522,4.8761,-0.2441,-0.2441,0.4883,-42.2644,-48.241,149.826,-0.4537,0.2185,0.8603,0.0793,0.4259,0.5694,-9.4507,-0.6104,-0.3052,0.3052,174.5398,1.0547,5.3394,0.9978,-0.0461,0.0114,0.0471,-1.7562,5.3115,8.1396,0.4883,-0.5493,-0.6104,30.7672,9.278,149.502,0.1448,-0.2346,0.9328,0.2321,5.2685,-4.9191,6.7519,0.1831,-0.2441,0.3662,-35.9143,-34.2499,-2.4719,-0.2885,-0.2864,0.0712,0.9109,-9.7665,0.0191,-0.2728,0.4883,0.0,-0.1221,177.2534,88.3795,113.313,0.408,-0.5897,0.3974,-0.5727,0,0,0,0,0,0,0,0,0,0,0,0,0,0,0,0,0,0,6144,0,0,0,0,0,0,0,0,0,0,0,0,0,0,0,0,0
1777280469.2964015,10844,0,0.0,0.0,0.0,0.0,0.0,0.0,0.0,0.0,0.0,0.0,0.0,0.0,0.0,0.0,0.0,0.0,0.0,0.0,0.0,0.0,0.0,0.0,0.0,0.0,0.0,0.0,0.0,727.2921752929688,565.2236938476562,1107.5164794921875,976.5440673828125,609.4072265625,1102.473388671875,783.2066040039062,390.3089904785156,1144.9656982421875,943.7870483398438,401.8050842285156,1147.4168701171875,665.38671875,499.1848449707031,857.1400146484375,695.4196166992188,601.3057861328125,610.0426025390625,677.628662109375,611.7265625,434.7093811035156,698.1771850585938,685.36083984375,243.06797790527344,771.7420043945312,629.7067260742188,147.3358612060547,712.1470336914062,879.44482421875,232.61224365234375,1032.1998291015625,501.17962646484375,786.2484741210938,985.068115234375,402.1761779785156,567.5865478515625,995.9359130859375,355.52191162109375,437.4466552734375,947.0639038085938,282.4601135253906,238.83958435058594,884.3333129882812,196.84117126464844,175.32415771484375,943.2877197265625,457.4690246582031,175.0151824951172,1.1245,-1.5791,9.7378,0.9766,-0.1221,-0.6104,-9.3768,-9.5416,137.016,-0.107,0.0454,0.9266,0.3576,5.3546,-8.1826,0.0909,0.3052,-0.4272,-0.1221,-89.2255,-33.7994,-10.2612,-0.6508,-0.2662,0.1424,0.6967,7.2734,-4.5315,4.8761,-0.2441,-0.2441,0.4883,-42.2699,-48.241,149.8315,-0.4537,0.2186,0.8603,0.0793,0.4259,0.5694,-9.4507,-0.6104,-0.3052,0.3052,174.5398,1.0547,5.3394,0.9978,-0.0461,0.0114,0.0471,-1.7562,5.3115,8.1396,0.4883,-0.5493,-0.6104,30.7672,9.278,149.502,0.1448,-0.2346,0.9328,0.2321,5.2685,-4.9191,6.7519,0.1831,-0.2441,0.3662,-35.9143,-34.2499,-2.4719,-0.2885,-0.2864,0.0712,0.9109,-9.7665,0.0191,-0.2728,0.4883,0.0,-0.1221,177.2534,88.3795,113.313,0.408,-0.5897,0.3974,-0.5727,0,0,0,0,0,0,0,0,0,0,0,0,0,0,0,0,0,0,6144,0,0,0,0,0,0,0,0,0,0,0,0,0,0,0,0,0
1777280469.2990942,10845,0,0.0,0.0,0.0,0.0,0.0,0.0,0.0,0.0,0.0,0.0,0.0,0.0,0.0,0.0,0.0,0.0,0.0,0.0,0.0,0.0,0.0,0.0,0.0,0.0,0.0,0.0,0.0,725.9021606445312,566.73046875,1106.3126220703125,975.2383422851562,610.2564086914062,1101.5609130859375,781.3138427734375,391.60101318359375,1143.8824462890625,942.0081176757812,402.5723571777344,1146.415283203125,664.722900390625,500.9960632324219,855.6165771484375,695.6309814453125,601.6987915039062,608.28515625,678.2962646484375,611.4583129882812,432.97698974609375,699.486083984375,683.5748901367188,241.37142944335938,772.2123413085938,624.705078125,147.87075805664062,715.63671875,877.021240234375,227.42279052734375,1030.9373779296875,500.54913330078125,785.3770141601562,984.1052856445312,399.62518310546875,567.5560913085938,995.2694702148438,351.1775207519531,438.0596618652344,946.9065551757812,275.5916748046875,240.1997833251953,884.4133911132812,189.40103149414062,176.51947021484375,943.5304565429688,449.9064025878906,174.8487091064453,1.1245,-1.5791,9.7378,0.9766,-0.1221,-0.6104,-9.3768,-9.5416,137.016,-0.107,0.0454,0.9266,0.3576,5.3546,-8.1826,0.0909,0.3052,-0.4272,-0.1221,-89.2255,-33.7994,-10.2612,-0.6508,-0.2662,0.1424,0.6967,7.2734,-4.5315,4.8761,-0.2441,-0.2441,0.4883,-42.2699,-48.241,149.8315,-0.4537,0.2186,0.8603,0.0793,0.4211,0.5694,-9.4555,-0.5493,-0.3662,0.3662,174.5508,1.0327,5.3448,0.9978,-0.0461,0.0112,0.0471,-1.7609,5.3163,8.1443,0.6104,-0.4883,-0.6104,30.7672,9.278,149.502,0.1448,-0.2346,0.9328,0.2321,5.2685,-4.9191,6.7519,0.1831,-0.2441,0.3662,-35.9143,-34.2499,-2.4719,-0.2885,-0.2864,0.0712,0.9109,-9.7665,0.0191,-0.2728,0.4883,0.0,-0.1221,177.2534,88.3795,113.313,0.408,-0.5897,0.3974,-0.5727,0,0,0,0,0,0,0,0,0,0,0,0,0,0,0,0,0,0,6144,0,0,0,0,0,0,0,0,0,0,0,0,0,0,0,0,0
1777280469.3123643,10846,0,0.0,0.0,0.0,0.0,0.0,0.0,0.0,0.0,0.0,0.0,0.0,0.0,0.0,0.0,0.0,0.0,0.0,0.0,0.0,0.0,0.0,0.0,0.0,0.0,0.0,0.0,0.0,724.4130859375,568.3345336914062,1105.231689453125,973.8284912109375,611.193115234375,1100.7774658203125,779.35546875,392.9786376953125,1142.86328125,940.1635131835938,403.4062805175781,1145.447265625,664.1136474609375,503.1068115234375,854.2534790039062,695.8220825195312,602.4396362304688,606.7162475585938,679.099853515625,610.8864135742188,431.338623046875,700.8578491210938,680.7501831054688,239.618408203125,772.8084716796875,618.4613037109375,148.57760620117188,718.6962280273438,873.3688354492188,221.4237060546875,1029.5777587890625,500.2936096191406,784.5305786132812,983.0699462890625,397.59014892578125,567.5497436523438,994.559814453125,347.17730712890625,438.7922668457031,946.7659912109375,268.8694763183594,241.76394653320312,884.5506591796875,182.0382080078125,178.02651977539062,943.776123046875,442.3683776855469,174.67140197753906,1.1293,-1.5791,9.7426,1.0376,-0.1221,-0.6104,-9.3768,-9.5197,137.016,-0.1068,0.0455,0.9266,0.3576,5.3498,-8.1778,0.0909,0.3662,-0.4272,-0.1221,-89.2255,-33.7994,-10.2612,-0.6508,-0.2662,0.1424,0.6967,7.2734,-4.5315,4.8761,-0.2441,-0.2441,0.4883,-42.2699,-48.241,149.8315,-0.4537,0.2186,0.8603,0.0793,0.4211,0.5694,-9.4555,-0.5493,-0.3662,0.3662,174.5508,1.0327,5.3448,0.9978,-0.0461,0.0112,0.0471,-1.7609,5.3163,8.1443,0.6104,-0.4883,-0.6104,30.7672,9.278,149.502,0.1448,-0.2346,0.9328,0.2321,5.2685,-4.9191,6.7519,0.1831,-0.2441,0.3662,-35.9143,-34.2499,-2.4719,-0.2885,-0.2864,0.0712,0.9109,-9.7665,0.0191,-0.2728,0.4883,0.0,-0.1221,177.2534,88.3795,113.313,0.408,-0.5897,0.3974,-0.5727,0,0,0,0,0,0,0,0,0,0,0,0,0,0,0,0,0,0,6144,0,0,0,0,0,0,0,0,0,0,0,0,0,0,0,0,0
1777280469.331348,10848,0,0.0,0.0,0.0,0.0,0.0,0.0,0.0,0.0,0.0,0.0,0.0,0.0,0.0,0.0,0.0,0.0,0.0,0.0,0.0,0.0,0.0,0.0,0.0,0.0,0.0,0.0,0.0,721.1482543945312,571.7532958984375,1103.528564453125,970.70166015625,613.2523193359375,1099.6639404296875,775.2709350585938,395.9234619140625,1141.1024169921875,936.2980346679688,405.213134765625,1143.68798828125,662.9821166992188,507.9765930175781,852.094970703125,696.1013793945312,604.7556762695312,604.2235717773438,680.8136596679688,609.2074584960938,428.5311279296875,703.4119262695312,673.0216674804688,236.27854919433594,773.947021484375,604.033935546875,150.37083435058594,723.4026489257812,863.5272827148438,208.76705932617188,1026.6055908203125,500.9842224121094,782.9837036132812,980.8543701171875,395.37017822265625,567.628173828125,993.0781860351562,340.46905517578125,440.7048645019531,946.6082153320312,256.0617980957031,245.6669158935547,885.03125,167.63490295410156,182.21563720703125,944.2586059570312,427.3702392578125,174.3270721435547,1.1245,-1.5743,9.7426,0.9766,-0.1221,-0.6104,-9.3768,-9.5032,137.016,-0.1067,0.0455,0.9266,0.3576,5.3498,-8.1778,0.0909,0.3052,-0.4883,-0.1221,-89.2255,-33.7994,-10.2612,-0.6508,-0.2662,0.1424,0.6967,7.2687,-4.5268,4.8713,-0.2441,-0.2441,0.4883,-42.2754,-48.2355,149.8315,-0.4536,0.2186,0.8603,0.0793,0.4259,0.5646,-9.4555,-0.5493,-0.3662,0.3052,174.5728,0.9943,5.3503,0.9978,-0.0462,0.0109,0.0469,-1.7609,5.3163,8.1348,0.5493,-0.6104,-0.5493,30.7947,9.2889,149.5074,0.1449,-0.2348,0.9328,0.232,5.2637,-4.9191,6.7566,0.2441,-0.2441,0.4272,-35.9143,-34.2389,-2.4719,-0.2885,-0.2863,0.0711,0.9109,-9.7761,0.0191,-0.268,0.4883,0.0,-0.061,177.2479,88.3795,113.313,0.408,-0.5896,0.3974,-0.5727,0,0,0,0,0,0,0,0,0,0,0,0,0,0,0,0,0,0,3584,0,0,0,0,0,0,0,0,0,0,0,0,0,0,0,0,0
1777280469.342304,10848,1,0.0,0.0,0.0,0.0,0.0,0.0,0.0,0.0,0.0,0.0,0.0,0.0,0.0,0.0,0.0,0.0,0.0,0.0,0.0,0.0,0.0,0.0,0.0,0.0,0.0,0.0,0.0,721.1482543945312,571.7532958984375,1103.528564453125,970.70166015625,613.2523193359375,1099.6639404296875,775.2709350585938,395.9234619140625,1141.1024169921875,936.2980346679688,405.213134765625,1143.68798828125,662.9821166992188,507.9765930175781,852.094970703125,696.1013793945312,604.7556762695312,604.2235717773438,680.8136596679688,609.2074584960938,428.5311279296875,703.4119262695312,673.0216674804688,236.27854919433594,773.947021484375,604.033935546875,150.37083435058594,723.4026489257812,863.5272827148438,208.76705932617188,1026.6055908203125,500.9842224121094,782.9837036132812,980.8543701171875,395.37017822265625,567.628173828125,993.0781860351562,340.46905517578125,440.7048645019531,946.6082153320312,256.0617980957031,245.6669158935547,885.03125,167.63490295410156,182.21563720703125,944.2586059570312,427.3702392578125,174.3270721435547,1.1245,-1.5743,9.7426,0.9766,-0.1221,-0.6104,-9.3768,-9.5032,137.016,-0.1067,0.0455,0.9266,0.3576,5.3498,-8.1778,0.0909,0.3052,-0.4883,-0.1221,-89.2255,-33.7994,-10.2612,-0.6508,-0.2662,0.1424,0.6967,7.2687,-4.5268,4.8713,-0.2441,-0.2441,0.4883,-42.2754,-48.2355,149.8315,-0.4536,0.2186,0.8603,0.0793,0.4259,0.5646,-9.4555,-0.5493,-0.3662,0.3052,174.5728,0.9943,5.3503,0.9978,-0.0462,0.0109,0.0469,-1.7609,5.3163,8.1348,0.5493,-0.6104,-0.5493,30.7947,9.2889,149.5074,0.1449,-0.2348,0.9328,0.232,5.2637,-4.9191,6.7566,0.2441,-0.2441,0.4272,-35.9143,-34.2389,-2.4719,-0.2885,-0.2863,0.0711,0.9109,-9.7761,0.0191,-0.268,0.4883,0.0,-0.061,177.2479,88.3795,113.313,0.408,-0.5896,0.3974,-0.5727,0,0,0,0,0,0,0,0,0,0,0,0,0,0,0,0,0,0,3584,0,0,0,0,0,0,0,0,0,0,0,0,0,0,0,0,0
1777280469.3634806,10850,0,0.0,0.0,0.0,0.0,0.0,0.0,0.0,0.0,0.0,0.0,0.0,0.0,0.0,0.0,0.0,0.0,0.0,0.0,0.0,0.0,0.0,0.0,0.0,0.0,0.0,0.0,0.0,717.5384521484375,575.3107299804688,1102.553466796875,967.1981811523438,615.4049072265625,1099.241943359375,771.0059204101562,399.0021057128906,1139.8299560546875,932.2277221679688,407.0880432128906,1142.278564453125,661.8143310546875,513.2321166992188,850.7813720703125,696.1585693359375,607.7554931640625,602.6589965820312,682.0866088867188,607.2965698242188,426.6489562988281,705.256103515625,663.7877807617188,233.64517211914062,774.6251220703125,588.974609375,152.31314086914062,726.3931274414062,851.6229248046875,197.7432403564453,1023.40869140625,503.3629150390625,781.7654418945312,978.6155395507812,396.1306457519531,567.864990234375,991.6624755859375,335.99029541015625,443.375,946.7498168945312,244.5507354736328,250.91029357910156,885.7566528320312,153.9366912841797,188.4341278076172,944.7074584960938,412.5105895996094,174.0570526123047,1.1293,-1.5743,9.7426,0.9766,-0.061,-0.6104,-9.3768,-9.4702,137.016,-0.1064,0.0457,0.9267,0.3576,5.3498,-8.1826,0.0861,0.3052,-0.4272,-0.1221,-89.2255,-33.7885,-10.2612,-0.6508,-0.2661,0.1424,0.6967,7.2782,-4.5315,4.8713,-0.2441,-0.1831,0.4883,-42.2809,-48.2245,149.837,-0.4536,0.2187,0.8603,0.0792,0.4163,0.5646,-9.4555,-0.6104,-0.3052,0.3052,174.5837,0.9778,5.3558,0.9978,-0.0463,0.0107,0.0468,-1.7609,5.3115,8.1396,0.5493,-0.5493,-0.6104,30.8167,9.2999,149.5074,0.145,-0.2349,0.9327,0.2319,5.2637,-4.9239,6.7519,0.1831,-0.2441,0.3052,-35.9143,-34.2114,-2.4719,-0.2886,-0.2861,0.0711,0.911,-9.7713,0.0144,-0.268,0.4883,0.0,-0.1221,177.2369,88.3795,113.302,0.4081,-0.5896,0.3975,-0.5726,0,0,0,0,0,0,0,0,0,0,0,0,0,0,0,0,0,0,3584,0,0,0,0,0,0,0,0,0,0,0,0,0,0,0,0,0
1777280469.3728821,10851,0,0.0,0.0,0.0,0.0,0.0,0.0,0.0,0.0,0.0,0.0,0.0,0.0,0.0,0.0,0.0,0.0,0.0,0.0,0.0,0.0,0.0,0.0,0.0,0.0,0.0,0.0,0.0,715.6254272460938,577.0885620117188,1102.3660888671875,965.3272705078125,616.4512329101562,1099.3114013671875,768.819580078125,400.54608154296875,1139.408935546875,930.1255493164062,408.0031433105469,1141.74072265625,661.1582641601562,515.81982421875,850.4493408203125,696.0741577148438,609.3244018554688,602.2162475585938,682.369873046875,606.33349609375,426.1231384277344,705.8313598632812,658.8727416992188,232.70709228515625,774.7644653320312,581.5477294921875,153.19149780273438,727.3890991210938,845.1845092773438,193.44517517089844,1021.7837524414062,505.1949462890625,781.3311767578125,977.5634155273438,397.8040466308594,568.0592041015625,991.043212890625,334.7906188964844,445.054443359375,946.9801025390625,239.48846435546875,254.15330505371094,886.1692504882812,147.52859497070312,192.52293395996094,944.924072265625,405.166748046875,173.95179748535156,1.1293,-1.5743,9.7426,0.9766,-0.061,-0.6104,-9.3768,-9.4702,137.016,-0.1064,0.0457,0.9267,0.3576,5.3498,-8.1826,0.0861,0.3052,-0.4272,-0.1221,-89.2255,-33.7885,-10.2612,-0.6508,-0.2661,0.1424,0.6967,7.2782,-4.5315,4.8713,-0.2441,-0.1831,0.4883,-42.2809,-48.2245,149.837,-0.4536,0.2187,0.8603,0.0792,0.4163,0.5646,-9.4555,-0.6104,-0.3052,0.3052,174.5837,0.9778,5.3558,0.9978,-0.0463,0.0107,0.0468,-1.7609,5.3115,8.1396,0.5493,-0.5493,-0.6104,30.8167,9.2999,149.5074,0.145,-0.2349,0.9327,0.2319,5.2637,-4.9239,6.7519,0.1831,-0.2441,0.3052,-35.9143,-34.2114,-2.4719,-0.2886,-0.2861,0.0711,0.911,-9.7713,0.0144,-0.268,0.4883,0.0,-0.1221,177.2369,88.3795,113.302,0.4081,-0.5896,0.3975,-0.5726,0,0,0,0,0,0,0,0,0,0,0,0,0,0,0,0,0,0,0,0,0,0,0,0,0,0,0,0,0,0,0,0,0,0,0,0
1777280469.393754,10853,0,0.0,0.0,0.0,0.0,0.0,0.0,0.0,0.0,0.0,0.0,0.0,0.0,0.0,0.0,0.0,0.0,0.0,0.0,0.0,0.0,0.0,0.0,0.0,0.0,0.0,0.0,0.0,711.6414794921875,580.5442504882812,1102.5994873046875,961.413330078125,618.347900390625,1100.0172119140625,764.36181640625,403.55474853515625,1139.0272216796875,925.8042602539062,409.6908874511719,1141.0447998046875,659.5968017578125,520.5775146484375,850.3865966796875,695.6390380859375,612.1735229492188,601.9012451171875,682.0821533203125,604.2744750976562,425.8721923828125,706.3328857421875,648.5943603515625,231.62368774414062,774.7630004882812,566.9677124023438,154.57679748535156,728.6990356445312,831.6322631835938,187.5594024658203,1018.6187744140625,510.0911865234375,780.9043579101562,975.7504272460938,403.9810791015625,568.6405639648438,990.1060791015625,334.85101318359375,449.20361328125,947.8186645507812,231.21575927734375,262.0891418457031,886.9716796875,136.17018127441406,203.23387145996094,945.4044189453125,390.79754638671875,173.72402954101562,1.1245,-1.5791,9.7378,0.9766,-0.1221,-0.6104,-9.3713,-9.4537,137.016,-0.1062,0.0457,0.9267,0.3576,5.345,-8.1778,0.0957,0.2441,-0.4883,-0.1221,-89.2255,-33.783,-10.2612,-0.6508,-0.2661,0.1423,0.6967,7.2687,-4.5268,4.8713,-0.3052,-0.2441,0.4883,-42.2864,-48.219,149.8425,-0.4535,0.2188,0.8603,0.0792,0.4211,0.5694,-9.4555,-0.6104,-0.3662,0.3052,174.6057,0.9338,5.3613,0.9978,-0.0463,0.0103,0.0466,-1.7609,5.3163,8.1348,0.5493,-0.5493,-0.6104,30.8331,9.3054,149.5129,0.1451,-0.2351,0.9327,0.2318,5.2637,-4.9191,6.7614,0.2441,-0.1831,0.3662,-35.9143,-34.1895,-2.4719,-0.2886,-0.2859,0.071,0.911,-9.7665,0.0144,-0.268,0.4883,0.0,0.0,177.2314,88.3795,113.2965,0.4082,-0.5895,0.3976,-0.5725,0,0,0,0,0,0,0,0,0,0,0,0,0,0,0,0,0,0,0,0,0,0,0,0,0,0,0,0,0,0,0,0,0,0,0,0
1777280469.408956,10854,0,0.0,0.0,0.0,0.0,0.0,0.0,0.0,0.0,0.0,0.0,0.0,0.0,0.0,0.0,0.0,0.0,0.0,0.0,0.0,0.0,0.0,0.0,0.0,0.0,0.0,0.0,0.0,709.598388671875,582.1871948242188,1103.006103515625,959.40283203125,619.1464233398438,1100.6424560546875,762.0983276367188,404.9861145019531,1139.0665283203125,923.5919799804688,410.4264221191406,1140.8951416015625,658.657470703125,522.634765625,850.616455078125,695.2799682617188,613.274169921875,601.9591674804688,681.55078125,603.05126953125,426.0777587890625,706.3260498046875,643.2174072265625,231.4327850341797,774.6884155273438,559.7568359375,155.0708465576172,729.1237182617188,824.60546875,185.8250274658203,1017.1353149414062,513.10400390625,780.940185546875,975.0443115234375,408.5222473144531,569.0480346679688,989.8279418945312,336.2288818359375,451.70025634765625,948.4290771484375,228.18592834472656,266.8392639160156,887.3147583007812,131.52626037597656,210.1179962158203,945.7124633789062,383.86456298828125,173.54005432128906,1.1245,-1.5791,9.7378,0.9766,-0.1221,-0.6104,-9.3713,-9.4537,137.016,-0.1062,0.0457,0.9267,0.3576,5.345,-8.1778,0.0957,0.2441,-0.4883,-0.1221,-89.2255,-33.783,-10.2612,-0.6508,-0.2661,0.1423,0.6967,7.2687,-4.5268,4.8713,-0.3052,-0.2441,0.4883,-42.2864,-48.219,149.8425,-0.4535,0.2188,0.8603,0.0792,0.4211,0.5694,-9.4555,-0.6104,-0.3662,0.3052,174.6057,0.9338,5.3613,0.9978,-0.0463,0.0103,0.0466,-1.7609,5.3163,8.1348,0.5493,-0.5493,-0.6104,30.8331,9.3054,149.5129,0.1451,-0.2351,0.9327,0.2318,5.2637,-4.9191,6.7614,0.2441,-0.1831,0.3662,-35.9143,-34.1895,-2.4719,-0.2886,-0.2859,0.071,0.911,-9.7665,0.0144,-0.268,0.4883,0.0,0.0,177.2314,88.3795,113.2965,0.4082,-0.5895,0.3976,-0.5725,0,0,0,0,0,0,0,0,0,0,0,0,0,0,0,0,0,0,0,0,0,0,0,0,0,0,0,0,0,0,0,0,0,0,0,0
1777280469.4129338,10856,0,0.0,0.0,0.0,0.0,0.0,0.0,0.0,0.0,0.0,0.0,0.0,0.0,0.0,0.0,0.0,0.0,0.0,0.0,0.0,0.0,0.0,0.0,0.0,0.0,0.0,0.0,0.0,705.48681640625,585.2288818359375,1104.3233642578125,955.3648681640625,620.3330078125,1102.3743896484375,757.521484375,407.627197265625,1139.5777587890625,919.0834350585938,411.5999450683594,1140.98876953125,656.4039916992188,525.8922729492188,851.4625854492188,694.2734985351562,614.402099609375,602.2987060546875,679.9915161132812,599.7882080078125,426.883544921875,706.0167846679688,631.8931884765625,231.54139709472656,774.5340576171875,545.3364868164062,155.734375,729.722900390625,810.2371826171875,184.06973266601562,1014.4929809570312,520.0518798828125,781.5528564453125,974.1262817382812,420.41107177734375,570.15966796875,989.7042846679688,341.8246765136719,457.5533142089844,949.9649047851562,224.70333862304688,277.9447021484375,887.8003540039062,125.19129943847656,227.53565979003906,946.5980224609375,370.8161926269531,172.83377075195312,1.1245,-1.5791,9.7378,0.9766,-0.1221,-0.6104,-9.3713,-9.4537,137.016,-0.1062,0.0457,0.9267,0.3576,5.3498,-8.1778,0.0909,0.3052,-0.4883,-0.1221,-89.2255,-33.783,-10.2612,-0.6508,-0.2661,0.1423,0.6967,7.2734,-4.5268,4.8665,-0.2441,-0.2441,0.4883,-42.2919,-48.2135,149.8425,-0.4535,0.2188,0.8603,0.0792,0.4211,0.5694,-9.4555,-0.5493,-0.3052,0.3052,174.6167,0.9174,5.3668,0.9978,-0.0464,0.0102,0.0465,-1.7609,5.3115,8.1348,0.4883,-0.5493,-0.6104,30.8441,9.3109,149.5129,0.1452,-0.2352,0.9327,0.2318,5.2685,-4.9191,6.7566,0.1831,-0.2441,0.3662,-35.9198,-34.1785,-2.4719,-0.2886,-0.2858,0.071,0.911,-9.7713,0.0191,-0.268,0.4883,0.0,-0.061,177.2314,88.3795,113.291,0.4082,-0.5895,0.3976,-0.5725,0,0,0,0,0,0,0,0,0,0,0,0,0,0,0,0,0,0,0,0,0,0,0,0,0,0,0,0,0,0,0,0,0,0,0,0
1777280469.425013,10857,0,0.0,0.0,0.0,0.0,0.0,0.0,0.0,0.0,0.0,0.0,0.0,0.0,0.0,0.0,0.0,0.0,0.0,0.0,0.0,0.0,0.0,0.0,0.0,0.0,0.0,0.0,0.0,703.4500122070312,586.6030883789062,1105.1903076171875,953.3739013671875,620.6882934570312,1103.4437255859375,755.2173461914062,408.810302734375,1140.029541015625,916.7969970703125,412.01220703125,1141.2213134765625,655.0817260742188,527.03466796875,852.0164184570312,693.6295166015625,614.2879028320312,602.4987182617188,679.103515625,597.5731811523438,427.3651428222656,705.8015747070312,625.9117431640625,231.74143981933594,774.49072265625,538.0888671875,155.9484405517578,729.9503173828125,802.9561157226562,183.73916625976562,1013.3718872070312,523.8762817382812,782.1340942382812,973.9281005859375,427.63677978515625,570.8939208984375,989.8544311523438,346.0231018066406,460.89215087890625,950.8311767578125,224.33651733398438,284.264892578125,887.9225463867188,123.84608459472656,238.1979522705078,947.2230224609375,364.8507385253906,172.24639892578125,1.1245,-1.5791,9.7378,0.9766,-0.1221,-0.6104,-9.3713,-9.4537,137.016,-0.1062,0.0457,0.9267,0.3576,5.3498,-8.1778,0.0909,0.3052,-0.4883,-0.1221,-89.2255,-33.783,-10.2612,-0.6508,-0.2661,0.1423,0.6967,7.2734,-4.5268,4.8665,-0.2441,-0.2441,0.4883,-42.2919,-48.2135,149.8425,-0.4535,0.2188,0.8603,0.0792,0.4211,0.5694,-9.4555,-0.5493,-0.3052,0.3052,174.6167,0.9174,5.3668,0.9978,-0.0464,0.0102,0.0465,-1.7609,5.3115,8.1348,0.4883,-0.5493,-0.6104,30.8441,9.3109,149.5129,0.1452,-0.2352,0.9327,0.2318,5.2685,-4.9191,6.7566,0.1831,-0.2441,0.3662,-35.9198,-34.1785,-2.4719,-0.2886,-0.2858,0.071,0.911,-9.7713,0.0191,-0.268,0.4883,0.0,-0.061,177.2314,88.3795,113.291,0.4082,-0.5895,0.3976,-0.5725,0,0,0,0,0,0,0,0,0,0,0,0,0,0,0,0,0,0,0,0,0,0,0,0,0,0,0,0,0,0,0,0,0,0,0,0
1777280469.4516578,10857,1,0.0,0.0,0.0,0.0,0.0,0.0,0.0,0.0,0.0,0.0,0.0,0.0,0.0,0.0,0.0,0.0,0.0,0.0,0.0,0.0,0.0,0.0,0.0,0.0,0.0,0.0,0.0,703.4500122070312,586.6030883789062,1105.1903076171875,953.3739013671875,620.6882934570312,1103.4437255859375,755.2173461914062,408.810302734375,1140.029541015625,916.7969970703125,412.01220703125,1141.2213134765625,655.0817260742188,527.03466796875,852.0164184570312,693.6295166015625,614.2879028320312,602.4987182617188,679.103515625,597.5731811523438,427.3651428222656,705.8015747070312,625.9117431640625,231.74143981933594,774.49072265625,538.0888671875,155.9484405517578,729.9503173828125,802.9561157226562,183.73916625976562,1013.3718872070312,523.8762817382812,782.1340942382812,973.9281005859375,427.63677978515625,570.8939208984375,989.8544311523438,346.0231018066406,460.89215087890625,950.8311767578125,224.33651733398438,284.264892578125,887.9225463867188,123.84608459472656,238.1979522705078,947.2230224609375,364.8507385253906,172.24639892578125,1.1245,-1.5791,9.7378,0.9766,-0.1221,-0.6104,-9.3713,-9.4537,137.016,-0.1062,0.0457,0.9267,0.3576,5.3498,-8.1778,0.0909,0.3052,-0.4883,-0.1221,-89.2255,-33.783,-10.2612,-0.6508,-0.2661,0.1423,0.6967,7.2734,-4.5268,4.8665,-0.2441,-0.2441,0.4883,-42.2919,-48.2135,149.8425,-0.4535,0.2188,0.8603,0.0792,0.4211,0.5694,-9.4555,-0.5493,-0.3052,0.3052,174.6167,0.9174,5.3668,0.9978,-0.0464,0.0102,0.0465,-1.7609,5.3115,8.1348,0.4883,-0.5493,-0.6104,30.8441,9.3109,149.5129,0.1452,-0.2352,0.9327,0.2318,5.2685,-4.9191,6.7566,0.1831,-0.2441,0.3662,-35.9198,-34.1785,-2.4719,-0.2886,-0.2858,0.071,0.911,-9.7713,0.0191,-0.268,0.4883,0.0,-0.061,177.2314,88.3795,113.291,0.4082,-0.5895,0.3976,-0.5725,0,0,0,0,0,0,0,0,0,0,0,0,0,0,0,0,0,0,0,0,0,0,0,0,0,0,0,0,0,0,0,0,0,0,0,0
1777280469.4583666,10860,0,0.0,0.0,0.0,0.0,0.0,0.0,0.0,0.0,0.0,0.0,0.0,0.0,0.0,0.0,0.0,0.0,0.0,0.0,0.0,0.0,0.0,0.0,0.0,0.0,0.0,0.0,0.0,697.594970703125,590.0205078125,1108.3099365234375,947.7058715820312,620.7115478515625,1107.1866455078125,748.3143920898438,411.6778259277344,1142.01025390625,909.8896484375,412.45574951171875,1142.553955078125,650.4139404296875,528.3419799804688,853.8316040039062,691.204833984375,610.73828125,602.8470458984375,676.7002563476562,587.8765258789062,428.5526428222656,705.3019409179688,606.6544189453125,232.4153594970703,774.572998046875,516.154541015625,156.35903930664062,730.5038452148438,780.9686279296875,183.48558044433594,1010.8961181640625,535.9711303710938,784.9246215820312,974.2742309570312,453.2101745605469,574.0159301757812,990.9243774414062,363.51422119140625,472.3010559082031,953.2753295898438,228.70240783691406,305.6937561035156,887.6376342773438,128.4325408935547,277.1527404785156,949.943359375,350.1161193847656,169.71263122558594,1.1245,-1.5743,9.7378,1.0376,-0.1221,-0.6104,-9.3713,-9.3933,137.016,-0.1058,0.0459,0.9267,0.3577,5.345,-8.173,0.0909,0.3052,-0.5493,-0.1221,-89.231,-33.772,-10.2612,-0.6509,-0.266,0.1423,0.6967,7.2639,-4.522,4.8713,-0.3052,-0.3052,0.4883,-42.2974,-48.208,149.848,-0.4534,0.2189,0.8603,0.0792,0.4163,0.5694,-9.4555,-0.6104,-0.3052,0.3052,174.6497,0.8569,5.3778,0.9978,-0.0465,0.0097,0.0463,-1.7562,5.3115,8.1348,0.5493,-0.5493,-0.6104,30.8826,9.3274,149.5184,0.1454,-0.2354,0.9326,0.2317,5.2685,-4.9239,6.7566,0.1831,-0.1831,0.3662,-35.9198,-34.1565,-2.4719,-0.2887,-0.2857,0.0709,0.9111,-9.7761,0.0144,-0.2728,0.4883,0.0,-0.061,177.226,88.3795,113.2855,0.4082,-0.5895,0.3977,-0.5725,0,0,0,0,0,0,0,0,0,0,0,0,0,0,0,0,0,0,0,0,0,0,0,0,0,0,0,0,0,0,0,0,0,0,0,0
1777280469.473208,10862,0,0.0,0.0,0.0,0.0,0.0,0.0,0.0,0.0,0.0,0.0,0.0,0.0,0.0,0.0,0.0,0.0,0.0,0.0,0.0,0.0,0.0,0.0,0.0,0.0,0.0,0.0,0.0,694.0238647460938,591.6331176757812,1110.5560302734375,944.2933349609375,619.8887329101562,1109.888427734375,743.8033447265625,412.9400634765625,1143.7039794921875,905.3353271484375,412.06964111328125,1143.8638916015625,646.9055786132812,527.4472045898438,854.9248657226562,689.289794921875,605.6975708007812,602.725830078125,675.5919799804688,578.8065185546875,428.908447265625,705.236328125,592.8825073242188,232.69381713867188,774.78662109375,501.4245910644531,156.58192443847656,730.8216552734375,766.2847900390625,183.30221557617188,1009.9095458984375,543.9038696289062,787.5657958984375,975.0525512695312,472.1951904296875,577.0266723632812,991.8016357421875,378.2122802734375,480.76251220703125,954.2388305664062,235.6661376953125,321.186279296875,886.5106811523438,138.4783477783203,306.185302734375,952.4120483398438,343.7039794921875,168.38235473632812,1.1245,-1.5791,9.7426,1.0376,-0.061,-0.6104,-9.3658,-9.3768,137.016,-0.1056,0.0459,0.9267,0.3577,5.3498,-8.1874,0.0813,0.3052,-0.4883,-0.1831,-89.231,-33.772,-10.2557,-0.6509,-0.266,0.1423,0.6967,7.2687,-4.5268,4.8713,-0.2441,-0.3052,0.4883,-42.3029,-48.2025,149.8535,-0.4534,0.219,0.8604,0.0791,0.4211,0.5694,-9.4507,-0.5493,-0.3052,0.3052,174.6497,0.8569,5.3778,0.9978,-0.0465,0.0097,0.0463,-1.7562,5.3115,8.1348,0.5493,-0.5493,-0.6104,30.8826,9.3274,149.5184,0.1454,-0.2354,0.9326,0.2317,5.2685,-4.9239,6.7566,0.1831,-0.1831,0.3662,-35.9198,-34.1565,-2.4719,-0.2887,-0.2857,0.0709,0.9111,-9.7761,0.0144,-0.2728,0.4883,0.0,-0.061,177.226,88.3795,113.2855,0.4082,-0.5895,0.3977,-0.5725,0,0,0,0,0,0,0,0,0,0,0,0,0,0,0,0,0,0,0,0,0,0,0,0,0,0,0,0,0,0,0,0,0,0,0,0
1777280469.4997902,10864,0,0.0,0.0,0.0,0.0,0.0,0.0,0.0,0.0,0.0,0.0,0.0,0.0,0.0,0.0,0.0,0.0,0.0,0.0,0.0,0.0,0.0,0.0,0.0,0.0,0.0,0.0,0.0,690.7872314453125,592.6563110351562,1112.7275390625,941.21923828125,618.5066528320312,1112.570556640625,739.46044921875,413.6355895996094,1145.565185546875,900.92431640625,411.1671447753906,1145.41650390625,643.3279418945312,525.2666015625,855.799560546875,687.2817993164062,598.8695068359375,602.34765625,674.8596801757812,568.10107421875,428.9543762207031,705.3705444335938,578.6299438476562,232.8118438720703,775.0845947265625,486.6514587402344,156.84608459472656,731.119384765625,751.589599609375,182.96600341796875,1009.2789306640625,551.2483520507812,790.7413940429688,975.9729614257812,491.4720458984375,580.8704223632812,992.4142456054688,394.1799621582031,489.5734558105469,954.2500610351562,245.16871643066406,336.56646728515625,884.0042114257812,152.5677490234375,333.5331726074219,955.3761596679688,340.9537353515625,168.94703674316406,1.1197,-1.5743,9.7474,0.9766,-0.1221,-0.6104,-9.3658,-9.3768,137.016,-0.1056,0.0459,0.9267,0.3577,5.3498,-8.1874,0.0813,0.3052,-0.4883,-0.1831,-89.231,-33.772,-10.2557,-0.6509,-0.266,0.1423,0.6967,7.2687,-4.5268,4.8713,-0.2441,-0.3052,0.4883,-42.3029,-48.2025,149.8535,-0.4534,0.219,0.8604,0.0791,0.4211,0.5694,-9.4507,-0.5493,-0.3052,0.3052,174.6497,0.8569,5.3778,0.9978,-0.0465,0.0097,0.0463,-1.7562,5.3067,8.1396,0.6104,-0.6104,-0.5493,30.8936,9.3329,149.5239,0.1454,-0.2355,0.9326,0.2316,5.2685,-4.9191,6.7519,0.1831,-0.2441,0.3662,-35.9198,-34.14,-2.4664,-0.2887,-0.2855,0.0709,0.9111,-9.7713,0.0144,-0.2632,0.5493,0.0,-0.1221,177.2205,88.3795,113.2855,0.4083,-0.5894,0.3977,-0.5725,0,0,0,0,0,0,0,0,0,0,0,0,0,0,0,0,0,0,0,0,0,0,0,0,0,0,0,0,0,0,0,0,0,0,0,0
1777280469.5031953,10865,0,0.0,0.0,0.0,0.0,0.0,0.0,0.0,0.0,0.0,0.0,0.0,0.0,0.0,0.0,0.0,0.0,0.0,0.0,0.0,0.0,0.0,0.0,0.0,0.0,0.0,0.0,0.0,689.2994995117188,592.936767578125,1113.7479248046875,939.8059692382812,617.6499633789062,1113.87353515625,737.380126953125,413.7664794921875,1146.5289306640625,898.8026123046875,410.5399475097656,1146.263671875,641.5843505859375,523.759765625,856.1534423828125,686.2868041992188,594.94287109375,602.1011962890625,674.5850219726562,562.341796875,428.91644287109375,705.4845581054688,571.4012451171875,232.8423614501953,775.2528076171875,479.249755859375,157.00975036621094,731.2620239257812,744.2283935546875,182.76651000976562,1009.0401611328125,554.6243896484375,792.5140991210938,976.4067993164062,500.9222717285156,583.096923828125,992.5248413085938,402.34429931640625,493.9998474121094,953.8406982421875,250.6851348876953,343.865234375,882.080810546875,160.47909545898438,345.3556213378906,957.0678100585938,341.2972717285156,170.37266540527344,1.1245,-1.5791,9.7474,0.9766,-0.1221,-0.5493,-9.3658,-9.3604,137.016,-0.1055,0.0459,0.9267,0.3577,5.3546,-8.1826,0.0861,0.3052,-0.4272,-0.1221,-89.231,-33.7665,-10.2557,-0.6509,-0.266,0.1423,0.6967,7.2734,-4.5268,4.8713,-0.2441,-0.1831,0.4883,-42.3029,-48.2025,149.8535,-0.4534,0.219,0.8604,0.0791,0.4211,0.5646,-9.4507,-0.6104,-0.3662,0.3052,174.6606,0.8405,5.3778,0.9978,-0.0465,0.0095,0.0462,-1.7609,5.3115,8.1348,0.5493,-0.5493,-0.6104,30.9045,9.3384,149.5239,0.1455,-0.2356,0.9326,0.2316,5.2685,-4.9191,6.7519,0.1831,-0.2441,0.3662,-35.9198,-34.14,-2.4664,-0.2887,-0.2855,0.0709,0.9111,-9.7713,0.0144,-0.2632,0.5493,0.0,-0.1221,177.2205,88.3795,113.2855,0.4083,-0.5894,0.3977,-0.5725,0,0,0,0,0,0,0,0,0,0,0,0,0,0,0,0,0,0,0,0,0,0,0,0,0,0,0,0,0,0,0,0,0,0,0,0
1777280469.519738,10867,0,0.0,0.0,0.0,0.0,0.0,0.0,0.0,0.0,0.0,0.0,0.0,0.0,0.0,0.0,0.0,0.0,0.0,0.0,0.0,0.0,0.0,0.0,0.0,0.0,0.0,0.0,0.0,686.5739135742188,593.0288696289062,1115.619873046875,937.2007446289062,615.6991577148438,1116.3802490234375,733.45556640625,413.60101318359375,1148.4771728515625,894.7845458984375,408.9791259765625,1148.0699462890625,638.3109130859375,520.083984375,856.7371215820312,684.3956298828125,586.4013671875,601.5941772460938,674.1194458007812,550.4263916015625,428.85040283203125,705.7490234375,556.86474609375,232.9364013671875,775.6079711914062,464.4059143066406,157.44100952148438,731.53466796875,729.4639282226562,182.36705017089844,1008.6205444335938,560.73876953125,796.4227905273438,977.0950927734375,518.9757080078125,588.0690307617188,992.2308349609375,418.5630187988281,502.6114807128906,952.2008056640625,262.9731750488281,356.9385681152344,876.8826293945312,176.8450469970703,363.49029541015625,960.9197387695312,346.12847900390625,175.83987426757812,1.1245,-1.5791,9.7474,0.9766,-0.1221,-0.5493,-9.3658,-9.3604,137.016,-0.1055,0.0459,0.9267,0.3577,5.3498,-8.1826,0.0909,0.3052,-0.4883,-0.1221,-89.231,-33.7665,-10.2557,-0.6509,-0.266,0.1423,0.6967,7.2687,-4.522,4.8713,-0.1831,-0.2441,0.4272,-42.3083,-48.197,149.859,-0.4533,0.2191,0.8604,0.0791,0.4211,0.5694,-9.4603,-0.6104,-0.3662,0.3052,174.6716,0.8185,5.3833,0.9978,-0.0466,0.0093,0.0461,-1.7609,5.3163,8.1348,0.6104,-0.6104,-0.6104,30.9045,9.3384,149.5239,0.1455,-0.2356,0.9326,0.2316,5.2685,-4.9239,6.7566,0.3052,-0.2441,0.3662,-35.9198,-34.129,-2.4664,-0.2887,-0.2854,0.0709,0.9111,-9.7713,0.0191,-0.2728,0.4883,0.0,-0.061,177.2205,88.3795,113.2855,0.4083,-0.5894,0.3977,-0.5725,0,0,0,0,0,0,0,0,0,0,0,0,0,0,0,0,0,0,0,0,0,0,0,0,0,0,0,0,0,0,0,0,0,0,0,0
1777280469.5340874,10868,0,0.0,0.0,0.0,0.0,0.0,0.0,0.0,0.0,0.0,0.0,0.0,0.0,0.0,0.0,0.0,0.0,0.0,0.0,0.0,0.0,0.0,0.0,0.0,0.0,0.0,0.0,0.0,685.3262939453125,592.8436279296875,1116.4674072265625,935.995361328125,614.6398315429688,1117.5858154296875,731.6300659179688,413.3124084472656,1149.4481201171875,892.9083862304688,408.06549072265625,1149.020263671875,636.8191528320312,517.9882202148438,856.99267578125,683.5262451171875,581.9058227539062,601.3721313476562,673.9049682617188,544.4010009765625,428.8690185546875,705.8848266601562,549.5909423828125,233.0339813232422,775.7919311523438,456.9597473144531,157.72506713867188,731.6646118164062,722.05908203125,182.18104553222656,1008.412841796875,563.4891357421875,798.5623168945312,977.314208984375,527.4386596679688,590.7540893554688,991.809814453125,426.4808349609375,506.6611022949219,951.0153198242188,269.6800842285156,362.427978515625,873.7449951171875,185.01304626464844,369.4615173339844,963.0601806640625,350.8008728027344,179.7100067138672,1.1245,-1.5791,9.7474,1.0376,-0.1221,-0.6104,-9.3658,-9.3439,137.016,-0.1053,0.046,0.9267,0.3577,5.3498,-8.1778,0.0957,0.3052,-0.5493,-0.1831,-89.231,-33.761,-10.2557,-0.6509,-0.2659,0.1422,0.6967,7.2687,-4.522,4.8713,-0.3052,-0.3052,0.4883,-42.3083,-48.1915,149.859,-0.4533,0.2191,0.8604,0.0791,0.4211,0.5694,-9.4507,-0.5493,-0.3662,0.3052,174.6826,0.802,5.3888,0.9978,-0.0466,0.0092,0.046,-1.7562,5.3115,8.1443,0.5493,-0.5493,-0.5493,30.921,9.3439,149.5294,0.1456,-0.2357,0.9326,0.2315,5.2685,-4.9239,6.7566,0.3052,-0.2441,0.3662,-35.9198,-34.129,-2.4664,-0.2887,-0.2854,0.0709,0.9111,-9.7713,0.0191,-0.2728,0.4883,0.0,-0.061,177.2205,88.3795,113.2855,0.4083,-0.5894,0.3977,-0.5725,0,0,0,0,0,0,0,0,0,0,0,0,0,0,0,0,0,0,0,0,0,0,0,0,0,0,0,0,0,0,0,0,0,0,0,0
1777280469.551843,10870,0,0.0,0.0,0.0,0.0,0.0,0.0,0.0,0.0,0.0,0.0,0.0,0.0,0.0,0.0,0.0,0.0,0.0,0.0,0.0,0.0,0.0,0.0,0.0,0.0,0.0,0.0,0.0,683.0308227539062,592.0354614257812,1117.9957275390625,933.7462768554688,612.424560546875,1119.9229736328125,728.2885131835938,412.3551025390625,1151.3604736328125,889.4617309570312,406.0225830078125,1150.99658203125,634.187744140625,513.4485473632812,857.496337890625,681.9859619140625,572.6876831054688,601.0652465820312,673.5046997070312,532.4049072265625,429.09356689453125,706.1543579101562,535.0736083984375,233.3896942138672,776.1771850585938,442.01666259765625,158.44700622558594,731.9129638671875,707.2062377929688,181.84432983398438,1007.958251953125,568.4488525390625,803.2171020507812,977.4523315429688,543.0032958984375,596.3255615234375,990.4631958007812,441.71905517578125,513.8779907226562,948.109375,284.1617431640625,370.7020568847656,867.0194091796875,201.19903564453125,375.2954406738281,967.5635986328125,364.69293212890625,188.6074676513672,1.1245,-1.5743,9.7426,0.9766,-0.1221,-0.6104,-9.3658,-9.3274,137.016,-0.1052,0.046,0.9267,0.3578,5.3546,-8.1778,0.0909,0.3052,-0.4883,-0.1221,-89.231,-33.761,-10.2557,-0.6509,-0.2659,0.1422,0.6967,7.2687,-4.5268,4.8713,-0.3052,-0.2441,0.4883,-42.3138,-48.1915,149.859,-0.4533,0.2191,0.8604,0.0791,0.4163,0.5646,-9.4555,-0.5493,-0.3662,0.3052,174.6936,0.7855,5.3888,0.9978,-0.0466,0.009,0.0459,-1.7609,5.3115,8.13,0.5493,-0.4883,-0.6104,30.932,9.3494,149.5294,0.1456,-0.2358,0.9325,0.2315,5.2685,-4.9191,6.7519,0.1831,-0.2441,0.3662,-35.9253,-34.1071,-2.4664,-0.2888,-0.2853,0.0708,0.9112,-9.7713,0.0191,-0.2728,0.4883,0.0,-0.061,177.2205,88.3795,113.2855,0.4083,-0.5894,0.3977,-0.5725,0,0,0,0,0,0,0,0,0,0,0,0,0,0,0,0,0,0,0,0,0,0,0,0,0,0,0,0,0,0,0,0,0,0,0,0
1777280469.5656915,10871,0,0.0,0.0,0.0,0.0,0.0,0.0,0.0,0.0,0.0,0.0,0.0,0.0,0.0,0.0,0.0,0.0,0.0,0.0,0.0,0.0,0.0,0.0,0.0,0.0,0.0,0.0,0.0,681.970947265625,591.4287719726562,1118.6844482421875,932.6928100585938,611.2897338867188,1121.0648193359375,726.78173828125,411.7032470703125,1152.2958984375,887.902099609375,404.913330078125,1152.015380859375,633.0599975585938,511.0569152832031,857.7649536132812,681.32421875,568.0201416015625,600.998046875,673.330810546875,526.457763671875,429.3175048828125,706.2927856445312,527.8319091796875,233.65798950195312,776.3804931640625,434.5231018066406,158.8754119873047,732.0322875976562,699.7595825195312,181.69180297851562,1007.700439453125,570.6913452148438,805.7257080078125,977.3637084960938,550.053955078125,599.1231079101562,989.5830688476562,448.9987487792969,516.9002685546875,946.4882202148438,291.94189453125,373.30609130859375,863.7276000976562,209.34422302246094,375.4354553222656,969.797119140625,373.77032470703125,193.06051635742188,1.1197,-1.5743,9.7474,1.0376,-0.1831,-0.6104,-9.3658,-9.3109,137.016,-0.1051,0.0461,0.9267,0.3578,5.3498,-8.1826,0.0909,0.3662,-0.4883,-0.1221,-89.2365,-33.7555,-10.2557,-0.651,-0.2659,0.1422,0.6966,7.2734,-4.5315,4.8713,-0.1831,-0.1831,0.4272,-42.3138,-48.1915,149.859,-0.4533,0.2191,0.8604,0.0791,0.4163,0.5694,-9.4603,-0.6104,-0.3052,0.3662,174.7046,0.7635,5.3943,0.9978,-0.0467,0.0088,0.0458,-1.7609,5.3115,8.13,0.5493,-0.4883,-0.6104,30.932,9.3494,149.5294,0.1456,-0.2358,0.9325,0.2315,5.2685,-4.9191,6.7519,0.1831,-0.2441,0.3662,-35.9253,-34.1071,-2.4664,-0.2888,-0.2853,0.0708,0.9112,-9.7713,0.0191,-0.2728,0.4883,0.0,-0.061,177.2205,88.3795,113.2855,0.4083,-0.5894,0.3977,-0.5725,0,0,0,0,0,0,0,0,0,0,0,0,0,0,0,0,0,0,0,0,0,0,0,0,0,0,0,0,0,0,0,0,0,0,0,0
1777280469.5869017,10873,0,0.0,0.0,0.0,0.0,0.0,0.0,0.0,0.0,0.0,0.0,0.0,0.0,0.0,0.0,0.0,0.0,0.0,0.0,0.0,0.0,0.0,0.0,0.0,0.0,0.0,0.0,0.0,680.0038452148438,589.8640747070312,1119.9312744140625,930.715576171875,609.0004272460938,1123.31005859375,724.1065673828125,410.1035461425781,1154.116455078125,885.1251831054688,402.567138671875,1154.09375,631.1818237304688,506.1112060546875,858.3627319335938,680.2177124023438,558.6317749023438,601.047607421875,673.0757446289062,514.636474609375,429.9950256347656,706.5967407226562,513.3657836914062,234.3681640625,776.8021850585938,419.51348876953125,159.8036651611328,732.2625122070312,684.8271484375,181.41488647460938,1007.107421875,574.7639770507812,811.0482788085938,976.8753051757812,562.65087890625,604.5162353515625,987.5624389648438,462.8641357421875,521.46533203125,943.1660766601562,308.621826171875,375.19720458984375,857.9173583984375,226.2178497314453,371.0052490234375,973.9024658203125,395.64129638671875,200.7010498046875,1.1245,-1.5791,9.7474,0.9766,-0.1221,-0.6104,-9.3658,-9.2944,137.0215,-0.1049,0.0461,0.9268,0.3577,5.3498,-8.1778,0.0957,0.2441,-0.4272,-0.1221,-89.2365,-33.7555,-10.2557,-0.651,-0.2659,0.1422,0.6966,7.2734,-4.5315,4.8713,-0.1831,-0.1831,0.4272,-42.3138,-48.1915,149.859,-0.4533,0.2191,0.8604,0.0791,0.4163,0.5646,-9.4507,-0.6104,-0.3662,0.3662,174.7046,0.7635,5.3943,0.9978,-0.0467,0.0088,0.0458,-1.7562,5.3163,8.1348,0.5493,-0.5493,-0.5493,30.954,9.3549,149.5349,0.1457,-0.236,0.9325,0.2314,5.2637,-4.9239,6.7519,0.2441,-0.2441,0.3662,-35.9253,-34.0851,-2.4664,-0.2888,-0.2851,0.0708,0.9112,-9.7761,0.0144,-0.268,0.4883,0.0,-0.061,177.204,88.3795,113.269,0.4084,-0.5893,0.3979,-0.5724,0,0,0,0,0,0,0,0,0,0,0,0,0,0,0,0,0,0,0,0,0,0,0,0,0,0,0,0,0,0,0,0,0,0,0,0
1777280469.5969818,10873,1,0.0,0.0,0.0,0.0,0.0,0.0,0.0,0.0,0.0,0.0,0.0,0.0,0.0,0.0,0.0,0.0,0.0,0.0,0.0,0.0,0.0,0.0,0.0,0.0,0.0,0.0,0.0,680.0038452148438,589.8640747070312,1119.9312744140625,930.715576171875,609.0004272460938,1123.31005859375,724.1065673828125,410.1035461425781,1154.116455078125,885.1251831054688,402.567138671875,1154.09375,631.1818237304688,506.1112060546875,858.3627319335938,680.2177124023438,558.6317749023438,601.047607421875,673.0757446289062,514.636474609375,429.9950256347656,706.5967407226562,513.3657836914062,234.3681640625,776.8021850585938,419.51348876953125,159.8036651611328,732.2625122070312,684.8271484375,181.41488647460938,1007.107421875,574.7639770507812,811.0482788085938,976.8753051757812,562.65087890625,604.5162353515625,987.5624389648438,462.8641357421875,521.46533203125,943.1660766601562,308.621826171875,375.19720458984375,857.9173583984375,226.2178497314453,371.0052490234375,973.9024658203125,395.64129638671875,200.7010498046875,1.1245,-1.5791,9.7474,0.9766,-0.1221,-0.6104,-9.3658,-9.2944,137.0215,-0.1049,0.0461,0.9268,0.3577,5.3498,-8.1778,0.0957,0.2441,-0.4272,-0.1221,-89.2365,-33.7555,-10.2557,-0.651,-0.2659,0.1422,0.6966,7.2734,-4.5315,4.8713,-0.1831,-0.1831,0.4272,-42.3138,-48.1915,149.859,-0.4533,0.2191,0.8604,0.0791,0.4163,0.5646,-9.4507,-0.6104,-0.3662,0.3662,174.7046,0.7635,5.3943,0.9978,-0.0467,0.0088,0.0458,-1.7562,5.3163,8.1348,0.5493,-0.5493,-0.5493,30.954,9.3549,149.5349,0.1457,-0.236,0.9325,0.2314,5.2637,-4.9239,6.7519,0.2441,-0.2441,0.3662,-35.9253,-34.0851,-2.4664,-0.2888,-0.2851,0.0708,0.9112,-9.7761,0.0144,-0.268,0.4883,0.0,-0.061,177.204,88.3795,113.269,0.4084,-0.5893,0.3979,-0.5724,0,0,0,0,0,0,0,0,0,0,0,0,0,0,0,0,0,0,0,0,0,0,0,0,0,0,0,0,0,0,0,0,0,0,0,0
1777280469.5999014,10875,0,0.0,0.0,0.0,0.0,0.0,0.0,0.0,0.0,0.0,0.0,0.0,0.0,0.0,0.0,0.0,0.0,0.0,0.0,0.0,0.0,0.0,0.0,0.0,0.0,0.0,0.0,0.0,678.2246704101562,587.9156494140625,1121.0181884765625,928.9138793945312,606.7088012695312,1125.4913330078125,721.8789672851562,408.1839599609375,1155.86279296875,882.8074340820312,400.1116943359375,1156.1925048828125,629.7771606445312,500.9813537597656,859.03759765625,679.3724975585938,549.1790771484375,601.313232421875,672.98046875,502.822265625,430.9365234375,706.957275390625,498.8924865722656,235.26429748535156,777.2264404296875,404.5215759277344,160.70899963378906,732.4818115234375,669.8455200195312,181.1759796142578,1006.4074096679688,578.3114624023438,816.6273193359375,976.003662109375,573.2826538085938,609.3594970703125,985.4086303710938,475.8753356933594,523.791015625,940.0337524414062,326.8480529785156,372.65234375,853.5860595703125,244.48709106445312,361.21441650390625,977.2570190429688,421.71685791015625,205.64212036132812,1.1245,-1.5791,9.7474,0.9766,-0.1221,-0.6104,-9.3658,-9.2944,137.0215,-0.1049,0.0461,0.9268,0.3577,5.3498,-8.1778,0.1053,0.2441,-0.4883,-0.1831,-89.2365,-33.75,-10.2557,-0.651,-0.2659,0.1422,0.6966,7.2734,-4.5172,4.8713,-0.2441,-0.3052,0.4883,-42.3193,-48.1805,149.8645,-0.4532,0.2192,0.8604,0.079,0.4211,0.5646,-9.4555,-0.5493,-0.3662,0.3052,174.7156,0.7471,5.3998,0.9978,-0.0468,0.0087,0.0457,-1.7562,5.3163,8.13,0.5493,-0.6104,-0.6104,30.9705,9.3604,149.5349,0.1458,-0.2361,0.9325,0.2313,5.2637,-4.9239,6.7519,0.2441,-0.2441,0.3662,-35.9253,-34.0851,-2.4664,-0.2888,-0.2851,0.0708,0.9112,-9.7761,0.0144,-0.268,0.4883,0.0,-0.061,177.204,88.3795,113.269,0.4084,-0.5893,0.3979,-0.5724,0,0,0,0,0,0,0,0,0,0,0,0,0,0,0,0,0,0,0,0,0,0,0,0,0,0,0,0,0,0,0,0,0,0,0,0
1777280469.615259,10875,1,0.0,0.0,0.0,0.0,0.0,0.0,0.0,0.0,0.0,0.0,0.0,0.0,0.0,0.0,0.0,0.0,0.0,0.0,0.0,0.0,0.0,0.0,0.0,0.0,0.0,0.0,0.0,678.2246704101562,587.9156494140625,1121.0181884765625,928.9138793945312,606.7088012695312,1125.4913330078125,721.8789672851562,408.1839599609375,1155.86279296875,882.8074340820312,400.1116943359375,1156.1925048828125,629.7771606445312,500.9813537597656,859.03759765625,679.3724975585938,549.1790771484375,601.313232421875,672.98046875,502.822265625,430.9365234375,706.957275390625,498.8924865722656,235.26429748535156,777.2264404296875,404.5215759277344,160.70899963378906,732.4818115234375,669.8455200195312,181.1759796142578,1006.4074096679688,578.3114624023438,816.6273193359375,976.003662109375,573.2826538085938,609.3594970703125,985.4086303710938,475.8753356933594,523.791015625,940.0337524414062,326.8480529785156,372.65234375,853.5860595703125,244.48709106445312,361.21441650390625,977.2570190429688,421.71685791015625,205.64212036132812,1.1245,-1.5791,9.7474,0.9766,-0.1221,-0.6104,-9.3658,-9.2944,137.0215,-0.1049,0.0461,0.9268,0.3577,5.3498,-8.1778,0.1053,0.2441,-0.4883,-0.1831,-89.2365,-33.75,-10.2557,-0.651,-0.2659,0.1422,0.6966,7.2734,-4.5172,4.8713,-0.2441,-0.3052,0.4883,-42.3193,-48.1805,149.8645,-0.4532,0.2192,0.8604,0.079,0.4211,0.5646,-9.4555,-0.5493,-0.3662,0.3052,174.7156,0.7471,5.3998,0.9978,-0.0468,0.0087,0.0457,-1.7562,5.3163,8.13,0.5493,-0.6104,-0.6104,30.9705,9.3604,149.5349,0.1458,-0.2361,0.9325,0.2313,5.2637,-4.9239,6.7519,0.2441,-0.2441,0.3662,-35.9253,-34.0851,-2.4664,-0.2888,-0.2851,0.0708,0.9112,-9.7761,0.0144,-0.268,0.4883,0.0,-0.061,177.204,88.3795,113.269,0.4084,-0.5893,0.3979,-0.5724,0,0,0,0,0,0,0,0,0,0,0,0,0,0,0,0,0,0,0,0,0,0,0,0,0,0,0,0,0,0,0,0,0,0,0,0
1777280469.6309948,10878,0,0.0,0.0,0.0,0.0,0.0,0.0,0.0,0.0,0.0,0.0,0.0,0.0,0.0,0.0,0.0,0.0,0.0,0.0,0.0,0.0,0.0,0.0,0.0,0.0,0.0,0.0,0.0,675.9109497070312,584.5010986328125,1122.3287353515625,926.5819702148438,603.301025390625,1128.4927978515625,719.3356323242188,404.90447998046875,1158.32666015625,880.1669311523438,396.3786926269531,1159.2691650390625,628.4367065429688,492.88677978515625,860.0958251953125,678.4855346679688,534.8067016601562,601.9466552734375,673.14990234375,484.9324951171875,432.6399841308594,707.635498046875,477.1167907714844,236.79600524902344,777.8506469726562,382.15277099609375,161.78500366210938,732.8096313476562,647.3016357421875,180.8928985595703,1005.206298828125,582.5261840820312,824.8902587890625,974.1259155273438,585.7969970703125,614.9693603515625,982.3778686523438,494.1288146972656,522.8616943359375,936.2152099609375,357.1898498535156,361.2923583984375,849.7833862304688,275.82342529296875,338.2170104980469,980.893798828125,466.9853820800781,207.52845764160156,1.1197,-1.5743,9.7426,0.9766,-0.061,-0.5493,-9.3604,-9.2834,137.0215,-0.1048,0.0461,0.9268,0.3578,5.3546,-8.1874,0.1101,0.3052,-0.4883,-0.1221,-89.2365,-33.7445,-10.2557,-0.651,-0.2658,0.1422,0.6967,7.2687,-4.5268,4.8713,-0.1831,-0.1831,0.4883,-42.3248,-48.175,149.87,-0.4532,0.2193,0.8604,0.079,0.4259,0.5646,-9.4507,-0.6104,-0.3662,0.3052,174.7375,0.7086,5.4053,0.9978,-0.0468,0.0083,0.0456,-1.7562,5.3115,8.1348,0.5493,-0.4883,-0.6104,30.9814,9.3658,149.5349,0.1458,-0.2362,0.9324,0.2313,5.2732,-4.9191,6.7614,0.1831,-0.1831,0.3662,-35.9253,-34.0631,-2.4664,-0.2888,-0.2849,0.0707,0.9113,-9.7761,0.0191,-0.268,0.5493,0.0,-0.061,177.1985,88.3795,113.2581,0.4085,-0.5893,0.3979,-0.5723,0,0,0,0,0,0,0,0,0,0,0,0,0,0,0,0,0,0,0,0,0,0,0,0,0,0,0,0,0,0,0,0,0,0,0,0
1777280469.6473036,10878,1,0.0,0.0,0.0,0.0,0.0,0.0,0.0,0.0,0.0,0.0,0.0,0.0,0.0,0.0,0.0,0.0,0.0,0.0,0.0,0.0,0.0,0.0,0.0,0.0,0.0,0.0,0.0,675.9109497070312,584.5010986328125,1122.3287353515625,926.5819702148438,603.301025390625,1128.4927978515625,719.3356323242188,404.90447998046875,1158.32666015625,880.1669311523438,396.3786926269531,1159.2691650390625,628.4367065429688,492.88677978515625,860.0958251953125,678.4855346679688,534.8067016601562,601.9466552734375,673.14990234375,484.9324951171875,432.6399841308594,707.635498046875,477.1167907714844,236.79600524902344,777.8506469726562,382.15277099609375,161.78500366210938,732.8096313476562,647.3016357421875,180.8928985595703,1005.206298828125,582.5261840820312,824.8902587890625,974.1259155273438,585.7969970703125,614.9693603515625,982.3778686523438,494.1288146972656,522.8616943359375,936.2152099609375,357.1898498535156,361.2923583984375,849.7833862304688,275.82342529296875,338.2170104980469,980.893798828125,466.9853820800781,207.52845764160156,1.1197,-1.5743,9.7426,0.9766,-0.061,-0.5493,-9.3604,-9.2834,137.0215,-0.1048,0.0461,0.9268,0.3578,5.3546,-8.1874,0.1101,0.3052,-0.4883,-0.1221,-89.2365,-33.7445,-10.2557,-0.651,-0.2658,0.1422,0.6967,7.2687,-4.5268,4.8713,-0.1831,-0.1831,0.4883,-42.3248,-48.175,149.87,-0.4532,0.2193,0.8604,0.079,0.4259,0.5646,-9.4507,-0.6104,-0.3662,0.3052,174.7375,0.7086,5.4053,0.9978,-0.0468,0.0083,0.0456,-1.7562,5.3115,8.1348,0.5493,-0.4883,-0.6104,30.9814,9.3658,149.5349,0.1458,-0.2362,0.9324,0.2313,5.2732,-4.9191,6.7614,0.1831,-0.1831,0.3662,-35.9253,-34.0631,-2.4664,-0.2888,-0.2849,0.0707,0.9113,-9.7761,0.0191,-0.268,0.5493,0.0,-0.061,177.1985,88.3795,113.2581,0.4085,-0.5893,0.3979,-0.5723,0,0,0,0,0,0,0,0,0,0,0,0,0,0,0,0,0,0,0,0,0,0,0,0,0,0,0,0,0,0,0,0,0,0,0,0
1777280469.667294,10880,0,0.0,0.0,0.0,0.0,0.0,0.0,0.0,0.0,0.0,0.0,0.0,0.0,0.0,0.0,0.0,0.0,0.0,0.0,0.0,0.0,0.0,0.0,0.0,0.0,0.0,0.0,0.0,674.6248779296875,582.0311889648438,1122.9385986328125,925.3032836914062,601.0772705078125,1130.144775390625,718.1376953125,402.57452392578125,1159.8489990234375,878.9376220703125,393.9596252441406,1161.188232421875,627.97119140625,487.17034912109375,860.7351684570312,678.0827026367188,525.0569458007812,602.3786010742188,673.4467163085938,472.85894775390625,433.8110046386719,708.1991577148438,462.5408935546875,237.83815002441406,778.2520751953125,367.241943359375,162.34791564941406,733.0612182617188,632.236328125,180.75933837890625,1004.370849609375,584.4234008789062,829.863525390625,972.6360473632812,592.0458984375,617.2907104492188,980.6824951171875,505.73992919921875,519.4476928710938,934.4134521484375,379.4781494140625,349.6352233886719,848.433837890625,299.94610595703125,318.5458679199219,982.7640380859375,500.22314453125,205.90541076660156,1.1197,-1.5743,9.7426,0.9766,-0.061,-0.5493,-9.3604,-9.2834,137.0215,-0.1048,0.0461,0.9268,0.3578,5.3498,-8.1778,0.1101,0.3052,-0.4272,-0.1221,-89.2365,-33.7445,-10.2557,-0.651,-0.2658,0.1422,0.6967,7.2687,-4.5268,4.8713,-0.1831,-0.1831,0.4883,-42.3248,-48.175,149.87,-0.4532,0.2193,0.8604,0.079,0.4163,0.5646,-9.4555,-0.6104,-0.3662,0.3052,174.7485,0.6921,5.4108,0.9978,-0.0469,0.0082,0.0455,-1.7609,5.3067,8.13,0.5493,-0.6104,-0.5493,30.9924,9.3713,149.5404,0.1459,-0.2363,0.9324,0.2312,5.2637,-4.9239,6.7519,0.1831,-0.2441,0.3662,-35.9253,-34.0521,-2.4664,-0.2888,-0.2848,0.0707,0.9113,-9.7713,0.0191,-0.2728,0.4883,0.061,-0.061,177.193,88.385,113.2581,0.4085,-0.5892,0.398,-0.5723,0,0,0,0,0,0,0,0,0,0,0,0,0,0,0,0,0,0,0,0,0,0,0,0,0,0,0,0,0,0,0,0,0,0,0,0
1777280469.6820133,10882,0,0.0,0.0,0.0,0.0,0.0,0.0,0.0,0.0,0.0,0.0,0.0,0.0,0.0,0.0,0.0,0.0,0.0,0.0,0.0,0.0,0.0,0.0,0.0,0.0,0.0,0.0,0.0,673.5567626953125,579.4893798828125,1123.283447265625,924.2510375976562,598.9365844726562,1131.365478515625,717.3167114257812,400.214111328125,1161.2540283203125,878.1146240234375,391.67950439453125,1162.928955078125,627.7911987304688,481.1995849609375,861.2503051757812,677.7998657226562,515.1795043945312,602.703369140625,673.8677368164062,460.6908874511719,434.8935241699219,708.8703002929688,447.9092102050781,238.82945251464844,778.6427001953125,352.1859436035156,162.9196319580078,733.3609008789062,617.1311645507812,180.6740264892578,1003.5723876953125,585.437744140625,834.05029296875,971.0894165039062,596.751953125,618.314208984375,979.33740234375,517.1294555664062,514.0885620117188,933.2141723632812,403.4565734863281,335.6645812988281,847.5184936523438,326.8422546386719,296.6896057128906,984.5111694335938,535.1317138671875,202.98977661132812,1.1197,-1.5695,9.7426,1.0376,-0.1221,-0.5493,-9.3604,-9.234,137.0215,-0.1044,0.0463,0.9268,0.3578,5.3498,-8.1778,0.1101,0.3052,-0.5493,-0.2441,-89.2365,-33.739,-10.2557,-0.651,-0.2658,0.1421,0.6967,7.2687,-4.5268,4.8713,-0.3052,-0.3052,0.4883,-42.3303,-48.1696,149.8755,-0.4531,0.2194,0.8604,0.079,0.4163,0.5646,-9.4555,-0.6104,-0.3052,0.3662,174.7595,0.6702,5.4108,0.9978,-0.0469,0.008,0.0454,-1.7657,5.3115,8.13,0.5493,-0.5493,-0.6104,31.0034,9.3768,149.5404,0.146,-0.2363,0.9324,0.2312,5.2637,-4.9239,6.7519,0.1831,-0.2441,0.3662,-35.9253,-34.0521,-2.4664,-0.2888,-0.2848,0.0707,0.9113,-9.7713,0.0191,-0.2728,0.4883,0.061,-0.061,177.193,88.385,113.2581,0.4085,-0.5892,0.398,-0.5723,0,0,0,0,0,0,0,0,0,0,0,0,0,0,0,0,0,0,0,0,0,0,0,0,0,0,0,0,0,0,0,0,0,0,0,0
1777280469.6973534,10884,0,0.0,0.0,0.0,0.0,0.0,0.0,0.0,0.0,0.0,0.0,0.0,0.0,0.0,0.0,0.0,0.0,0.0,0.0,0.0,0.0,0.0,0.0,0.0,0.0,0.0,0.0,0.0,672.7037963867188,576.9246826171875,1123.3238525390625,923.4092407226562,596.9412841796875,1132.04541015625,716.8644409179688,397.8841552734375,1162.5157470703125,877.6883544921875,389.6094970703125,1164.4283447265625,627.8549194335938,475.02423095703125,861.6025390625,677.6270141601562,505.2107849121094,602.8458862304688,674.3914794921875,448.47003173828125,435.80999755859375,709.65087890625,433.21209716796875,239.7288818359375,779.0439453125,336.9277648925781,163.53868103027344,733.7103271484375,601.9678955078125,180.62710571289062,1002.8704833984375,585.4783935546875,837.2033081054688,969.59375,599.9888305664062,617.9873657226562,978.368896484375,528.4264526367188,507.1513366699219,932.5598754882812,429.1375427246094,320.27362060546875,846.7879028320312,356.4087219238281,273.90869140625,986.212890625,571.1624755859375,199.6331024169922,1.1197,-1.5695,9.7426,1.0376,-0.1221,-0.5493,-9.3604,-9.234,137.0215,-0.1044,0.0463,0.9268,0.3578,5.3546,-8.1778,0.1053,0.3052,-0.4883,-0.1221,-89.2365,-33.739,-10.2557,-0.651,-0.2658,0.1421,0.6967,7.2734,-4.5268,4.8713,-0.2441,-0.2441,0.4883,-42.3303,-48.1696,149.8755,-0.4531,0.2194,0.8604,0.079,0.4211,0.5694,-9.4555,-0.6104,-0.3052,0.3052,174.7705,0.6537,5.4163,0.9978,-0.0469,0.0078,0.0453,-1.7609,5.3115,8.1396,0.5493,-0.5493,-0.6104,31.0144,9.3823,149.5459,0.146,-0.2364,0.9324,0.2311,5.2685,-4.9191,6.7519,0.2441,-0.1831,0.3662,-35.9308,-34.0356,-2.4664,-0.2889,-0.2847,0.0707,0.9113,-9.7713,0.0191,-0.268,0.4883,0.0,0.0,177.182,88.385,113.2471,0.4086,-0.5891,0.3981,-0.5722,0,0,0,0,0,0,0,0,0,0,0,0,0,0,0,0,0,0,0,0,0,0,0,0,0,0,0,0,0,0,0,0,0,0,0,0
1777280469.7018855,10885,0,0.0,0.0,0.0,0.0,0.0,0.0,0.0,0.0,0.0,0.0,0.0,0.0,0.0,0.0,0.0,0.0,0.0,0.0,0.0,0.0,0.0,0.0,0.0,0.0,0.0,0.0,0.0,672.3532104492188,575.6455688476562,1123.22216796875,923.057861328125,596.0226440429688,1132.15966796875,716.7763671875,396.74798583984375,1163.08349609375,877.6224365234375,388.6749267578125,1165.068603515625,627.9666748046875,471.8821105957031,861.7123413085938,677.5811157226562,500.2065124511719,602.8341674804688,674.6835327148438,442.3545837402344,436.1897277832031,710.0760498046875,425.8367614746094,240.1363983154297,779.2575073242188,329.2367858886719,163.84666442871094,733.9022216796875,594.3621826171875,180.60948181152344,1002.5751342773438,585.1234130859375,838.3351440429688,968.8912963867188,601.068603515625,617.3251953125,978.0184936523438,534.0509643554688,503.23126220703125,932.4118041992188,442.60723876953125,312.3284606933594,846.4622192382812,372.114990234375,262.5295104980469,987.0023803710938,589.4758911132812,198.03106689453125,1.1197,-1.5695,9.7426,1.0376,-0.1221,-0.5493,-9.3604,-9.234,137.0215,-0.1044,0.0463,0.9268,0.3578,5.3498,-8.1826,0.1101,0.3052,-0.4272,-0.061,-89.2365,-33.7335,-10.2557,-0.651,-0.2658,0.1421,0.6967,7.2734,-4.5268,4.8761,-0.2441,-0.1831,0.4883,-42.3358,-48.1641,149.8755,-0.4531,0.2195,0.8604,0.079,0.4211,0.5694,-9.4555,-0.6104,-0.3052,0.3052,174.7705,0.6537,5.4163,0.9978,-0.0469,0.0078,0.0453,-1.7562,5.3115,8.1396,0.5493,-0.5493,-0.5493,31.0254,9.3878,149.5459,0.1461,-0.2365,0.9324,0.2311,5.2685,-4.9191,6.7519,0.2441,-0.1831,0.3662,-35.9308,-34.0356,-2.4664,-0.2889,-0.2847,0.0707,0.9113,-9.7713,0.0191,-0.268,0.4883,0.0,0.0,177.182,88.385,113.2471,0.4086,-0.5891,0.3981,-0.5722,0,0,0,0,0,0,0,0,0,0,0,0,0,0,0,0,0,0,0,0,0,0,0,0,0,0,0,0,0,0,0,0,0,0,0,0
1777280469.7295477,10886,0,0.0,0.0,0.0,0.0,0.0,0.0,0.0,0.0,0.0,0.0,0.0,0.0,0.0,0.0,0.0,0.0,0.0,0.0,0.0,0.0,0.0,0.0,0.0,0.0,0.0,0.0,0.0,672.0491333007812,574.3743286132812,1123.0379638671875,922.7467041015625,595.1710205078125,1132.1175537109375,716.7809448242188,395.6401062011719,1163.6033935546875,877.6542358398438,387.8182067871094,1165.6263427734375,628.12646484375,468.71588134765625,861.7781372070312,677.5625,495.1958312988281,602.7642211914062,674.9911499023438,436.24261474609375,436.51324462890625,710.5184936523438,418.44317626953125,240.51422119140625,779.4820556640625,321.5212097167969,164.13719177246094,734.104736328125,586.7426147460938,180.5895538330078,1002.3271484375,584.52294921875,839.150146484375,968.227783203125,601.7915649414062,616.3460693359375,977.7465209960938,539.6483154296875,499.09417724609375,932.3685913085938,456.4812927246094,304.36602783203125,846.165283203125,388.3788757324219,251.31053161621094,987.6986083984375,607.9478759765625,196.61154174804688,1.1197,-1.5695,9.7426,1.0376,-0.1221,-0.5493,-9.3604,-9.234,137.0215,-0.1044,0.0463,0.9268,0.3578,5.3498,-8.1826,0.1101,0.3052,-0.4272,-0.061,-89.2365,-33.7335,-10.2557,-0.651,-0.2658,0.1421,0.6967,7.2734,-4.5268,4.8761,-0.2441,-0.1831,0.4883,-42.3358,-48.1641,149.8755,-0.4531,0.2195,0.8604,0.079,0.4211,0.5694,-9.4555,-0.6104,-0.3052,0.3052,174.7705,0.6537,5.4163,0.9978,-0.0469,0.0078,0.0453,-1.7562,5.3115,8.1396,0.5493,-0.5493,-0.5493,31.0254,9.3878,149.5459,0.1461,-0.2365,0.9324,0.2311,5.2685,-4.9191,6.7519,0.2441,-0.1831,0.3662,-35.9308,-34.0356,-2.4664,-0.2889,-0.2847,0.0707,0.9113,-9.7713,0.0191,-0.268,0.4883,0.0,0.0,177.182,88.385,113.2471,0.4086,-0.5891,0.3981,-0.5722,0,0,0,0,0,0,0,0,0,0,0,0,0,0,0,0,0,0,0,0,0,0,0,0,0,0,0,0,0,0,0,0,0,0,0,0
1777280469.7448685,10888,0,0.0,0.0,0.0,0.0,0.0,0.0,0.0,0.0,0.0,0.0,0.0,0.0,0.0,0.0,0.0,0.0,0.0,0.0,0.0,0.0,0.0,0.0,0.0,0.0,0.0,0.0,0.0,671.5668334960938,571.87451171875,1122.426513671875,922.2265014648438,593.7127075195312,1131.565185546875,717.0701293945312,393.537353515625,1164.4822998046875,878.0094604492188,386.3684997558594,1166.46875,628.5791015625,462.3437194824219,861.78564453125,677.6115112304688,485.16748046875,602.4556884765625,675.6417236328125,424.0406494140625,436.9961853027344,711.4352416992188,403.6031494140625,241.18429565429688,779.9579467773438,306.0634765625,164.63243103027344,734.533203125,571.4735717773438,180.5286407470703,1002.0021362304688,582.6324462890625,839.799072265625,967.0245361328125,602.1685180664062,613.5135498046875,977.3894653320312,550.678955078125,490.4327087402344,932.5527954101562,485.34808349609375,288.8231506347656,845.7321166992188,422.34820556640625,229.70326232910156,988.5865478515625,645.2979125976562,194.76768493652344,1.1245,-1.5791,9.7426,0.9766,-0.061,-0.6104,-9.3549,-9.1901,137.0215,-0.1041,0.0464,0.9268,0.3579,5.3498,-8.1826,0.1101,0.3052,-0.4883,-0.1221,-89.2365,-33.7335,-10.2612,-0.651,-0.2658,0.1421,0.6967,7.2687,-4.522,4.8713,-0.2441,-0.3052,0.4883,-42.3413,-48.1586,149.881,-0.4531,0.2195,0.8604,0.0789,0.4211,0.5694,-9.4555,-0.6104,-0.3052,0.3052,174.7925,0.6207,5.4218,0.9978,-0.047,0.0076,0.0451,-1.7562,5.3115,8.1348,0.4883,-0.5493,-0.6104,31.0419,9.3933,149.5459,0.1462,-0.2366,0.9323,0.2311,5.2637,-4.9191,6.7471,0.1831,-0.3052,0.3662,-35.9308,-34.0137,-2.4664,-0.2889,-0.2845,0.0706,0.9114,-9.7713,0.0191,-0.268,0.4883,0.0,-0.061,177.171,88.385,113.2361,0.4088,-0.5891,0.3982,-0.5722,0,0,0,0,0,0,0,0,0,0,0,0,0,0,0,0,0,0,0,0,0,0,0,0,0,0,0,0,0,0,0,0,0,0,0,0
1777280469.7627664,10890,0,0.0,0.0,0.0,0.0,0.0,0.0,0.0,0.0,0.0,0.0,0.0,0.0,0.0,0.0,0.0,0.0,0.0,0.0,0.0,0.0,0.0,0.0,0.0,0.0,0.0,0.0,0.0,671.2318115234375,569.47216796875,1121.51318359375,921.8173828125,592.6486206054688,1130.421630859375,717.7339477539062,391.6358337402344,1165.11669921875,878.7486572265625,385.31396484375,1166.91162109375,629.1966552734375,455.9664001464844,861.6503295898438,677.7864379882812,475.13494873046875,601.9564819335938,676.3348388671875,411.8675842285156,437.2939453125,712.3692016601562,388.69940185546875,241.75936889648438,780.4511108398438,290.61492919921875,165.003662109375,734.9718017578125,556.177734375,180.43807983398438,1001.9430541992188,579.9555053710938,839.1392822265625,965.965576171875,601.1337890625,609.6812133789062,977.1851806640625,561.2885131835938,481.6820983886719,933.0205078125,515.4246826171875,274.4707336425781,845.7561645507812,457.71832275390625,209.70677185058594,988.3510131835938,683.0521240234375,195.0660400390625,1.1245,-1.5791,9.7426,0.9766,-0.1221,-0.5493,-9.3549,-9.1736,137.0215,-0.1039,0.0464,0.9268,0.3579,5.3546,-8.1826,0.1053,0.3052,-0.4272,-0.1221,-89.2365,-33.728,-10.2612,-0.651,-0.2658,0.142,0.6967,7.2734,-4.5268,4.8713,-0.2441,-0.2441,0.4883,-42.3468,-48.1531,149.881,-0.453,0.2196,0.8604,0.0789,0.4211,0.5694,-9.4555,-0.6104,-0.3662,0.3052,174.8035,0.5988,5.4272,0.9978,-0.0471,0.0074,0.045,-1.7609,5.3115,8.13,0.6104,-0.5493,-0.6104,31.0529,9.3988,149.5514,0.1462,-0.2367,0.9323,0.231,5.2685,-4.9239,6.7566,0.2441,-0.1831,0.3662,-35.9308,-34.0027,-2.4664,-0.2889,-0.2844,0.0706,0.9114,-9.7713,0.0144,-0.2632,0.4883,0.0,-0.061,177.1655,88.385,113.2306,0.4088,-0.589,0.3983,-0.5721,0,0,0,0,0,0,0,0,0,0,0,0,0,0,0,0,0,0,0,0,0,0,0,0,0,0,0,0,0,0,0,0,0,0,0,0
1777280469.7786448,10891,0,0.0,0.0,0.0,0.0,0.0,0.0,0.0,0.0,0.0,0.0,0.0,0.0,0.0,0.0,0.0,0.0,0.0,0.0,0.0,0.0,0.0,0.0,0.0,0.0,0.0,0.0,0.0,671.1143798828125,568.3275146484375,1120.9560546875,921.64892578125,592.2860717773438,1129.6500244140625,718.2049560546875,390.781005859375,1165.3310546875,879.2587280273438,384.94830322265625,1166.9727783203125,629.5638427734375,452.7941589355469,861.5399780273438,677.9269409179688,470.11529541015625,601.6561279296875,676.7023315429688,405.7856750488281,437.3945617675781,712.8394165039062,381.2274169921875,242.02325439453125,780.7017211914062,282.8991394042969,165.14971923828125,735.1906127929688,548.51953125,180.38807678222656,1002.021240234375,578.3919677734375,838.337158203125,965.4722290039062,600.1067504882812,607.4618530273438,977.10107421875,566.3455810546875,477.41876220703125,933.3258056640625,530.747314453125,267.9707946777344,846.0509033203125,475.6785888671875,200.4978790283203,987.6345825195312,701.97265625,196.30995178222656,1.1245,-1.5791,9.7426,0.9766,-0.1221,-0.5493,-9.3549,-9.1736,137.0215,-0.1039,0.0464,0.9268,0.3579,5.3498,-8.1826,0.1053,0.3662,-0.4272,-0.1221,-89.2365,-33.7225,-10.2612,-0.651,-0.2657,0.142,0.6967,7.2687,-4.5268,4.8713,-0.2441,-0.2441,0.4272,-42.3468,-48.1531,149.8865,-0.453,0.2196,0.8604,0.0789,0.4211,0.5694,-9.4555,-0.6104,-0.3662,0.3052,174.8035,0.5988,5.4272,0.9978,-0.0471,0.0074,0.045,-1.7609,5.3163,8.1348,0.6104,-0.5493,-0.6104,31.0638,9.4043,149.5514,0.1463,-0.2368,0.9323,0.231,5.2685,-4.9239,6.7566,0.2441,-0.1831,0.3662,-35.9308,-34.0027,-2.4664,-0.2889,-0.2844,0.0706,0.9114,-9.7713,0.0144,-0.2632,0.4883,0.0,-0.061,177.1655,88.385,113.2306,0.4088,-0.589,0.3983,-0.5721,0,0,0,0,0,0,0,0,0,0,0,0,0,0,0,0,0,0,0,0,0,0,0,0,0,0,0,0,0,0,0,0,0,0,0,0
1777280469.797214,10894,0,0.0,0.0,0.0,0.0,0.0,0.0,0.0,0.0,0.0,0.0,0.0,0.0,0.0,0.0,0.0,0.0,0.0,0.0,0.0,0.0,0.0,0.0,0.0,0.0,0.0,0.0,0.0,670.9656982421875,565.2499389648438,1118.9664306640625,921.2976684570312,591.9439086914062,1126.6895751953125,720.1503295898438,388.7070617675781,1165.5118408203125,881.318359375,384.538818359375,1166.4906005859375,630.8784790039062,443.4729309082031,861.0939331054688,678.5901489257812,455.04705810546875,600.6856079101562,677.9454345703125,387.522216796875,437.6452331542969,714.286865234375,358.7606201171875,242.80487060546875,781.5187377929688,259.77667236328125,165.46986389160156,735.8646240234375,525.48046875,180.25682067871094,1002.666015625,573.25439453125,834.2468872070312,964.0115356445312,595.2680053710938,599.9658203125,976.7306518554688,580.107177734375,465.6094970703125,934.2798461914062,576.4968872070312,251.9927215576172,848.353271484375,529.0963745117188,176.9210662841797,982.4085083007812,757.6676635742188,205.23623657226562,1.1293,-1.5743,9.7426,0.9766,-0.1221,-0.6104,-9.3549,-9.1296,137.0215,-0.1036,0.0466,0.9268,0.3579,5.3498,-8.1826,0.1053,0.3052,-0.4883,-0.1831,-89.2365,-33.717,-10.2612,-0.651,-0.2657,0.142,0.6967,7.2687,-4.5315,4.8665,-0.2441,-0.3052,0.4883,-42.3523,-48.1476,149.8865,-0.453,0.2197,0.8604,0.0789,0.4163,0.5646,-9.4555,-0.5493,-0.3052,0.3052,174.8199,0.5658,5.4327,0.9979,-0.0471,0.0071,0.0449,-1.7562,5.3115,8.1348,0.5493,-0.5493,-0.6104,31.0858,9.4098,149.5569,0.1464,-0.2369,0.9323,0.2309,5.2685,-4.9191,6.7566,0.1831,-0.2441,0.3662,-35.9308,-33.9862,-2.4664,-0.2889,-0.2843,0.0705,0.9114,-9.7713,0.0191,-0.268,0.5493,-0.061,-0.061,177.16,88.385,113.2251,0.4089,-0.589,0.3983,-0.5721,0,0,0,0,0,0,0,0,0,0,0,0,0,0,0,0,0,0,0,0,0,0,0,0,0,0,0,0,0,0,0,0,0,0,0,0
1777280469.810814,10895,0,0.0,0.0,0.0,0.0,0.0,0.0,0.0,0.0,0.0,0.0,0.0,0.0,0.0,0.0,0.0,0.0,0.0,0.0,0.0,0.0,0.0,0.0,0.0,0.0,0.0,0.0,0.0,670.9935302734375,564.3872680664062,1118.2236328125,921.2452392578125,592.0867919921875,1125.537841796875,720.9641723632812,388.2098388671875,1165.4051513671875,882.1679077148438,384.6368713378906,1166.107421875,631.3775024414062,440.48736572265625,860.9212646484375,678.8976440429688,450.0372009277344,600.3788452148438,678.423095703125,381.4283752441406,437.75701904296875,714.79150390625,351.2670593261719,243.09141540527344,781.83837890625,252.07460021972656,165.55136108398438,736.1028442382812,517.7766723632812,180.22506713867188,1002.994384765625,571.5440673828125,832.4060668945312,963.4962768554688,593.2117919921875,597.2940063476562,976.5198974609375,584.1339721679688,462.0971374511719,934.515625,591.1491088867188,247.960693359375,849.5460815429688,546.1869506835938,170.63145446777344,979.5421752929688,775.3173828125,209.9073486328125,1.1197,-1.5743,9.7474,0.9766,-0.1221,-0.5493,-9.3549,-9.1296,137.0215,-0.1036,0.0466,0.9268,0.3579,5.3546,-8.1826,0.1005,0.3662,-0.4272,-0.1221,-89.2365,-33.717,-10.2612,-0.651,-0.2657,0.142,0.6967,7.2734,-4.5315,4.8665,-0.2441,-0.2441,0.4883,-42.3523,-48.1476,149.892,-0.453,0.2197,0.8604,0.0788,0.4163,0.5646,-9.4555,-0.5493,-0.3052,0.3052,174.8199,0.5658,5.4327,0.9979,-0.0471,0.0071,0.0449,-1.7562,5.3115,8.1348,0.5493,-0.5493,-0.6104,31.0858,9.4098,149.5569,0.1464,-0.2369,0.9323,0.2309,5.2685,-4.9191,6.7566,0.1831,-0.2441,0.3662,-35.9308,-33.9862,-2.4664,-0.2889,-0.2843,0.0705,0.9114,-9.7713,0.0191,-0.268,0.5493,-0.061,-0.061,177.16,88.385,113.2251,0.4089,-0.589,0.3983,-0.5721,0,0,0,0,0,0,0,0,0,0,0,0,0,0,0,0,0,0,0,0,0,0,0,0,0,0,0,0,0,0,0,0,0,0,0,0
1777280469.8248327,10897,0,0.0,0.0,0.0,0.0,0.0,0.0,0.0,0.0,0.0,0.0,0.0,0.0,0.0,0.0,0.0,0.0,0.0,0.0,0.0,0.0,0.0,0.0,0.0,0.0,0.0,0.0,0.0,671.1985473632812,562.9970092773438,1116.669189453125,921.2808837890625,592.7542724609375,1123.083984375,722.8084716796875,387.56005859375,1164.9222412109375,884.078857421875,385.18316650390625,1165.01904296875,632.4369506835938,434.8468933105469,860.5592041015625,679.6432495117188,440.11260986328125,599.8560180664062,679.4869995117188,369.271728515625,438.1057434082031,715.8401489257812,336.3057556152344,243.76580810546875,782.5899658203125,236.6804656982422,165.7425994873047,736.6038818359375,502.34478759765625,180.17970275878906,1003.748291015625,568.431640625,828.2033081054688,962.3779907226562,588.814697265625,591.8824462890625,975.8989868164062,591.2515869140625,455.7887878417969,934.6593017578125,618.3870849609375,241.8004913330078,852.2553100585938,577.9661254882812,160.65158081054688,972.129150390625,807.9133911132812,221.0679473876953,1.1197,-1.5743,9.7474,0.9766,-0.1221,-0.5493,-9.3549,-9.1296,137.0215,-0.1036,0.0466,0.9268,0.3579,5.3546,-8.1826,0.1005,0.3662,-0.4272,-0.1221,-89.2365,-33.717,-10.2612,-0.651,-0.2657,0.142,0.6967,7.2734,-4.5315,4.8665,-0.2441,-0.2441,0.4883,-42.3523,-48.1476,149.892,-0.453,0.2197,0.8604,0.0788,0.4163,0.5694,-9.4555,-0.6104,-0.3662,0.3662,174.8309,0.5493,5.4382,0.9979,-0.0472,0.0069,0.0448,-1.7514,5.3115,8.1348,0.5493,-0.5493,-0.6104,31.0968,9.4153,149.5569,0.1464,-0.237,0.9322,0.2309,5.2685,-4.9191,6.7566,0.1831,-0.2441,0.3662,-35.9308,-33.9862,-2.4664,-0.2889,-0.2843,0.0705,0.9114,-9.7713,0.0191,-0.268,0.5493,-0.061,-0.061,177.16,88.385,113.2251,0.4089,-0.589,0.3983,-0.5721,0,0,0,0,0,0,0,0,0,0,0,0,0,0,0,0,0,0,0,0,0,0,0,0,0,0,0,0,0,0,0,0,0,0,0,0
1777280469.842669,10899,0,0.0,0.0,0.0,0.0,0.0,0.0,0.0,0.0,0.0,0.0,0.0,0.0,0.0,0.0,0.0,0.0,0.0,0.0,0.0,0.0,0.0,0.0,0.0,0.0,0.0,0.0,0.0,671.6582641601562,562.1588745117188,1115.07763671875,921.57421875,593.905517578125,1120.5369873046875,724.8956909179688,387.42218017578125,1164.067138671875,886.2274780273438,386.1816101074219,1163.5323486328125,633.5300903320312,429.86895751953125,860.1844482421875,680.5475463867188,430.4791259765625,599.5045166015625,680.6738891601562,357.2691345214844,438.7025146484375,716.9151611328125,321.4304504394531,244.65464782714844,783.4853515625,221.31796264648438,166.14581298828125,737.1195068359375,486.91375732421875,180.14642333984375,1004.5203857421875,566.0834350585938,823.568359375,961.13232421875,584.5787353515625,586.5928955078125,974.962890625,597.0941772460938,450.4215393066406,934.1510009765625,641.4540405273438,237.79083251953125,854.9055786132812,604.6700439453125,154.0968017578125,962.6666259765625,835.2822875976562,232.92138671875,1.1245,-1.5743,9.7474,1.0376,-0.061,-0.6104,-9.3494,-9.1187,137.0215,-0.1035,0.0466,0.9268,0.3579,5.3498,-8.1826,0.1053,0.3052,-0.4272,-0.1221,-89.2365,-33.7115,-10.2612,-0.6511,-0.2657,0.1419,0.6967,7.2734,-4.5315,4.8665,-0.2441,-0.2441,0.4883,-42.3523,-48.1476,149.892,-0.453,0.2197,0.8604,0.0788,0.4211,0.5694,-9.4507,-0.6104,-0.3052,0.3052,174.8419,0.5328,5.4382,0.9979,-0.0472,0.0068,0.0447,-1.7562,5.3115,8.1348,0.4883,-0.5493,-0.6714,31.0968,9.4153,149.5569,0.1464,-0.237,0.9322,0.2309,5.2732,-4.9239,6.7471,0.2441,-0.2441,0.3662,-35.9363,-33.9642,-2.4664,-0.289,-0.2841,0.0705,0.9115,-9.7761,0.0144,-0.2632,0.4883,0.0,-0.061,177.149,88.385,113.2141,0.409,-0.5889,0.3984,-0.572,0,0,0,0,0,0,0,0,0,0,0,0,0,0,0,0,0,0,0,0,0,0,0,0,0,0,0,0,0,0,0,0,0,0,0,0
1777280469.857928,10900,0,0.0,0.0,0.0,0.0,0.0,0.0,0.0,0.0,0.0,0.0,0.0,0.0,0.0,0.0,0.0,0.0,0.0,0.0,0.0,0.0,0.0,0.0,0.0,0.0,0.0,0.0,0.0,672.00830078125,561.9847412109375,1114.287109375,921.8477783203125,594.6488647460938,1119.2664794921875,726.0111083984375,387.56121826171875,1163.4986572265625,887.372314453125,386.84161376953125,1162.6563720703125,634.0682983398438,427.7221374511719,859.9913940429688,681.048828125,425.85845947265625,599.4019775390625,681.29296875,351.38671875,439.1184387207031,717.4412231445312,314.0472717285156,245.21066284179688,783.9608764648438,213.66053771972656,166.5216064453125,737.3695068359375,479.2135009765625,180.12586975097656,1004.8672485351562,565.3212890625,821.1962280273438,960.4710083007812,582.7339477539062,584.0714111328125,974.3675537109375,599.5415649414062,448.06451416015625,933.60009765625,650.9317626953125,236.367431640625,856.0430297851562,615.3798217773438,151.98304748535156,957.2855834960938,846.4624633789062,238.25790405273438,1.1245,-1.5743,9.7378,0.9766,-0.1221,-0.6104,-9.3494,-9.1022,137.0215,-0.1033,0.0466,0.9268,0.3579,5.345,-8.1826,0.1053,0.3052,-0.4883,-0.1831,-89.2365,-33.7115,-10.2612,-0.6511,-0.2657,0.1419,0.6967,7.2639,-4.522,4.8713,-0.3052,-0.3052,0.4272,-42.3633,-48.1366,149.892,-0.4529,0.2198,0.8604,0.0788,0.4211,0.5742,-9.4507,-0.6104,-0.3662,0.3052,174.8529,0.5109,5.4437,0.9979,-0.0472,0.0066,0.0446,-1.7562,5.3115,8.1348,0.5493,-0.5493,-0.5493,31.1078,9.4208,149.5569,0.1465,-0.2371,0.9322,0.2308,5.2685,-4.9144,6.7614,0.2441,-0.3052,0.3662,-35.9363,-33.9532,-2.4609,-0.289,-0.284,0.0705,0.9115,-9.7665,0.0191,-0.268,0.4272,0.0,-0.061,177.149,88.385,113.2086,0.409,-0.5889,0.3985,-0.572,0,0,0,0,0,0,0,0,0,0,0,0,0,0,0,0,0,0,0,0,0,0,0,0,0,0,0,0,0,0,0,0,0,0,0,0
1777280469.8721242,10901,0,0.0,0.0,0.0,0.0,0.0,0.0,0.0,0.0,0.0,0.0,0.0,0.0,0.0,0.0,0.0,0.0,0.0,0.0,0.0,0.0,0.0,0.0,0.0,0.0,0.0,0.0,0.0,672.4527587890625,561.99169921875,1113.5093994140625,922.2230224609375,595.4951782226562,1118.0162353515625,727.1634521484375,387.8448181152344,1162.8377685546875,888.5540161132812,387.6026306152344,1161.7034912109375,634.5891723632812,425.85528564453125,859.7916259765625,681.5753784179688,421.4282531738281,599.3463745117188,681.9124145507812,345.6240234375,439.622314453125,717.9428100585938,306.71258544921875,245.8575897216797,784.4287719726562,206.02737426757812,167.07070922851562,737.6060180664062,471.52947998046875,180.09681701660156,1005.1641235351562,564.8910522460938,818.8472290039062,959.7957153320312,581.1771240234375,581.6701049804688,973.6890869140625,601.6802978515625,445.90374755859375,932.850341796875,658.833740234375,235.1881866455078,856.999267578125,623.9772338867188,150.53720092773438,951.569091796875,855.76318359375,242.70578002929688,1.1245,-1.5743,9.7426,0.9766,-0.1221,-0.5493,-9.3494,-9.0857,137.0215,-0.1032,0.0467,0.9268,0.358,5.3546,-8.1778,0.1101,0.3052,-0.5493,-0.1221,-89.2365,-33.7115,-10.2612,-0.6511,-0.2657,0.1419,0.6967,7.2639,-4.522,4.8713,-0.3052,-0.3052,0.4272,-42.3633,-48.1366,149.892,-0.4529,0.2198,0.8604,0.0788,0.4211,0.5742,-9.4507,-0.6104,-0.3662,0.3052,174.8529,0.5109,5.4437,0.9979,-0.0472,0.0066,0.0446,-1.7562,5.3115,8.1348,0.5493,-0.5493,-0.5493,31.1078,9.4208,149.5569,0.1465,-0.2371,0.9322,0.2308,5.2685,-4.9144,6.7614,0.2441,-0.3052,0.3662,-35.9363,-33.9532,-2.4609,-0.289,-0.284,0.0705,0.9115,-9.7665,0.0191,-0.268,0.4272,0.0,-0.061,177.149,88.385,113.2086,0.409,-0.5889,0.3985,-0.572,0,0,0,0,0,0,0,0,0,0,0,0,0,0,0,0,0,0,0,0,0,0,0,0,0,0,0,0,0,0,0,0,0,0,0,0
1777280469.8882835,10902,0,0.0,0.0,0.0,0.0,0.0,0.0,0.0,0.0,0.0,0.0,0.0,0.0,0.0,0.0,0.0,0.0,0.0,0.0,0.0,0.0,0.0,0.0,0.0,0.0,0.0,0.0,0.0,673.00244140625,562.1907348632812,1112.750732421875,922.7122192382812,596.4371948242188,1116.7987060546875,728.3444213867188,388.2752685546875,1162.0877685546875,889.7647705078125,388.4591979980469,1160.68408203125,635.0848999023438,424.3060607910156,859.5811767578125,682.1207885742188,417.24114990234375,599.3316040039062,682.5172729492188,340.01470947265625,440.2194519042969,718.4049682617188,299.4350891113281,246.60728454589844,784.8655395507812,198.42515563964844,167.83078002929688,737.8232421875,463.86297607421875,180.05523681640625,1005.3958129882812,564.8255004882812,816.5653076171875,959.1190185546875,579.9744873046875,579.4140625,972.9347534179688,603.5191650390625,443.9215393066406,931.923095703125,665.0647583007812,234.1471405029297,857.7633056640625,630.2735595703125,149.67092895507812,945.6209716796875,863.1027221679688,245.92259216308594,1.1245,-1.5743,9.7426,0.9766,-0.1221,-0.5493,-9.3494,-9.0857,137.0215,-0.1032,0.0467,0.9268,0.358,5.3546,-8.1778,0.1101,0.3052,-0.5493,-0.1221,-89.2365,-33.7115,-10.2612,-0.6511,-0.2657,0.1419,0.6967,7.2734,-4.5268,4.8761,-0.2441,-0.2441,0.4883,-42.3633,-48.1366,149.8975,-0.4529,0.2198,0.8604,0.0788,0.4211,0.5694,-9.4507,-0.6104,-0.3662,0.3052,174.8584,0.4944,5.4492,0.9979,-0.0473,0.0064,0.0446,-1.7562,5.3115,8.1396,0.5493,-0.6104,-0.5493,31.1188,9.4263,149.5624,0.1466,-0.2372,0.9322,0.2308,5.2685,-4.9144,6.7614,0.2441,-0.3052,0.3662,-35.9363,-33.9532,-2.4609,-0.289,-0.284,0.0705,0.9115,-9.7665,0.0191,-0.268,0.4272,0.0,-0.061,177.149,88.385,113.2086,0.409,-0.5889,0.3985,-0.572,0,0,0,0,0,0,0,0,0,0,0,0,0,0,0,0,0,0,0,0,0,0,0,0,0,0,0,0,0,0,0,0,0,0,0,0
1777280469.9042788,10904,0,0.0,0.0,0.0,0.0,0.0,0.0,0.0,0.0,0.0,0.0,0.0,0.0,0.0,0.0,0.0,0.0,0.0,0.0,0.0,0.0,0.0,0.0,0.0,0.0,0.0,0.0,0.0,674.4569702148438,563.1951293945312,1111.3134765625,924.0758666992188,598.5787353515625,1114.5062255859375,730.760986328125,389.5762634277344,1160.3402099609375,892.2446899414062,390.4342956542969,1158.4931640625,635.9767456054688,422.29534912109375,859.1067504882812,683.2398071289062,409.8333740234375,599.3812866210938,683.6234741210938,329.4000549316406,441.70794677734375,719.1494750976562,285.0852355957031,248.4608154296875,785.5587768554688,183.33656311035156,170.0807647705078,738.1851806640625,448.570068359375,179.92628479003906,1005.6226196289062,565.864501953125,812.3677368164062,957.8250732421875,578.8184814453125,575.419189453125,971.2628173828125,606.3548583984375,440.4295349121094,929.71337890625,672.4365234375,232.13197326660156,858.801025390625,635.6956787109375,149.36070251464844,933.5952758789062,871.9335327148438,247.65432739257812,1.1245,-1.5743,9.7426,0.9766,-0.1221,-0.6104,-9.3494,-9.0747,137.0215,-0.1031,0.0467,0.9268,0.358,5.3546,-8.1778,0.1053,0.3662,-0.4883,-0.1221,-89.2365,-33.7061,-10.2612,-0.6511,-0.2657,0.1419,0.6967,7.2734,-4.5268,4.8713,-0.2441,-0.2441,0.4883,-42.3633,-48.1366,149.8975,-0.4529,0.2198,0.8604,0.0788,0.4211,0.5742,-9.4555,-0.6104,-0.3052,0.3052,174.8694,0.4779,5.4492,0.9979,-0.0473,0.0063,0.0445,-1.7609,5.3115,8.1348,0.5493,-0.5493,-0.5493,31.1298,9.4318,149.5624,0.1466,-0.2373,0.9322,0.2307,5.2685,-4.9239,6.7614,0.2441,-0.1831,0.3662,-35.9363,-33.9368,-2.4609,-0.289,-0.2839,0.0705,0.9115,-9.7713,0.0144,-0.268,0.5493,0.061,-0.061,177.1381,88.385,113.2031,0.4091,-0.5888,0.3985,-0.5719,0,0,0,0,0,0,0,0,0,0,0,0,0,0,0,0,0,0,0,0,0,0,0,0,0,0,0,0,0,0,0,0,0,0,0,0
1777280469.9235287,10907,0,0.0,0.0,0.0,0.0,0.0,0.0,0.0,0.0,0.0,0.0,0.0,0.0,0.0,0.0,0.0,0.0,0.0,0.0,0.0,0.0,0.0,0.0,0.0,0.0,0.0,0.0,0.0,677.6378784179688,566.2366943359375,1109.43115234375,927.1945190429688,602.3213500976562,1111.5635986328125,734.42236328125,392.5663146972656,1157.223388671875,896.0177612304688,393.94580078125,1155.0267333984375,637.0501098632812,422.37713623046875,858.1563110351562,684.8702392578125,402.12689208984375,599.4082641601562,684.8351440429688,315.5865783691406,444.7077331542969,719.6156005859375,264.2447814941406,252.308837890625,785.9785766601562,161.0444793701172,175.35450744628906,738.5508422851562,425.6224060058594,179.65834045410156,1005.3540649414062,570.2819213867188,807.4813842773438,956.3389892578125,580.4356689453125,570.933349609375,968.8154907226562,608.9061279296875,436.2550354003906,926.4974365234375,672.1605224609375,228.63702392578125,859.7955322265625,628.0250854492188,151.52088928222656,917.9987182617188,872.4741821289062,237.72720336914062,1.1293,-1.5743,9.7474,0.9766,-0.1221,-0.6104,-9.3494,-9.0472,137.027,-0.1029,0.0468,0.9269,0.3579,5.3546,-8.1778,0.1053,0.2441,-0.4272,-0.1831,-89.2365,-33.7006,-10.2612,-0.6511,-0.2656,0.1419,0.6967,7.2687,-4.522,4.8713,-0.2441,-0.2441,0.4883,-42.3688,-48.1311,149.8975,-0.4529,0.2199,0.8604,0.0788,0.4163,0.5646,-9.4507,-0.6104,-0.3052,0.3662,174.8804,0.4614,5.4547,0.9979,-0.0474,0.0061,0.0444,-1.7609,5.3115,8.13,0.5493,-0.5493,-0.6104,31.1517,9.4373,149.5679,0.1467,-0.2374,0.9322,0.2306,5.2685,-4.9191,6.7566,0.2441,-0.2441,0.3662,-35.9363,-33.9148,-2.4609,-0.2891,-0.2837,0.0704,0.9116,-9.7713,0.0144,-0.2632,0.4883,0.0,0.0,177.1326,88.385,113.1976,0.4091,-0.5888,0.3986,-0.5719,0,0,0,0,0,0,0,0,0,0,0,0,0,0,0,0,0,0,0,0,0,0,0,0,0,0,0,0,0,0,0,0,0,0,0,0
1777280469.9361145,10907,1,0.0,0.0,0.0,0.0,0.0,0.0,0.0,0.0,0.0,0.0,0.0,0.0,0.0,0.0,0.0,0.0,0.0,0.0,0.0,0.0,0.0,0.0,0.0,0.0,0.0,0.0,0.0,677.6378784179688,566.2366943359375,1109.43115234375,927.1945190429688,602.3213500976562,1111.5635986328125,734.42236328125,392.5663146972656,1157.223388671875,896.0177612304688,393.94580078125,1155.0267333984375,637.0501098632812,422.37713623046875,858.1563110351562,684.8702392578125,402.12689208984375,599.4082641601562,684.8351440429688,315.5865783691406,444.7077331542969,719.6156005859375,264.2447814941406,252.308837890625,785.9785766601562,161.0444793701172,175.35450744628906,738.5508422851562,425.6224060058594,179.65834045410156,1005.3540649414062,570.2819213867188,807.4813842773438,956.3389892578125,580.4356689453125,570.933349609375,968.8154907226562,608.9061279296875,436.2550354003906,926.4974365234375,672.1605224609375,228.63702392578125,859.7955322265625,628.0250854492188,151.52088928222656,917.9987182617188,872.4741821289062,237.72720336914062,1.1293,-1.5743,9.7474,0.9766,-0.1221,-0.6104,-9.3494,-9.0472,137.027,-0.1029,0.0468,0.9269,0.3579,5.3546,-8.1778,0.1053,0.2441,-0.4272,-0.1831,-89.2365,-33.7006,-10.2612,-0.6511,-0.2656,0.1419,0.6967,7.2687,-4.522,4.8713,-0.2441,-0.2441,0.4883,-42.3688,-48.1311,149.8975,-0.4529,0.2199,0.8604,0.0788,0.4163,0.5646,-9.4507,-0.6104,-0.3052,0.3662,174.8804,0.4614,5.4547,0.9979,-0.0474,0.0061,0.0444,-1.7609,5.3115,8.13,0.5493,-0.5493,-0.6104,31.1517,9.4373,149.5679,0.1467,-0.2374,0.9322,0.2306,5.2685,-4.9191,6.7566,0.2441,-0.2441,0.3662,-35.9363,-33.9148,-2.4609,-0.2891,-0.2837,0.0704,0.9116,-9.7713,0.0144,-0.2632,0.4883,0.0,0.0,177.1326,88.385,113.1976,0.4091,-0.5888,0.3986,-0.5719,0,0,0,0,0,0,0,0,0,0,0,0,0,0,0,0,0,0,0,0,0,0,0,0,0,0,0,0,0,0,0,0,0,0,0,0
1777280469.9395237,10909,0,0.0,0.0,0.0,0.0,0.0,0.0,0.0,0.0,0.0,0.0,0.0,0.0,0.0,0.0,0.0,0.0,0.0,0.0,0.0,0.0,0.0,0.0,0.0,0.0,0.0,0.0,0.0,680.4581298828125,569.2037353515625,1108.40771484375,930.0083618164062,605.0802612304688,1110.019287109375,736.8329467773438,395.1466979980469,1154.9501953125,898.5169677734375,396.5578308105469,1152.7618408203125,637.663330078125,424.646728515625,857.2733764648438,685.8132934570312,400.0661315917969,599.1615600585938,685.240478515625,308.33984375,447.2356872558594,719.3712768554688,251.0718994140625,255.76385498046875,785.9005737304688,146.43133544921875,180.0674285888672,738.7339477539062,410.2432861328125,179.5331573486328,1004.8883056640625,574.7593383789062,805.3884887695312,955.9192504882812,583.5309448242188,569.037109375,967.7588500976562,609.9413452148438,434.21484375,925.1953125,666.6273803710938,226.0896453857422,860.4763793945312,616.1986083984375,154.09942626953125,911.3041381835938,866.825927734375,225.00302124023438,1.1293,-1.5743,9.7474,1.0376,-0.1221,-0.5493,-9.3494,-9.0472,137.027,-0.1029,0.0468,0.9269,0.3579,5.3498,-8.1826,0.1053,0.2441,-0.4883,-0.1221,-89.2365,-33.7006,-10.2612,-0.6511,-0.2656,0.1419,0.6967,7.2734,-4.5268,4.8761,-0.3052,-0.1831,0.4883,-42.3743,-48.1256,149.903,-0.4528,0.22,0.8604,0.0787,0.4211,0.5694,-9.4555,-0.6104,-0.3052,0.3052,174.8914,0.4449,5.4602,0.9979,-0.0474,0.006,0.0443,-1.7562,5.3163,8.1348,0.5493,-0.5493,-0.5493,31.1627,9.4427,149.5679,0.1468,-0.2375,0.9321,0.2306,5.2685,-4.9191,6.7566,0.2441,-0.2441,0.3662,-35.9363,-33.9148,-2.4609,-0.2891,-0.2837,0.0704,0.9116,-9.7713,0.0144,-0.2632,0.4883,0.0,0.0,177.1326,88.385,113.1976,0.4091,-0.5888,0.3986,-0.5719,0,0,0,0,0,0,0,0,0,0,0,0,0,0,0,0,0,0,0,0,0,0,0,0,0,0,0,0,0,0,0,0,0,0,0,0
1777280469.9528623,10909,1,0.0,0.0,0.0,0.0,0.0,0.0,0.0,0.0,0.0,0.0,0.0,0.0,0.0,0.0,0.0,0.0,0.0,0.0,0.0,0.0,0.0,0.0,0.0,0.0,0.0,0.0,0.0,680.4581298828125,569.2037353515625,1108.40771484375,930.0083618164062,605.0802612304688,1110.019287109375,736.8329467773438,395.1466979980469,1154.9501953125,898.5169677734375,396.5578308105469,1152.7618408203125,637.663330078125,424.646728515625,857.2733764648438,685.8132934570312,400.0661315917969,599.1615600585938,685.240478515625,308.33984375,447.2356872558594,719.3712768554688,251.0718994140625,255.76385498046875,785.9005737304688,146.43133544921875,180.0674285888672,738.7339477539062,410.2432861328125,179.5331573486328,1004.8883056640625,574.7593383789062,805.3884887695312,955.9192504882812,583.5309448242188,569.037109375,967.7588500976562,609.9413452148438,434.21484375,925.1953125,666.6273803710938,226.0896453857422,860.4763793945312,616.1986083984375,154.09942626953125,911.3041381835938,866.825927734375,225.00302124023438,1.1293,-1.5743,9.7474,1.0376,-0.1221,-0.5493,-9.3494,-9.0472,137.027,-0.1029,0.0468,0.9269,0.3579,5.3498,-8.1826,0.1053,0.2441,-0.4883,-0.1221,-89.2365,-33.7006,-10.2612,-0.6511,-0.2656,0.1419,0.6967,7.2734,-4.5268,4.8761,-0.3052,-0.1831,0.4883,-42.3743,-48.1256,149.903,-0.4528,0.22,0.8604,0.0787,0.4211,0.5694,-9.4555,-0.6104,-0.3052,0.3052,174.8914,0.4449,5.4602,0.9979,-0.0474,0.006,0.0443,-1.7562,5.3163,8.1348,0.5493,-0.5493,-0.5493,31.1627,9.4427,149.5679,0.1468,-0.2375,0.9321,0.2306,5.2685,-4.9191,6.7566,0.2441,-0.2441,0.3662,-35.9363,-33.9148,-2.4609,-0.2891,-0.2837,0.0704,0.9116,-9.7713,0.0144,-0.2632,0.4883,0.0,0.0,177.1326,88.385,113.1976,0.4091,-0.5888,0.3986,-0.5719,0,0,0,0,0,0,0,0,0,0,0,0,0,0,0,0,0,0,0,0,0,0,0,0,0,0,0,0,0,0,0,0,0,0,0,0
1777280469.970064,10911,0,0.0,0.0,0.0,0.0,0.0,0.0,0.0,0.0,0.0,0.0,0.0,0.0,0.0,0.0,0.0,0.0,0.0,0.0,0.0,0.0,0.0,0.0,0.0,0.0,0.0,0.0,0.0,683.8034057617188,572.760498046875,1107.6031494140625,933.35546875,607.973876953125,1108.8568115234375,739.201416015625,398.06134033203125,1152.6566162109375,900.984130859375,399.29937744140625,1150.663330078125,638.3303833007812,428.66607666015625,856.1318359375,686.5206909179688,401.07281494140625,598.527099609375,685.2569580078125,303.2312316894531,450.2047424316406,718.5994262695312,238.90847778320312,260.12188720703125,785.71923828125,132.08372497558594,185.78506469726562,738.9190063476562,394.8371887207031,179.54995727539062,1004.3945922851562,579.9271240234375,804.2315063476562,956.1167602539062,587.7843017578125,568.01123046875,967.5913696289062,610.8182983398438,432.8499450683594,924.9194946289062,658.8125,223.7445526123047,861.2683715820312,602.3147583007812,157.0816650390625,908.1485595703125,858.304443359375,210.7682342529297,1.1245,-1.5791,9.7474,0.9766,-0.1221,-0.6104,-9.3439,-9.0143,137.027,-0.1026,0.0469,0.9269,0.358,5.3546,-8.1826,0.1101,0.3052,-0.4272,-0.1221,-89.2365,-33.6951,-10.2612,-0.6511,-0.2656,0.1418,0.6967,7.2782,-4.5268,4.8761,-0.2441,-0.1831,0.4883,-42.3798,-48.1201,149.9084,-0.4528,0.2201,0.8604,0.0787,0.4211,0.5694,-9.4603,-0.5493,-0.3662,0.3052,174.9078,0.412,5.4657,0.9979,-0.0475,0.0057,0.0442,-1.7562,5.3211,8.1348,0.5493,-0.4883,-0.6104,31.1737,9.4482,149.5679,0.1468,-0.2376,0.9321,0.2306,5.2685,-4.9191,6.7614,0.1831,-0.2441,0.4272,-35.9363,-33.9093,-2.4609,-0.2891,-0.2837,0.0704,0.9116,-9.7713,0.0191,-0.268,0.4272,0.0,-0.061,177.1326,88.385,113.1921,0.4092,-0.5888,0.3986,-0.5719,0,0,0,0,0,0,0,0,0,0,0,0,0,0,0,0,0,0,0,0,0,0,0,0,0,0,0,0,0,0,0,0,0,0,0,0
1777280469.9725826,10912,0,0.0,0.0,0.0,0.0,0.0,0.0,0.0,0.0,0.0,0.0,0.0,0.0,0.0,0.0,0.0,0.0,0.0,0.0,0.0,0.0,0.0,0.0,0.0,0.0,0.0,0.0,0.0,685.6473999023438,574.6959228515625,1107.2900390625,935.19775390625,609.44873046875,1108.42529296875,740.37158203125,399.5973815917969,1151.5418701171875,902.2059326171875,400.69281005859375,1149.7071533203125,638.731689453125,431.293212890625,855.4574584960938,686.7445068359375,402.8560791015625,598.0335693359375,685.0963134765625,301.6613464355469,451.86181640625,717.9898681640625,233.3911895751953,262.701904296875,785.6425170898438,125.07660675048828,189.12989807128906,739.00634765625,387.1803894042969,179.6146240234375,1004.2074584960938,582.5950927734375,803.9608154296875,956.4502563476562,590.1734619140625,567.7975463867188,967.8987426757812,611.2425537109375,432.4298095703125,925.1598510742188,654.4434204101562,222.74798583984375,861.7103881835938,595.1752319335938,158.5694580078125,907.6581420898438,853.30078125,204.0131072998047,1.1245,-1.5791,9.7474,0.9766,-0.1221,-0.6104,-9.3439,-9.0143,137.027,-0.1026,0.0469,0.9269,0.358,5.3546,-8.1826,0.1101,0.3052,-0.4272,-0.1221,-89.2365,-33.6951,-10.2612,-0.6511,-0.2656,0.1418,0.6967,7.2782,-4.5268,4.8761,-0.2441,-0.1831,0.4883,-42.3798,-48.1201,149.9084,-0.4528,0.2201,0.8604,0.0787,0.4211,0.5694,-9.4603,-0.5493,-0.3662,0.3052,174.9078,0.412,5.4657,0.9979,-0.0475,0.0057,0.0442,-1.7562,5.3211,8.1348,0.5493,-0.4883,-0.6104,31.1737,9.4482,149.5679,0.1468,-0.2376,0.9321,0.2306,5.2685,-4.9191,6.7614,0.1831,-0.2441,0.4272,-35.9363,-33.9093,-2.4609,-0.2891,-0.2837,0.0704,0.9116,-9.7713,0.0191,-0.268,0.4272,0.0,-0.061,177.1326,88.385,113.1921,0.4092,-0.5888,0.3986,-0.5719,0,0,0,0,0,0,0,0,0,0,0,0,0,0,0,0,0,0,0,0,0,0,0,0,0,0,0,0,0,0,0,0,0,0,0,0
