Timestamp,Vicon_Frame_Num,Vicon_Recv_Timestamp,IMU_Recv_Timestamp,Planter_Recv_Timestamp,Vicon_Gap_Flag,Vicon_Gap_Size,IMU_Stale_ms,Planter_Stale_ms,IMU_Matched_Flag,Planter_Matched_Flag,Vicon_Root_X,Vicon_Root_Y,Vicon_Root_Z,Vicon_L_Femur_X,Vicon_L_Femur_Y,Vicon_L_Femur_Z,Vicon_L_Tibia_X,Vicon_L_Tibia_Y,Vicon_L_Tibia_Z,Vicon_L_Foot_X,Vicon_L_Foot_Y,Vicon_L_Foot_Z,Vicon_L_Toe_X,Vicon_L_Toe_Y,Vicon_L_Toe_Z,Vicon_R_Femur_X,Vicon_R_Femur_Y,Vicon_R_Femur_Z,Vicon_R_Tibia_X,Vicon_R_Tibia_Y,Vicon_R_Tibia_Z,Vicon_R_Foot_X,Vicon_R_Foot_Y,Vicon_R_Foot_Z,Vicon_R_Toe_X,Vicon_R_Toe_Y,Vicon_R_Toe_Z,Vicon_LASI_X,Vicon_LASI_Y,Vicon_LASI_Z,Vicon_RASI_X,Vicon_RASI_Y,Vicon_RASI_Z,Vicon_LPSI_X,Vicon_LPSI_Y,Vicon_LPSI_Z,Vicon_RPSI_X,Vicon_RPSI_Y,Vicon_RPSI_Z,Vicon_LTHI_X,Vicon_LTHI_Y,Vicon_LTHI_Z,Vicon_LKNE_X,Vicon_LKNE_Y,Vicon_LKNE_Z,Vicon_LTIB_X,Vicon_LTIB_Y,Vicon_LTIB_Z,Vicon_LANK_X,Vicon_LANK_Y,Vicon_LANK_Z,Vicon_LHEE_X,Vicon_LHEE_Y,Vicon_LHEE_Z,Vicon_LTOE_X,Vicon_LTOE_Y,Vicon_LTOE_Z,Vicon_RTHI_X,Vicon_RTHI_Y,Vicon_RTHI_Z,Vicon_RKNE_X,Vicon_RKNE_Y,Vicon_RKNE_Z,Vicon_RTIB_X,Vicon_RTIB_Y,Vicon_RTIB_Z,Vicon_RANK_X,Vicon_RANK_Y,Vicon_RANK_Z,Vicon_RHEE_X,Vicon_RHEE_Y,Vicon_RHEE_Z,Vicon_RTOE_X,Vicon_RTOE_Y,Vicon_RTOE_Z,IMU_Trunk_Acc_X,IMU_Trunk_Acc_Y,IMU_Trunk_Acc_Z,IMU_Trunk_Gyro_X,IMU_Trunk_Gyro_Y,IMU_Trunk_Gyro_Z,IMU_Trunk_Roll,IMU_Trunk_Pitch,IMU_Trunk_Yaw,IMU_Trunk_Quat_x,IMU_Trunk_Quat_y,IMU_Trunk_Quat_z,IMU_Trunk_Quat_w,IMU_L_Femur_Acc_X,IMU_L_Femur_Acc_Y,IMU_L_Femur_Acc_Z,IMU_L_Femur_Gyro_X,IMU_L_Femur_Gyro_Y,IMU_L_Femur_Gyro_Z,IMU_L_Femur_Roll,IMU_L_Femur_Pitch,IMU_L_Femur_Yaw,IMU_L_Femur_Quat_x,IMU_L_Femur_Quat_y,IMU_L_Femur_Quat_z,IMU_L_Femur_Quat_w,IMU_L_Tibia_Acc_X,IMU_L_Tibia_Acc_Y,IMU_L_Tibia_Acc_Z,IMU_L_Tibia_Gyro_X,IMU_L_Tibia_Gyro_Y,IMU_L_Tibia_Gyro_Z,IMU_L_Tibia_Roll,IMU_L_Tibia_Pitch,IMU_L_Tibia_Yaw,IMU_L_Tibia_Quat_x,IMU_L_Tibia_Quat_y,IMU_L_Tibia_Quat_z,IMU_L_Tibia_Quat_w,IMU_L_Foot_Acc_X,IMU_L_Foot_Acc_Y,IMU_L_Foot_Acc_Z,IMU_L_Foot_Gyro_X,IMU_L_Foot_Gyro_Y,IMU_L_Foot_Gyro_Z,IMU_L_Foot_Roll,IMU_L_Foot_Pitch,IMU_L_Foot_Yaw,IMU_L_Foot_Quat_x,IMU_L_Foot_Quat_y,IMU_L_Foot_Quat_z,IMU_L_Foot_Quat_w,IMU_R_Femur_Acc_X,IMU_R_Femur_Acc_Y,IMU_R_Femur_Acc_Z,IMU_R_Femur_Gyro_X,IMU_R_Femur_Gyro_Y,IMU_R_Femur_Gyro_Z,IMU_R_Femur_Roll,IMU_R_Femur_Pitch,IMU_R_Femur_Yaw,IMU_R_Femur_Quat_x,IMU_R_Femur_Quat_y,IMU_R_Femur_Quat_z,IMU_R_Femur_Quat_w,IMU_R_Tibia_Acc_X,IMU_R_Tibia_Acc_Y,IMU_R_Tibia_Acc_Z,IMU_R_Tibia_Gyro_X,IMU_R_Tibia_Gyro_Y,IMU_R_Tibia_Gyro_Z,IMU_R_Tibia_Roll,IMU_R_Tibia_Pitch,IMU_R_Tibia_Yaw,IMU_R_Tibia_Quat_x,IMU_R_Tibia_Quat_y,IMU_R_Tibia_Quat_z,IMU_R_Tibia_Quat_w,IMU_R_Foot_Acc_X,IMU_R_Foot_Acc_Y,IMU_R_Foot_Acc_Z,IMU_R_Foot_Gyro_X,IMU_R_Foot_Gyro_Y,IMU_R_Foot_Gyro_Z,IMU_R_Foot_Roll,IMU_R_Foot_Pitch,IMU_R_Foot_Yaw,IMU_R_Foot_Quat_x,IMU_R_Foot_Quat_y,IMU_R_Foot_Quat_z,IMU_R_Foot_Quat_w,Planter_Left_0,Planter_Left_1,Planter_Left_2,Planter_Left_3,Planter_Left_4,Planter_Left_5,Planter_Left_6,Planter_Left_7,Planter_Left_8,Planter_Left_9,Planter_Left_10,Planter_Left_11,Planter_Left_12,Planter_Left_13,Planter_Left_14,Planter_Left_15,Planter_Left_16,Planter_Left_17,Planter_Right_0,Planter_Right_1,Planter_Right_2,Planter_Right_3,Planter_Right_4,Planter_Right_5,Planter_Right_6,Planter_Right_7,Planter_Right_8,Planter_Right_9,Planter_Right_10,Planter_Right_11,Planter_Right_12,Planter_Right_13,Planter_Right_14,Planter_Right_15,Planter_Right_16,Planter_Right_17
1777364837.3063796,205,1777364832.7342563,,,0,0,,,0,0,0.0,0.0,0.0,0.0,0.0,0.0,0.0,0.0,0.0,0.0,0.0,0.0,0.0,0.0,0.0,0.0,0.0,0.0,0.0,0.0,0.0,0.0,0.0,0.0,0.0,0.0,0.0,0.0,0.0,0.0,0.0,0.0,0.0,0.0,0.0,0.0,0.0,0.0,0.0,0.0,0.0,0.0,0.0,0.0,0.0,0.0,0.0,0.0,0.0,0.0,0.0,0.0,0.0,0.0,0.0,0.0,0.0,0.0,0.0,0.0,0.0,0.0,0.0,0.0,0.0,0.0,0.0,0.0,0.0,0.0,0.0,0.0,0.0,0.0,0.0,0.0,0.0,0.0,0.0,0.0,0.0,0.0,0.0,0.0,0.0,0.0,0.0,1.0,0.0,0.0,0.0,0.0,0.0,0.0,0.0,0.0,0.0,0.0,0.0,0.0,1.0,0.0,0.0,0.0,0.0,0.0,0.0,0.0,0.0,0.0,0.0,0.0,0.0,1.0,0.0,0.0,0.0,0.0,0.0,0.0,0.0,0.0,0.0,0.0,0.0,0.0,1.0,0.0,0.0,0.0,0.0,0.0,0.0,0.0,0.0,0.0,0.0,0.0,0.0,1.0,0.0,0.0,0.0,0.0,0.0,0.0,0.0,0.0,0.0,0.0,0.0,0.0,1.0,0.0,0.0,0.0,0.0,0.0,0.0,0.0,0.0,0.0,0.0,0.0,0.0,1.0,0,0,0,0,0,0,0,0,0,0,0,0,0,0,0,0,0,0,0,0,0,0,0,0,0,0,0,0,0,0,0,0,0,0,0,0
1777364837.3063796,206,1777364832.7352605,,,0,0,,,0,0,0.0,0.0,0.0,0.0,0.0,0.0,0.0,0.0,0.0,0.0,0.0,0.0,0.0,0.0,0.0,0.0,0.0,0.0,0.0,0.0,0.0,0.0,0.0,0.0,0.0,0.0,0.0,728.9780883789062,595.1741943359375,1101.9482421875,980.3244018554688,598.6073608398438,1109.340576171875,761.325927734375,414.6123046875,1143.0831298828125,921.4501953125,395.5755310058594,1144.390869140625,671.4838256835938,473.92645263671875,844.7366333007812,724.5462646484375,454.549072265625,589.6945190429688,711.9454956054688,370.2187194824219,434.1919860839844,739.234130859375,307.9712219238281,248.06948852539062,796.558349609375,195.8597412109375,173.53256225585938,757.7225341796875,463.0044860839844,176.60609436035156,1051.7760009765625,579.1092529296875,807.7377319335938,1004.2704467773438,609.837646484375,573.6557006835938,1020.7276000976562,638.6270141601562,439.248046875,983.6256103515625,704.1334838867188,229.4904327392578,911.7664794921875,667.0492553710938,148.53378295898438,981.77587890625,906.3143920898438,242.2251434326172,0.0,0.0,0.0,0.0,0.0,0.0,0.0,0.0,0.0,0.0,0.0,0.0,1.0,0.0,0.0,0.0,0.0,0.0,0.0,0.0,0.0,0.0,0.0,0.0,0.0,1.0,0.0,0.0,0.0,0.0,0.0,0.0,0.0,0.0,0.0,0.0,0.0,0.0,1.0,0.0,0.0,0.0,0.0,0.0,0.0,0.0,0.0,0.0,0.0,0.0,0.0,1.0,0.0,0.0,0.0,0.0,0.0,0.0,0.0,0.0,0.0,0.0,0.0,0.0,1.0,0.0,0.0,0.0,0.0,0.0,0.0,0.0,0.0,0.0,0.0,0.0,0.0,1.0,0.0,0.0,0.0,0.0,0.0,0.0,0.0,0.0,0.0,0.0,0.0,0.0,1.0,0,0,0,0,0,0,0,0,0,0,0,0,0,0,0,0,0,0,0,0,0,0,0,0,0,0,0,0,0,0,0,0,0,0,0,0
1777364837.3063796,207,1777364832.747264,,,0,0,,,0,0,0.0,0.0,0.0,0.0,0.0,0.0,0.0,0.0,0.0,0.0,0.0,0.0,0.0,0.0,0.0,0.0,0.0,0.0,0.0,0.0,0.0,0.0,0.0,0.0,0.0,0.0,0.0,730.0611572265625,595.6455688476562,1101.117919921875,981.420654296875,600.186279296875,1108.1890869140625,763.234130859375,415.2100830078125,1141.91748046875,923.4620361328125,396.9190979003906,1143.1778564453125,672.21923828125,473.4652099609375,844.1453247070312,725.4359741210938,451.8874206542969,589.3900146484375,712.63720703125,365.6825256347656,434.9067077636719,739.5948486328125,301.2588806152344,249.28961181640625,796.766357421875,188.55433654785156,175.3232421875,757.8082275390625,455.53900146484375,176.45901489257812,1052.326171875,580.6055908203125,805.9450073242188,1004.4279174804688,610.1895751953125,571.8447875976562,1020.5531616210938,639.6217041015625,437.6519470214844,983.0823974609375,705.0293579101562,228.38780212402344,912.236572265625,665.8610229492188,149.1611328125,977.5728149414062,907.34765625,239.6490936279297,0.0,0.0,0.0,0.0,0.0,0.0,0.0,0.0,0.0,0.0,0.0,0.0,1.0,0.0,0.0,0.0,0.0,0.0,0.0,0.0,0.0,0.0,0.0,0.0,0.0,1.0,0.0,0.0,0.0,0.0,0.0,0.0,0.0,0.0,0.0,0.0,0.0,0.0,1.0,0.0,0.0,0.0,0.0,0.0,0.0,0.0,0.0,0.0,0.0,0.0,0.0,1.0,0.0,0.0,0.0,0.0,0.0,0.0,0.0,0.0,0.0,0.0,0.0,0.0,1.0,0.0,0.0,0.0,0.0,0.0,0.0,0.0,0.0,0.0,0.0,0.0,0.0,1.0,0.0,0.0,0.0,0.0,0.0,0.0,0.0,0.0,0.0,0.0,0.0,0.0,1.0,0,0,0,0,0,0,0,0,0,0,0,0,0,0,0,0,0,0,0,0,0,0,0,0,0,0,0,0,0,0,0,0,0,0,0,0
1777364837.3063796,208,1777364832.757784,,,0,0,,,0,0,0.0,0.0,0.0,0.0,0.0,0.0,0.0,0.0,0.0,0.0,0.0,0.0,0.0,0.0,0.0,0.0,0.0,0.0,0.0,0.0,0.0,0.0,0.0,0.0,0.0,0.0,0.0,731.251708984375,596.2865600585938,1100.34765625,982.6231079101562,601.8917236328125,1107.1151123046875,765.1923217773438,415.951171875,1140.7431640625,925.5206909179688,398.38330078125,1141.9930419921875,673.0155029296875,473.3146667480469,843.5372924804688,726.4197998046875,449.63995361328125,589.0661010742188,713.3528442382812,361.4002685546875,435.7109069824219,739.9343872070312,294.6466979980469,250.66526794433594,796.9400634765625,181.32281494140625,177.3912353515625,757.8714599609375,448.0818176269531,176.3038787841797,1052.8272705078125,582.4981689453125,804.3970336914062,1004.6649780273438,610.8780517578125,570.2525634765625,1020.3564453125,640.265380859375,436.1757507324219,982.4691772460938,704.4222412109375,227.20001220703125,912.5214233398438,662.706298828125,150.0535430908203,973.7027587890625,906.7903442382812,235.43484497070312,0.0,0.0,0.0,0.0,0.0,0.0,0.0,0.0,0.0,0.0,0.0,0.0,1.0,0.0,0.0,0.0,0.0,0.0,0.0,0.0,0.0,0.0,0.0,0.0,0.0,1.0,0.0,0.0,0.0,0.0,0.0,0.0,0.0,0.0,0.0,0.0,0.0,0.0,1.0,0.0,0.0,0.0,0.0,0.0,0.0,0.0,0.0,0.0,0.0,0.0,0.0,1.0,0.0,0.0,0.0,0.0,0.0,0.0,0.0,0.0,0.0,0.0,0.0,0.0,1.0,0.0,0.0,0.0,0.0,0.0,0.0,0.0,0.0,0.0,0.0,0.0,0.0,1.0,0.0,0.0,0.0,0.0,0.0,0.0,0.0,0.0,0.0,0.0,0.0,0.0,1.0,0,0,0,0,0,0,0,0,0,0,0,0,0,0,0,0,0,0,0,0,0,0,0,0,0,0,0,0,0,0,0,0,0,0,0,0
1777364837.3063796,209,1777364832.7697828,,,0,0,,,0,0,0.0,0.0,0.0,0.0,0.0,0.0,0.0,0.0,0.0,0.0,0.0,0.0,0.0,0.0,0.0,0.0,0.0,0.0,0.0,0.0,0.0,0.0,0.0,0.0,0.0,0.0,0.0,732.5510864257812,597.08837890625,1099.6502685546875,983.9309692382812,603.7158813476562,1106.137939453125,767.1970825195312,416.8255310058594,1139.5806884765625,927.6229248046875,399.958740234375,1140.857666015625,673.8917846679688,473.47601318359375,842.9161376953125,727.4967651367188,447.8651123046875,588.7169189453125,714.0953369140625,357.4143981933594,436.6133728027344,740.2576904296875,288.1618957519531,252.2178955078125,797.092529296875,174.17227172851562,179.74703979492188,757.9190063476562,440.6261901855469,176.15049743652344,1053.2833251953125,584.7416381835938,803.1044311523438,1004.98388671875,611.8706665039062,568.8851928710938,1020.1735229492188,640.6163330078125,434.82452392578125,981.8632202148438,702.5579223632812,225.94674682617188,912.7056884765625,658.0027465820312,151.1565399169922,970.3403930664062,904.9104614257812,229.8750457763672,0.0,0.0,0.0,0.0,0.0,0.0,0.0,0.0,0.0,0.0,0.0,0.0,1.0,0.0,0.0,0.0,0.0,0.0,0.0,0.0,0.0,0.0,0.0,0.0,0.0,1.0,0.0,0.0,0.0,0.0,0.0,0.0,0.0,0.0,0.0,0.0,0.0,0.0,1.0,0.0,0.0,0.0,0.0,0.0,0.0,0.0,0.0,0.0,0.0,0.0,0.0,1.0,0.0,0.0,0.0,0.0,0.0,0.0,0.0,0.0,0.0,0.0,0.0,0.0,1.0,0.0,0.0,0.0,0.0,0.0,0.0,0.0,0.0,0.0,0.0,0.0,0.0,1.0,0.0,0.0,0.0,0.0,0.0,0.0,0.0,0.0,0.0,0.0,0.0,0.0,1.0,0,0,0,0,0,0,0,0,0,0,0,0,0,0,0,0,0,0,0,0,0,0,0,0,0,0,0,0,0,0,0,0,0,0,0,0
1777364837.3063796,210,1777364832.7707834,,,0,0,,,0,0,0.0,0.0,0.0,0.0,0.0,0.0,0.0,0.0,0.0,0.0,0.0,0.0,0.0,0.0,0.0,0.0,0.0,0.0,0.0,0.0,0.0,0.0,0.0,0.0,0.0,0.0,0.0,733.95849609375,598.0374755859375,1099.0386962890625,985.3410034179688,605.6495361328125,1105.2763671875,769.2451782226562,417.81976318359375,1138.450927734375,929.765625,401.63427734375,1139.79248046875,674.8680419921875,473.94757080078125,842.2865600585938,728.660400390625,446.6252136230469,588.337890625,714.8650512695312,353.776611328125,437.6253356933594,740.5678100585938,281.8422546386719,253.9716796875,797.2420654296875,167.1099090576172,182.40084838867188,757.9586791992188,433.1672668457031,176.0114288330078,1053.7015380859375,587.2769165039062,802.0693359375,1005.3895874023438,613.1248168945312,567.74755859375,1020.0482788085938,640.7387084960938,433.61187744140625,981.3349609375,699.6971435546875,224.66847229003906,912.856689453125,652.1824951171875,152.41952514648438,967.607177734375,901.9711303710938,223.35336303710938,0.0,0.0,0.0,0.0,0.0,0.0,0.0,0.0,0.0,0.0,0.0,0.0,1.0,0.0,0.0,0.0,0.0,0.0,0.0,0.0,0.0,0.0,0.0,0.0,0.0,1.0,0.0,0.0,0.0,0.0,0.0,0.0,0.0,0.0,0.0,0.0,0.0,0.0,1.0,0.0,0.0,0.0,0.0,0.0,0.0,0.0,0.0,0.0,0.0,0.0,0.0,1.0,0.0,0.0,0.0,0.0,0.0,0.0,0.0,0.0,0.0,0.0,0.0,0.0,1.0,0.0,0.0,0.0,0.0,0.0,0.0,0.0,0.0,0.0,0.0,0.0,0.0,1.0,0.0,0.0,0.0,0.0,0.0,0.0,0.0,0.0,0.0,0.0,0.0,0.0,1.0,0,0,0,0,0,0,0,0,0,0,0,0,0,0,0,0,0,0,0,0,0,0,0,0,0,0,0,0,0,0,0,0,0,0,0,0
1777364837.3063796,211,1777364832.7812939,,,0,0,,,0,0,0.0,0.0,0.0,0.0,0.0,0.0,0.0,0.0,0.0,0.0,0.0,0.0,0.0,0.0,0.0,0.0,0.0,0.0,0.0,0.0,0.0,0.0,0.0,0.0,0.0,0.0,0.0,735.470703125,599.1159057617188,1098.525390625,986.847412109375,607.6814575195312,1104.5478515625,771.333984375,418.9171447753906,1137.375,931.9464111328125,403.3970031738281,1138.8173828125,675.9633178710938,474.72503662109375,841.6543579101562,729.8981323242188,445.9848327636719,587.92626953125,715.6581420898438,350.5484619140625,438.7608947753906,740.8638916015625,275.7379455566406,255.9531707763672,797.4119262695312,160.14553833007812,185.36587524414062,757.998291015625,425.7034912109375,175.9006805419922,1054.0928955078125,590.03466796875,801.2865600585938,1005.8881225585938,614.5896606445312,566.8427734375,1020.0285034179688,640.6957397460938,432.5566101074219,980.9423828125,696.0907592773438,223.41639709472656,913.0245361328125,645.64013671875,153.7914581298828,965.5526123046875,898.2053833007812,216.30014038085938,0.0,0.0,0.0,0.0,0.0,0.0,0.0,0.0,0.0,0.0,0.0,0.0,1.0,0.0,0.0,0.0,0.0,0.0,0.0,0.0,0.0,0.0,0.0,0.0,0.0,1.0,0.0,0.0,0.0,0.0,0.0,0.0,0.0,0.0,0.0,0.0,0.0,0.0,1.0,0.0,0.0,0.0,0.0,0.0,0.0,0.0,0.0,0.0,0.0,0.0,0.0,1.0,0.0,0.0,0.0,0.0,0.0,0.0,0.0,0.0,0.0,0.0,0.0,0.0,1.0,0.0,0.0,0.0,0.0,0.0,0.0,0.0,0.0,0.0,0.0,0.0,0.0,1.0,0.0,0.0,0.0,0.0,0.0,0.0,0.0,0.0,0.0,0.0,0.0,0.0,1.0,0,0,0,0,0,0,0,0,0,0,0,0,0,0,0,0,0,0,0,0,0,0,0,0,0,0,0,0,0,0,0,0,0,0,0,0
1777364837.3063796,212,1777364832.7932918,,,0,0,,,0,0,0.0,0.0,0.0,0.0,0.0,0.0,0.0,0.0,0.0,0.0,0.0,0.0,0.0,0.0,0.0,0.0,0.0,0.0,0.0,0.0,0.0,0.0,0.0,0.0,0.0,0.0,0.0,737.0817260742188,600.3012084960938,1098.1220703125,988.4420166015625,609.798583984375,1103.9683837890625,773.4610595703125,420.0980529785156,1136.373291015625,934.162841796875,405.232421875,1137.9508056640625,677.194091796875,475.8021240234375,841.0263671875,731.1898803710938,446.00836181640625,587.4817504882812,716.4655151367188,347.80096435546875,440.0369567871094,741.1397094726562,269.9125671386719,258.1904602050781,797.62939453125,153.29507446289062,188.66253662109375,758.0435791015625,418.2384338378906,175.8314971923828,1054.4713134765625,592.939453125,800.7445678710938,1006.4849243164062,616.2075805664062,566.1708984375,1020.1602172851562,640.5418090820312,431.6786804199219,980.726806640625,691.9570922851562,222.24281311035156,913.243408203125,638.6953735351562,155.21755981445312,964.1500854492188,893.7974243164062,209.14808654785156,0.0,0.0,0.0,0.0,0.0,0.0,0.0,0.0,0.0,0.0,0.0,0.0,1.0,0.0,0.0,0.0,0.0,0.0,0.0,0.0,0.0,0.0,0.0,0.0,0.0,1.0,0.0,0.0,0.0,0.0,0.0,0.0,0.0,0.0,0.0,0.0,0.0,0.0,1.0,0.0,0.0,0.0,0.0,0.0,0.0,0.0,0.0,0.0,0.0,0.0,0.0,1.0,0.0,0.0,0.0,0.0,0.0,0.0,0.0,0.0,0.0,0.0,0.0,0.0,1.0,0.0,0.0,0.0,0.0,0.0,0.0,0.0,0.0,0.0,0.0,0.0,0.0,1.0,0.0,0.0,0.0,0.0,0.0,0.0,0.0,0.0,0.0,0.0,0.0,0.0,1.0,0,0,0,0,0,0,0,0,0,0,0,0,0,0,0,0,0,0,0,0,0,0,0,0,0,0,0,0,0,0,0,0,0,0,0,0
1777364837.3063796,213,1777364832.8050878,,,0,0,,,0,0,0.0,0.0,0.0,0.0,0.0,0.0,0.0,0.0,0.0,0.0,0.0,0.0,0.0,0.0,0.0,0.0,0.0,0.0,0.0,0.0,0.0,0.0,0.0,0.0,0.0,0.0,0.0,738.7830810546875,601.5672607421875,1097.8392333984375,990.114013671875,611.9859619140625,1103.55126953125,775.6243286132812,421.3403625488281,1135.46484375,936.4130249023438,407.1246337890625,1137.208740234375,678.5728759765625,477.1708068847656,840.410888671875,732.5084228515625,446.7568359375,587.0072631835938,717.2719116210938,345.61328125,441.4727783203125,741.3826904296875,264.4432678222656,260.71209716796875,797.9238891601562,146.58566284179688,192.3240203857422,758.0965576171875,410.7821960449219,175.81332397460938,1054.853759765625,595.91357421875,800.4264526367188,1007.1823120117188,617.9151611328125,565.7279052734375,1020.4808959960938,640.3150634765625,430.9947814941406,980.7103271484375,687.4666137695312,221.193603515625,913.5333251953125,631.5751953125,156.63818359375,963.3107299804688,888.8753051757812,202.29519653320312,0.0,0.0,0.0,0.0,0.0,0.0,0.0,0.0,0.0,0.0,0.0,0.0,1.0,0.0,0.0,0.0,0.0,0.0,0.0,0.0,0.0,0.0,0.0,0.0,0.0,1.0,0.0,0.0,0.0,0.0,0.0,0.0,0.0,0.0,0.0,0.0,0.0,0.0,1.0,0.0,0.0,0.0,0.0,0.0,0.0,0.0,0.0,0.0,0.0,0.0,0.0,1.0,0.0,0.0,0.0,0.0,0.0,0.0,0.0,0.0,0.0,0.0,0.0,0.0,1.0,0.0,0.0,0.0,0.0,0.0,0.0,0.0,0.0,0.0,0.0,0.0,0.0,1.0,0.0,0.0,0.0,0.0,0.0,0.0,0.0,0.0,0.0,0.0,0.0,0.0,1.0,0,0,0,0,0,0,0,0,0,0,0,0,0,0,0,0,0,0,0,0,0,0,0,0,0,0,0,0,0,0,0,0,0,0,0,0
1777364837.3063796,214,1777364832.8153768,,,0,0,,,0,0,0.0,0.0,0.0,0.0,0.0,0.0,0.0,0.0,0.0,0.0,0.0,0.0,0.0,0.0,0.0,0.0,0.0,0.0,0.0,0.0,0.0,0.0,0.0,0.0,0.0,0.0,0.0,740.5639038085938,602.8846435546875,1097.685791015625,991.850830078125,614.226806640625,1103.3070068359375,777.822021484375,422.6199645996094,1134.6668701171875,938.6950073242188,409.0563659667969,1136.6048583984375,680.1067504882812,478.8215637207031,839.8176879882812,733.8197021484375,448.2846984863281,586.50927734375,718.05615234375,344.0697021484375,443.0890808105469,741.5740356445312,259.4193420410156,263.5461730957031,798.3239135742188,140.0626983642578,196.40338134765625,758.154052734375,403.3532409667969,175.84823608398438,1055.2587890625,598.881103515625,800.310302734375,1007.9775390625,619.6441040039062,565.5036010742188,1021.012939453125,640.0321655273438,430.5144958496094,980.8955688476562,682.7367553710938,220.30381774902344,913.901123046875,624.4158325195312,157.9916534423828,962.9114379882812,883.5159912109375,196.07534790039062,0.0,0.0,0.0,0.0,0.0,0.0,0.0,0.0,0.0,0.0,0.0,0.0,1.0,0.0,0.0,0.0,0.0,0.0,0.0,0.0,0.0,0.0,0.0,0.0,0.0,1.0,0.0,0.0,0.0,0.0,0.0,0.0,0.0,0.0,0.0,0.0,0.0,0.0,1.0,0.0,0.0,0.0,0.0,0.0,0.0,0.0,0.0,0.0,0.0,0.0,0.0,1.0,0.0,0.0,0.0,0.0,0.0,0.0,0.0,0.0,0.0,0.0,0.0,0.0,1.0,0.0,0.0,0.0,0.0,0.0,0.0,0.0,0.0,0.0,0.0,0.0,0.0,1.0,0.0,0.0,0.0,0.0,0.0,0.0,0.0,0.0,0.0,0.0,0.0,0.0,1.0,0,0,0,0,0,0,0,0,0,0,0,0,0,0,0,0,0,0,0,0,0,0,0,0,0,0,0,0,0,0,0,0,0,0,0,0
1777364837.3063796,215,1777364832.8254056,,,0,0,,,0,0,0.0,0.0,0.0,0.0,0.0,0.0,0.0,0.0,0.0,0.0,0.0,0.0,0.0,0.0,0.0,0.0,0.0,0.0,0.0,0.0,0.0,0.0,0.0,0.0,0.0,0.0,0.0,742.4110107421875,604.2218627929688,1097.6680908203125,993.6378784179688,616.502685546875,1103.242431640625,780.0524291992188,423.91143798828125,1133.9940185546875,941.0068359375,411.00946044921875,1136.149658203125,681.7959594726562,480.7436218261719,839.2576904296875,735.0841674804688,450.6358947753906,585.9982299804688,718.7925415039062,343.2556457519531,444.90692138671875,741.6903686523438,254.93931579589844,266.71923828125,798.8524780273438,133.7981414794922,200.9820556640625,758.206298828125,395.9800109863281,175.92799377441406,1055.7061767578125,601.7713012695312,800.3704833984375,1008.8624877929688,621.3217163085938,565.4810791015625,1021.7588500976562,639.6861572265625,430.2375793457031,981.2674560546875,677.835693359375,219.595947265625,914.3421630859375,617.2789306640625,159.22068786621094,962.8233642578125,877.76025390625,190.73391723632812,0.0,0.0,0.0,0.0,0.0,0.0,0.0,0.0,0.0,0.0,0.0,0.0,1.0,0.0,0.0,0.0,0.0,0.0,0.0,0.0,0.0,0.0,0.0,0.0,0.0,1.0,0.0,0.0,0.0,0.0,0.0,0.0,0.0,0.0,0.0,0.0,0.0,0.0,1.0,0.0,0.0,0.0,0.0,0.0,0.0,0.0,0.0,0.0,0.0,0.0,0.0,1.0,0.0,0.0,0.0,0.0,0.0,0.0,0.0,0.0,0.0,0.0,0.0,0.0,1.0,0.0,0.0,0.0,0.0,0.0,0.0,0.0,0.0,0.0,0.0,0.0,0.0,1.0,0.0,0.0,0.0,0.0,0.0,0.0,0.0,0.0,0.0,0.0,0.0,0.0,1.0,0,0,0,0,0,0,0,0,0,0,0,0,0,0,0,0,0,0,0,0,0,0,0,0,0,0,0,0,0,0,0,0,0,0,0,0
1777364837.3063796,216,1777364832.8364031,,,0,0,,,0,0,0.0,0.0,0.0,0.0,0.0,0.0,0.0,0.0,0.0,0.0,0.0,0.0,0.0,0.0,0.0,0.0,0.0,0.0,0.0,0.0,0.0,0.0,0.0,0.0,0.0,0.0,0.0,744.3094482421875,605.546142578125,1097.7899169921875,995.459716796875,618.7938232421875,1103.360107421875,782.313720703125,425.1888427734375,1133.4580078125,943.3463745117188,412.9649353027344,1135.850341796875,683.63330078125,482.9249572753906,838.7432861328125,736.259033203125,453.8400573730469,585.4890747070312,719.4530029296875,343.25213623046875,446.94610595703125,741.7067260742188,251.1065673828125,270.2554626464844,799.521728515625,127.89929962158203,206.17758178710938,758.2372436523438,388.7020568847656,176.03189086914062,1056.2159423828125,604.5211181640625,800.5781860351562,1009.8235473632812,622.8720703125,565.6356811523438,1022.699951171875,639.246826171875,430.1527099609375,981.7971801757812,672.791748046875,219.0793914794922,914.8428955078125,610.1751708984375,160.28062438964844,962.931396484375,871.6349487304688,186.40921020507812,0.0,0.0,0.0,0.0,0.0,0.0,0.0,0.0,0.0,0.0,0.0,0.0,1.0,0.0,0.0,0.0,0.0,0.0,0.0,0.0,0.0,0.0,0.0,0.0,0.0,1.0,0.0,0.0,0.0,0.0,0.0,0.0,0.0,0.0,0.0,0.0,0.0,0.0,1.0,0.0,0.0,0.0,0.0,0.0,0.0,0.0,0.0,0.0,0.0,0.0,0.0,1.0,0.0,0.0,0.0,0.0,0.0,0.0,0.0,0.0,0.0,0.0,0.0,0.0,1.0,0.0,0.0,0.0,0.0,0.0,0.0,0.0,0.0,0.0,0.0,0.0,0.0,1.0,0.0,0.0,0.0,0.0,0.0,0.0,0.0,0.0,0.0,0.0,0.0,0.0,1.0,0,0,0,0,0,0,0,0,0,0,0,0,0,0,0,0,0,0,0,0,0,0,0,0,0,0,0,0,0,0,0,0,0,0,0,0
1777364837.3063796,217,1777364832.8469276,,,0,0,,,0,0,0.0,0.0,0.0,0.0,0.0,0.0,0.0,0.0,0.0,0.0,0.0,0.0,0.0,0.0,0.0,0.0,0.0,0.0,0.0,0.0,0.0,0.0,0.0,0.0,0.0,0.0,0.0,746.242919921875,606.8245239257812,1098.0523681640625,997.2999267578125,621.0791625976562,1103.65771484375,784.6039428710938,426.42645263671875,1133.06689453125,945.711181640625,414.9034423828125,1135.7103271484375,685.60302734375,485.352294921875,838.2883911132812,737.3005981445312,457.90924072265625,585.0014038085938,720.0098876953125,344.12982177734375,449.2240905761719,741.6002807617188,248.02345275878906,274.1755676269531,800.3286743164062,122.51575469970703,212.14666748046875,758.2252807617188,381.5702819824219,176.1260528564453,1056.8072509765625,607.0768432617188,800.9026489257812,1010.8440551757812,624.217529296875,565.9360961914062,1023.7989501953125,638.664794921875,430.23779296875,982.4472045898438,667.6063232421875,218.7508544921875,915.3837890625,603.0885009765625,161.14602661132812,963.1415405273438,865.171875,183.1266632080078,0.0,0.0,0.0,0.0,0.0,0.0,0.0,0.0,0.0,0.0,0.0,0.0,1.0,0.0,0.0,0.0,0.0,0.0,0.0,0.0,0.0,0.0,0.0,0.0,0.0,1.0,0.0,0.0,0.0,0.0,0.0,0.0,0.0,0.0,0.0,0.0,0.0,0.0,1.0,0.0,0.0,0.0,0.0,0.0,0.0,0.0,0.0,0.0,0.0,0.0,0.0,1.0,0.0,0.0,0.0,0.0,0.0,0.0,0.0,0.0,0.0,0.0,0.0,0.0,1.0,0.0,0.0,0.0,0.0,0.0,0.0,0.0,0.0,0.0,0.0,0.0,0.0,1.0,0.0,0.0,0.0,0.0,0.0,0.0,0.0,0.0,0.0,0.0,0.0,0.0,1.0,0,0,0,0,0,0,0,0,0,0,0,0,0,0,0,0,0,0,0,0,0,0,0,0,0,0,0,0,0,0,0,0,0,0,0,0
1777364837.3063796,218,1777364832.859029,,,0,0,,,0,0,0.0,0.0,0.0,0.0,0.0,0.0,0.0,0.0,0.0,0.0,0.0,0.0,0.0,0.0,0.0,0.0,0.0,0.0,0.0,0.0,0.0,0.0,0.0,0.0,0.0,0.0,0.0,748.1944580078125,608.0253295898438,1098.452880859375,999.1419677734375,623.3370971679688,1104.1285400390625,786.9205932617188,427.5996398925781,1132.8255615234375,948.09814453125,416.8055419921875,1135.7296142578125,687.6812744140625,488.0111389160156,837.9080200195312,738.16748046875,462.8351745605469,584.5595703125,720.4391479492188,345.9426574707031,451.7547302246094,741.3551025390625,245.7841339111328,278.49591064453125,801.25244140625,117.8416976928711,219.0789794921875,758.1464233398438,374.645751953125,176.1649169921875,1057.4969482421875,609.3944091796875,801.3121948242188,1011.9061279296875,625.2818603515625,566.3457641601562,1025.00634765625,637.876708984375,430.4611511230469,983.1758422851562,662.2662353515625,218.59535217285156,915.9428100585938,595.994873046875,161.81263732910156,963.38330078125,858.4170532226562,180.81265258789062,0.0,0.0,0.0,0.0,0.0,0.0,0.0,0.0,0.0,0.0,0.0,0.0,1.0,0.0,0.0,0.0,0.0,0.0,0.0,0.0,0.0,0.0,0.0,0.0,0.0,1.0,0.0,0.0,0.0,0.0,0.0,0.0,0.0,0.0,0.0,0.0,0.0,0.0,1.0,0.0,0.0,0.0,0.0,0.0,0.0,0.0,0.0,0.0,0.0,0.0,0.0,1.0,0.0,0.0,0.0,0.0,0.0,0.0,0.0,0.0,0.0,0.0,0.0,0.0,1.0,0.0,0.0,0.0,0.0,0.0,0.0,0.0,0.0,0.0,0.0,0.0,0.0,1.0,0.0,0.0,0.0,0.0,0.0,0.0,0.0,0.0,0.0,0.0,0.0,0.0,1.0,0,0,0,0,0,0,0,0,0,0,0,0,0,0,0,0,0,0,0,0,0,0,0,0,0,0,0,0,0,0,0,0,0,0,0,0
1777364837.3063796,219,1777364832.8604188,,,0,0,,,0,0,0.0,0.0,0.0,0.0,0.0,0.0,0.0,0.0,0.0,0.0,0.0,0.0,0.0,0.0,0.0,0.0,0.0,0.0,0.0,0.0,0.0,0.0,0.0,0.0,0.0,0.0,0.0,750.1467895507812,609.1190795898438,1098.986083984375,1000.9698486328125,625.545654296875,1104.7608642578125,789.260498046875,428.68560791015625,1132.7347412109375,950.5036010742188,418.6519775390625,1135.9049072265625,689.8358154296875,490.88568115234375,837.6185913085938,738.823486328125,468.5878601074219,584.1923217773438,720.723388671875,348.7215881347656,454.5478515625,740.9668579101562,244.4670867919922,283.22705078125,802.255615234375,114.11135864257812,227.17916870117188,757.9778442382812,367.9970397949219,176.0957489013672,1058.29931640625,611.4393310546875,801.7755737304688,1012.9931030273438,625.9929809570312,566.8250732421875,1026.268310546875,636.8126220703125,430.7840881347656,983.9418334960938,656.7534790039062,218.58807373046875,916.4981689453125,588.8743286132812,162.294189453125,963.6105346679688,851.4291381835938,179.32261657714844,0.0,0.0,0.0,0.0,0.0,0.0,0.0,0.0,0.0,0.0,0.0,0.0,1.0,0.0,0.0,0.0,0.0,0.0,0.0,0.0,0.0,0.0,0.0,0.0,0.0,1.0,0.0,0.0,0.0,0.0,0.0,0.0,0.0,0.0,0.0,0.0,0.0,0.0,1.0,0.0,0.0,0.0,0.0,0.0,0.0,0.0,0.0,0.0,0.0,0.0,0.0,1.0,0.0,0.0,0.0,0.0,0.0,0.0,0.0,0.0,0.0,0.0,0.0,0.0,1.0,0.0,0.0,0.0,0.0,0.0,0.0,0.0,0.0,0.0,0.0,0.0,0.0,1.0,0.0,0.0,0.0,0.0,0.0,0.0,0.0,0.0,0.0,0.0,0.0,0.0,1.0,0,0,0,0,0,0,0,0,0,0,0,0,0,0,0,0,0,0,0,0,0,0,0,0,0,0,0,0,0,0,0,0,0,0,0,0
1777364837.3063796,220,1777364832.869511,,,0,0,,,0,0,0.0,0.0,0.0,0.0,0.0,0.0,0.0,0.0,0.0,0.0,0.0,0.0,0.0,0.0,0.0,0.0,0.0,0.0,0.0,0.0,0.0,0.0,0.0,0.0,0.0,0.0,0.0,752.0833129882812,610.0797119140625,1099.6431884765625,1002.7684936523438,627.6828002929688,1105.53857421875,791.6195068359375,429.66412353515625,1132.7921142578125,952.9228515625,420.4241638183594,1136.229248046875,692.0274658203125,493.9591064453125,837.4376220703125,739.2403564453125,475.1152648925781,583.932373046875,720.8541259765625,352.4695129394531,457.60858154296875,740.4463500976562,244.12786865234375,288.3720703125,803.2891235351562,111.58583068847656,236.63795471191406,757.702880859375,361.6968688964844,175.8672332763672,1059.22509765625,613.1854248046875,802.2630004882812,1014.0916748046875,626.2872314453125,567.3341064453125,1027.5350341796875,635.4030151367188,431.1640625,984.7073974609375,651.051513671875,218.69728088378906,917.0311889648438,581.7156372070312,162.61619567871094,963.7994384765625,844.2724609375,178.47459411621094,0.0,0.0,0.0,0.0,0.0,0.0,0.0,0.0,0.0,0.0,0.0,0.0,1.0,0.0,0.0,0.0,0.0,0.0,0.0,0.0,0.0,0.0,0.0,0.0,0.0,1.0,0.0,0.0,0.0,0.0,0.0,0.0,0.0,0.0,0.0,0.0,0.0,0.0,1.0,0.0,0.0,0.0,0.0,0.0,0.0,0.0,0.0,0.0,0.0,0.0,0.0,1.0,0.0,0.0,0.0,0.0,0.0,0.0,0.0,0.0,0.0,0.0,0.0,0.0,1.0,0.0,0.0,0.0,0.0,0.0,0.0,0.0,0.0,0.0,0.0,0.0,0.0,1.0,0.0,0.0,0.0,0.0,0.0,0.0,0.0,0.0,0.0,0.0,0.0,0.0,1.0,0,0,0,0,0,0,0,0,0,0,0,0,0,0,0,0,0,0,0,0,0,0,0,0,0,0,0,0,0,0,0,0,0,0,0,0
1777364837.3063796,221,1777364832.8826127,,,0,0,,,0,0,0.0,0.0,0.0,0.0,0.0,0.0,0.0,0.0,0.0,0.0,0.0,0.0,0.0,0.0,0.0,0.0,0.0,0.0,0.0,0.0,0.0,0.0,0.0,0.0,0.0,0.0,0.0,753.9883422851562,610.8857421875,1100.4130859375,1004.5244750976562,629.7271728515625,1106.441650390625,793.9925537109375,430.5180969238281,1132.9920654296875,955.3502197265625,422.1043395996094,1136.6932373046875,694.21142578125,497.2135314941406,837.3834838867188,739.4002685546875,482.34490966796875,583.8154907226562,720.8330078125,357.1580505371094,460.93743896484375,739.8218994140625,244.7935791015625,293.92486572265625,804.30078125,110.53079223632812,247.59519958496094,757.3148193359375,355.8193359375,175.44187927246094,1060.28076171875,614.6134033203125,802.7470092773438,1015.1924438476562,626.112548828125,567.8355712890625,1028.766357421875,633.5859375,431.5587158203125,985.441162109375,645.1486206054688,218.8877410888672,917.527587890625,574.5166625976562,162.8098907470703,963.9441528320312,837.0079956054688,178.08023071289062,0.0,0.0,0.0,0.0,0.0,0.0,0.0,0.0,0.0,0.0,0.0,0.0,1.0,0.0,0.0,0.0,0.0,0.0,0.0,0.0,0.0,0.0,0.0,0.0,0.0,1.0,0.0,0.0,0.0,0.0,0.0,0.0,0.0,0.0,0.0,0.0,0.0,0.0,1.0,0.0,0.0,0.0,0.0,0.0,0.0,0.0,0.0,0.0,0.0,0.0,0.0,1.0,0.0,0.0,0.0,0.0,0.0,0.0,0.0,0.0,0.0,0.0,0.0,0.0,1.0,0.0,0.0,0.0,0.0,0.0,0.0,0.0,0.0,0.0,0.0,0.0,0.0,1.0,0.0,0.0,0.0,0.0,0.0,0.0,0.0,0.0,0.0,0.0,0.0,0.0,1.0,0,0,0,0,0,0,0,0,0,0,0,0,0,0,0,0,0,0,0,0,0,0,0,0,0,0,0,0,0,0,0,0,0,0,0,0
1777364837.3063796,222,1777364832.893556,,,0,0,,,0,0,0.0,0.0,0.0,0.0,0.0,0.0,0.0,0.0,0.0,0.0,0.0,0.0,0.0,0.0,0.0,0.0,0.0,0.0,0.0,0.0,0.0,0.0,0.0,0.0,0.0,0.0,0.0,755.8482666015625,611.5209350585938,1101.282470703125,1006.2265014648438,631.6581420898438,1107.4473876953125,796.3731689453125,431.23419189453125,1133.3262939453125,957.77880859375,423.676025390625,1137.2847900390625,696.3392944335938,500.6304626464844,837.4750366210938,739.296630859375,490.1866760253906,583.8789672851562,720.6725463867188,362.7273254394531,464.5296936035156,739.1392211914062,246.45997619628906,299.86767578125,805.2457275390625,111.18634033203125,260.10040283203125,756.8185424804688,350.43890380859375,174.810791015625,1061.4677734375,615.7097778320312,803.203125,1016.289794921875,625.4321899414062,568.2971801757812,1029.93505859375,631.3128662109375,431.9297180175781,986.119384765625,639.039794921875,219.12466430664062,917.9791870117188,567.2820434570312,162.90771484375,964.051025390625,829.6874389648438,177.96868896484375,0.0,0.0,0.0,0.0,0.0,0.0,0.0,0.0,0.0,0.0,0.0,0.0,1.0,0.0,0.0,0.0,0.0,0.0,0.0,0.0,0.0,0.0,0.0,0.0,0.0,1.0,0.0,0.0,0.0,0.0,0.0,0.0,0.0,0.0,0.0,0.0,0.0,0.0,1.0,0.0,0.0,0.0,0.0,0.0,0.0,0.0,0.0,0.0,0.0,0.0,0.0,1.0,0.0,0.0,0.0,0.0,0.0,0.0,0.0,0.0,0.0,0.0,0.0,0.0,1.0,0.0,0.0,0.0,0.0,0.0,0.0,0.0,0.0,0.0,0.0,0.0,0.0,1.0,0.0,0.0,0.0,0.0,0.0,0.0,0.0,0.0,0.0,0.0,0.0,0.0,1.0,0,0,0,0,0,0,0,0,0,0,0,0,0,0,0,0,0,0,0,0,0,0,0,0,0,0,0,0,0,0,0,0,0,0,0,0
1777364837.3063796,223,1777364832.9046147,,,0,0,,,0,0,0.0,0.0,0.0,0.0,0.0,0.0,0.0,0.0,0.0,0.0,0.0,0.0,0.0,0.0,0.0,0.0,0.0,0.0,0.0,0.0,0.0,0.0,0.0,0.0,0.0,0.0,0.0,757.6517333984375,611.9750366210938,1102.2364501953125,1007.8658447265625,633.4563598632812,1108.5311279296875,798.7537231445312,431.8029479980469,1133.7843017578125,960.2006225585938,425.1242980957031,1137.9898681640625,698.36181640625,504.19061279296875,837.7308349609375,738.9346313476562,498.5372314453125,584.1597900390625,720.3958129882812,369.0889892578125,468.3745422363281,738.459228515625,249.0917205810547,306.1684875488281,806.0982055664062,113.73230743408203,274.0775146484375,756.2288818359375,345.63275146484375,174.0070343017578,1062.78271484375,616.4658813476562,803.6109008789062,1017.3812255859375,624.2266235351562,568.6941528320312,1031.0262451171875,628.5531616210938,432.24652099609375,986.72705078125,632.7278442382812,219.3772430419922,918.38330078125,560.0195922851562,162.94049072265625,964.1333618164062,822.34912109375,178.0012664794922,0.0,0.0,0.0,0.0,0.0,0.0,0.0,0.0,0.0,0.0,0.0,0.0,1.0,0.0,0.0,0.0,0.0,0.0,0.0,0.0,0.0,0.0,0.0,0.0,0.0,1.0,0.0,0.0,0.0,0.0,0.0,0.0,0.0,0.0,0.0,0.0,0.0,0.0,1.0,0.0,0.0,0.0,0.0,0.0,0.0,0.0,0.0,0.0,0.0,0.0,0.0,1.0,0.0,0.0,0.0,0.0,0.0,0.0,0.0,0.0,0.0,0.0,0.0,0.0,1.0,0.0,0.0,0.0,0.0,0.0,0.0,0.0,0.0,0.0,0.0,0.0,0.0,1.0,0.0,0.0,0.0,0.0,0.0,0.0,0.0,0.0,0.0,0.0,0.0,0.0,1.0,0,0,0,0,0,0,0,0,0,0,0,0,0,0,0,0,0,0,0,0,0,0,0,0,0,0,0,0,0,0,0,0,0,0,0,0
1777364837.3063796,224,1777364832.915615,,,0,0,,,0,0,0.0,0.0,0.0,0.0,0.0,0.0,0.0,0.0,0.0,0.0,0.0,0.0,0.0,0.0,0.0,0.0,0.0,0.0,0.0,0.0,0.0,0.0,0.0,0.0,0.0,0.0,0.0,759.3901977539062,612.2439575195312,1103.2593994140625,1009.4369506835938,635.1040649414062,1109.667724609375,801.1251831054688,432.2189636230469,1134.3543701171875,962.6065063476562,426.43609619140625,1138.793212890625,700.232177734375,507.8739013671875,838.1686401367188,738.330322265625,507.2852783203125,584.6923217773438,720.0346069335938,376.13226318359375,472.4540100097656,737.8526000976562,252.62660217285156,312.77838134765625,806.8633422851562,118.2545394897461,289.30120849609375,755.5648803710938,341.4876708984375,173.1136016845703,1064.2161865234375,616.877197265625,803.9542236328125,1018.4658813476562,622.4951171875,569.0101318359375,1032.0361328125,625.296875,432.4886779785156,987.2575073242188,626.2232666015625,219.62155151367188,918.7423095703125,552.7379150390625,162.9357147216797,964.2063598632812,815.0169677734375,178.07763671875,0.0,0.0,0.0,0.0,0.0,0.0,0.0,0.0,0.0,0.0,0.0,0.0,1.0,0.0,0.0,0.0,0.0,0.0,0.0,0.0,0.0,0.0,0.0,0.0,0.0,1.0,0.0,0.0,0.0,0.0,0.0,0.0,0.0,0.0,0.0,0.0,0.0,0.0,1.0,0.0,0.0,0.0,0.0,0.0,0.0,0.0,0.0,0.0,0.0,0.0,0.0,1.0,0.0,0.0,0.0,0.0,0.0,0.0,0.0,0.0,0.0,0.0,0.0,0.0,1.0,0.0,0.0,0.0,0.0,0.0,0.0,0.0,0.0,0.0,0.0,0.0,0.0,1.0,0.0,0.0,0.0,0.0,0.0,0.0,0.0,0.0,0.0,0.0,0.0,0.0,1.0,0,0,0,0,0,0,0,0,0,0,0,0,0,0,0,0,0,0,0,0,0,0,0,0,0,0,0,0,0,0,0,0,0,0,0,0
1777364837.3063796,225,1777364832.9256582,,,0,0,,,0,0,0.0,0.0,0.0,0.0,0.0,0.0,0.0,0.0,0.0,0.0,0.0,0.0,0.0,0.0,0.0,0.0,0.0,0.0,0.0,0.0,0.0,0.0,0.0,0.0,0.0,0.0,0.0,761.0585327148438,612.3297729492188,1104.3358154296875,1010.9373779296875,636.585205078125,1110.8323974609375,803.477294921875,432.4808044433594,1135.0238037109375,964.9862060546875,427.60052490234375,1139.678466796875,701.908935546875,511.65875244140625,838.804443359375,737.5089111328125,516.3171997070312,585.5062866210938,719.6271362304688,383.7320861816406,476.74169921875,737.3927001953125,256.9828186035156,319.6295471191406,807.586181640625,124.71788787841797,305.3894958496094,754.8424682617188,338.11163330078125,172.263916015625,1065.7540283203125,616.9432983398438,804.2222290039062,1019.5430908203125,620.2550048828125,569.2378540039062,1032.96826171875,621.5556640625,432.64703369140625,987.711669921875,619.5430908203125,219.84214782714844,919.0621337890625,545.4437866210938,162.91665649414062,964.2840576171875,807.7017822265625,178.13499450683594,0.0,0.0,0.0,0.0,0.0,0.0,0.0,0.0,0.0,0.0,0.0,0.0,1.0,0.0,0.0,0.0,0.0,0.0,0.0,0.0,0.0,0.0,0.0,0.0,0.0,1.0,0.0,0.0,0.0,0.0,0.0,0.0,0.0,0.0,0.0,0.0,0.0,0.0,1.0,0.0,0.0,0.0,0.0,0.0,0.0,0.0,0.0,0.0,0.0,0.0,0.0,1.0,0.0,0.0,0.0,0.0,0.0,0.0,0.0,0.0,0.0,0.0,0.0,0.0,1.0,0.0,0.0,0.0,0.0,0.0,0.0,0.0,0.0,0.0,0.0,0.0,0.0,1.0,0.0,0.0,0.0,0.0,0.0,0.0,0.0,0.0,0.0,0.0,0.0,0.0,1.0,0,0,0,0,0,0,0,0,0,0,0,0,0,0,0,0,0,0,0,0,0,0,0,0,0,0,0,0,0,0,0,0,0,0,0,0
1777364837.3063796,226,1777364832.9366574,,,0,0,,,0,0,0.0,0.0,0.0,0.0,0.0,0.0,0.0,0.0,0.0,0.0,0.0,0.0,0.0,0.0,0.0,0.0,0.0,0.0,0.0,0.0,0.0,0.0,0.0,0.0,0.0,0.0,0.0,762.6550903320312,612.240234375,1105.4510498046875,1012.3682861328125,637.8859252929688,1112.00244140625,805.7988891601562,432.5906066894531,1135.7799072265625,967.3286743164062,428.6090087890625,1140.629150390625,703.359619140625,515.521484375,839.6513061523438,736.5023803710938,525.5223999023438,586.6241455078125,719.2140502929688,391.7579345703125,481.2017517089844,737.146728515625,262.0683288574219,326.6333923339844,808.3555297851562,132.9501495361328,321.8145446777344,754.0675659179688,335.647216796875,171.633544921875,1067.37646484375,616.6683959960938,804.4093017578125,1020.6111450195312,617.5398559570312,569.3786010742188,1033.830810546875,617.3609008789062,432.7232360839844,988.0966186523438,612.709228515625,220.0323028564453,919.3505859375,538.1410522460938,162.90203857421875,964.3776245117188,800.4036865234375,178.1426239013672,0.0,0.0,0.0,0.0,0.0,0.0,0.0,0.0,0.0,0.0,0.0,0.0,1.0,0.0,0.0,0.0,0.0,0.0,0.0,0.0,0.0,0.0,0.0,0.0,0.0,1.0,0.0,0.0,0.0,0.0,0.0,0.0,0.0,0.0,0.0,0.0,0.0,0.0,1.0,0.0,0.0,0.0,0.0,0.0,0.0,0.0,0.0,0.0,0.0,0.0,0.0,1.0,0.0,0.0,0.0,0.0,0.0,0.0,0.0,0.0,0.0,0.0,0.0,0.0,1.0,0.0,0.0,0.0,0.0,0.0,0.0,0.0,0.0,0.0,0.0,0.0,0.0,1.0,0.0,0.0,0.0,0.0,0.0,0.0,0.0,0.0,0.0,0.0,0.0,0.0,1.0,0,0,0,0,0,0,0,0,0,0,0,0,0,0,0,0,0,0,0,0,0,0,0,0,0,0,0,0,0,0,0,0,0,0,0,0
1777364837.3063796,227,1777364832.9481099,,,0,0,,,0,0,0.0,0.0,0.0,0.0,0.0,0.0,0.0,0.0,0.0,0.0,0.0,0.0,0.0,0.0,0.0,0.0,0.0,0.0,0.0,0.0,0.0,0.0,0.0,0.0,0.0,0.0,0.0,764.1813354492188,611.988037109375,1106.591796875,1013.73388671875,638.9949340820312,1113.1575927734375,808.0778198242188,432.5538024902344,1136.6103515625,969.6220703125,429.4555358886719,1141.628662109375,704.5637817382812,519.43505859375,840.7181396484375,735.3472900390625,534.7977294921875,588.0596313476562,718.835205078125,400.0823974609375,485.78826904296875,737.168701171875,267.79010009765625,333.6802062988281,809.2977905273438,142.6401824951172,337.9329833984375,753.2305908203125,334.2804870605469,171.423828125,1069.0595703125,616.061279296875,804.5152587890625,1021.6668090820312,614.3958129882812,569.4407958984375,1034.63330078125,612.7601928710938,432.72802734375,988.4232788085938,605.7462768554688,220.1932830810547,919.6158447265625,530.8302612304688,162.90602111816406,964.4947509765625,793.115478515625,178.09384155273438,0.0,0.0,0.0,0.0,0.0,0.0,0.0,0.0,0.0,0.0,0.0,0.0,1.0,0.0,0.0,0.0,0.0,0.0,0.0,0.0,0.0,0.0,0.0,0.0,0.0,1.0,0.0,0.0,0.0,0.0,0.0,0.0,0.0,0.0,0.0,0.0,0.0,0.0,1.0,0.0,0.0,0.0,0.0,0.0,0.0,0.0,0.0,0.0,0.0,0.0,0.0,1.0,0.0,0.0,0.0,0.0,0.0,0.0,0.0,0.0,0.0,0.0,0.0,0.0,1.0,0.0,0.0,0.0,0.0,0.0,0.0,0.0,0.0,0.0,0.0,0.0,0.0,1.0,0.0,0.0,0.0,0.0,0.0,0.0,0.0,0.0,0.0,0.0,0.0,0.0,1.0,0,0,0,0,0,0,0,0,0,0,0,0,0,0,0,0,0,0,0,0,0,0,0,0,0,0,0,0,0,0,0,0,0,0,0,0
1777364837.3063796,228,1777364832.9587429,,,0,0,,,0,0,0.0,0.0,0.0,0.0,0.0,0.0,0.0,0.0,0.0,0.0,0.0,0.0,0.0,0.0,0.0,0.0,0.0,0.0,0.0,0.0,0.0,0.0,0.0,0.0,0.0,0.0,0.0,765.6419677734375,611.5895385742188,1107.7464599609375,1015.0410766601562,639.9036865234375,1114.281005859375,810.3017578125,432.37847900390625,1137.50341796875,971.8543701171875,430.1368408203125,1142.6612548828125,705.5149536132812,523.367919921875,842.0087280273438,734.0821533203125,544.0505981445312,589.8162841796875,718.5261840820312,408.5880432128906,490.44500732421875,737.4935913085938,274.0625915527344,340.6402893066406,810.5598754882812,153.3570556640625,353.03802490234375,752.303955078125,334.2379455566406,171.83668518066406,1070.7760009765625,615.1358032226562,804.5447998046875,1022.704833984375,610.8773193359375,569.4385375976562,1035.3846435546875,607.8121337890625,432.6788330078125,988.7042846679688,598.6793823242188,220.3324432373047,919.8648681640625,523.509033203125,162.9383087158203,964.639404296875,785.825927734375,177.9974822998047,0.0,0.0,0.0,0.0,0.0,0.0,0.0,0.0,0.0,0.0,0.0,0.0,1.0,0.0,0.0,0.0,0.0,0.0,0.0,0.0,0.0,0.0,0.0,0.0,0.0,1.0,0.0,0.0,0.0,0.0,0.0,0.0,0.0,0.0,0.0,0.0,0.0,0.0,1.0,0.0,0.0,0.0,0.0,0.0,0.0,0.0,0.0,0.0,0.0,0.0,0.0,1.0,0.0,0.0,0.0,0.0,0.0,0.0,0.0,0.0,0.0,0.0,0.0,0.0,1.0,0.0,0.0,0.0,0.0,0.0,0.0,0.0,0.0,0.0,0.0,0.0,0.0,1.0,0.0,0.0,0.0,0.0,0.0,0.0,0.0,0.0,0.0,0.0,0.0,0.0,1.0,0,0,0,0,0,0,0,0,0,0,0,0,0,0,0,0,0,0,0,0,0,0,0,0,0,0,0,0,0,0,0,0,0,0,0,0
1777364837.3063796,229,1777364832.9587429,,,0,0,,,0,0,0.0,0.0,0.0,0.0,0.0,0.0,0.0,0.0,0.0,0.0,0.0,0.0,0.0,0.0,0.0,0.0,0.0,0.0,0.0,0.0,0.0,0.0,0.0,0.0,0.0,0.0,0.0,767.0437622070312,611.06396484375,1108.90576171875,1016.2992553710938,640.6068725585938,1115.3597412109375,812.4581909179688,432.0746765136719,1138.4482421875,974.0136108398438,430.65228271484375,1143.7117919921875,706.2217407226562,527.2833251953125,843.5204467773438,732.745361328125,553.2005004882812,591.8872680664062,718.3155517578125,417.1729431152344,495.1056213378906,738.1344604492188,280.8135681152344,347.36767578125,812.2825317382812,164.5960693359375,366.4316711425781,751.2449951171875,335.76690673828125,173.04159545898438,1072.49609375,613.910888671875,804.5067138671875,1023.7179565429688,607.0422973632812,569.3892211914062,1036.09130859375,602.5798950195312,432.5967102050781,988.9517211914062,591.5323486328125,220.46115112304688,920.1024780273438,516.17333984375,163.0045166015625,964.81201171875,778.5233154296875,177.8699951171875,0.0,0.0,0.0,0.0,0.0,0.0,0.0,0.0,0.0,0.0,0.0,0.0,1.0,0.0,0.0,0.0,0.0,0.0,0.0,0.0,0.0,0.0,0.0,0.0,0.0,1.0,0.0,0.0,0.0,0.0,0.0,0.0,0.0,0.0,0.0,0.0,0.0,0.0,1.0,0.0,0.0,0.0,0.0,0.0,0.0,0.0,0.0,0.0,0.0,0.0,0.0,1.0,0.0,0.0,0.0,0.0,0.0,0.0,0.0,0.0,0.0,0.0,0.0,0.0,1.0,0.0,0.0,0.0,0.0,0.0,0.0,0.0,0.0,0.0,0.0,0.0,0.0,1.0,0.0,0.0,0.0,0.0,0.0,0.0,0.0,0.0,0.0,0.0,0.0,0.0,1.0,0,0,0,0,0,0,0,0,0,0,0,0,0,0,0,0,0,0,0,0,0,0,0,0,0,0,0,0,0,0,0,0,0,0,0,0
1777364837.3063796,230,1777364832.9710004,,,0,0,,,0,0,0.0,0.0,0.0,0.0,0.0,0.0,0.0,0.0,0.0,0.0,0.0,0.0,0.0,0.0,0.0,0.0,0.0,0.0,0.0,0.0,0.0,0.0,0.0,0.0,0.0,0.0,0.0,768.3952026367188,610.431640625,1110.0625,1017.5186767578125,641.102783203125,1116.38427734375,814.5350952148438,431.65399169921875,1139.435302734375,976.0882568359375,431.0038757324219,1144.766845703125,706.7066650390625,531.1395874023438,845.2435913085938,731.373779296875,562.1796264648438,594.2550659179688,718.2230834960938,425.7535400390625,499.69451904296875,739.0813598632812,287.988037109375,353.7060241699219,814.570068359375,175.85311889648438,377.5081481933594,750.0028076171875,339.100830078125,175.13754272460938,1074.189453125,612.4100952148438,804.4124755859375,1024.6973876953125,602.94775390625,569.3115844726562,1036.7567138671875,597.12548828125,432.5035705566406,989.1755981445312,584.3260498046875,220.59231567382812,920.3306884765625,508.81903076171875,163.10707092285156,965.0097045898438,771.197265625,177.7292022705078,0.0,0.0,0.0,0.0,0.0,0.0,0.0,0.0,0.0,0.0,0.0,0.0,1.0,0.0,0.0,0.0,0.0,0.0,0.0,0.0,0.0,0.0,0.0,0.0,0.0,1.0,0.0,0.0,0.0,0.0,0.0,0.0,0.0,0.0,0.0,0.0,0.0,0.0,1.0,0.0,0.0,0.0,0.0,0.0,0.0,0.0,0.0,0.0,0.0,0.0,0.0,1.0,0.0,0.0,0.0,0.0,0.0,0.0,0.0,0.0,0.0,0.0,0.0,0.0,1.0,0.0,0.0,0.0,0.0,0.0,0.0,0.0,0.0,0.0,0.0,0.0,0.0,1.0,0.0,0.0,0.0,0.0,0.0,0.0,0.0,0.0,0.0,0.0,0.0,0.0,1.0,0,0,0,0,0,0,0,0,0,0,0,0,0,0,0,0,0,0,0,0,0,0,0,0,0,0,0,0,0,0,0,0,0,0,0,0
1777364837.3063796,231,1777364832.9805307,,,0,0,,,0,0,0.0,0.0,0.0,0.0,0.0,0.0,0.0,0.0,0.0,0.0,0.0,0.0,0.0,0.0,0.0,0.0,0.0,0.0,0.0,0.0,0.0,0.0,0.0,0.0,0.0,0.0,0.0,769.7049560546875,609.7133178710938,1111.2113037109375,1018.7102661132812,641.3933715820312,1117.348876953125,816.5213623046875,431.12884521484375,1140.455322265625,978.0675048828125,431.19622802734375,1145.81396484375,707.004150390625,534.8905639648438,847.1611938476562,730.001708984375,570.9321899414062,596.892822265625,718.2584838867188,434.2662048339844,504.12841796875,740.3027954101562,295.54949951171875,359.4955749511719,817.4617919921875,186.71839904785156,385.83349609375,748.5281982421875,344.4146728515625,178.11834716796875,1075.8267822265625,610.6609497070312,804.2750854492188,1025.6336669921875,598.646240234375,569.2237548828125,1037.380859375,591.5047607421875,432.4196472167969,989.3821411132812,577.0778198242188,220.7383575439453,920.549560546875,501.4427185058594,163.24591064453125,965.2268676757812,763.840576171875,177.59022521972656,0.0,0.0,0.0,0.0,0.0,0.0,0.0,0.0,0.0,0.0,0.0,0.0,1.0,0.0,0.0,0.0,0.0,0.0,0.0,0.0,0.0,0.0,0.0,0.0,0.0,1.0,0.0,0.0,0.0,0.0,0.0,0.0,0.0,0.0,0.0,0.0,0.0,0.0,1.0,0.0,0.0,0.0,0.0,0.0,0.0,0.0,0.0,0.0,0.0,0.0,0.0,1.0,0.0,0.0,0.0,0.0,0.0,0.0,0.0,0.0,0.0,0.0,0.0,0.0,1.0,0.0,0.0,0.0,0.0,0.0,0.0,0.0,0.0,0.0,0.0,0.0,0.0,1.0,0.0,0.0,0.0,0.0,0.0,0.0,0.0,0.0,0.0,0.0,0.0,0.0,1.0,0,0,0,0,0,0,0,0,0,0,0,0,0,0,0,0,0,0,0,0,0,0,0,0,0,0,0,0,0,0,0,0,0,0,0,0
1777364837.3063796,232,1777364832.99217,,,0,0,,,0,0,0.0,0.0,0.0,0.0,0.0,0.0,0.0,0.0,0.0,0.0,0.0,0.0,0.0,0.0,0.0,0.0,0.0,0.0,0.0,0.0,0.0,0.0,0.0,0.0,0.0,0.0,0.0,770.9810791015625,608.9285278320312,1112.3482666015625,1019.8837280273438,641.484375,1118.250244140625,818.4070434570312,430.51214599609375,1141.500244140625,979.9420166015625,431.2362365722656,1146.8428955078125,707.1572265625,538.4876098632812,849.2490234375,728.660400390625,579.4132080078125,599.7649536132812,718.4210815429688,442.666748046875,508.3189697265625,741.747802734375,303.47998046875,364.5809326171875,820.9154663085938,196.9632568359375,391.2010803222656,746.7843017578125,351.78411865234375,181.85569763183594,1077.3818359375,608.693603515625,804.107666015625,1026.51708984375,594.18310546875,569.1416625976562,1037.9613037109375,585.76416015625,432.3619079589844,989.5743408203125,569.8003540039062,220.90968322753906,920.7574462890625,494.04217529296875,163.41909790039062,965.4560546875,756.4490356445312,177.46339416503906,0.0,0.0,0.0,0.0,0.0,0.0,0.0,0.0,0.0,0.0,0.0,0.0,1.0,0.0,0.0,0.0,0.0,0.0,0.0,0.0,0.0,0.0,0.0,0.0,0.0,1.0,0.0,0.0,0.0,0.0,0.0,0.0,0.0,0.0,0.0,0.0,0.0,0.0,1.0,0.0,0.0,0.0,0.0,0.0,0.0,0.0,0.0,0.0,0.0,0.0,0.0,1.0,0.0,0.0,0.0,0.0,0.0,0.0,0.0,0.0,0.0,0.0,0.0,0.0,1.0,0.0,0.0,0.0,0.0,0.0,0.0,0.0,0.0,0.0,0.0,0.0,0.0,1.0,0.0,0.0,0.0,0.0,0.0,0.0,0.0,0.0,0.0,0.0,0.0,0.0,1.0,0,0,0,0,0,0,0,0,0,0,0,0,0,0,0,0,0,0,0,0,0,0,0,0,0,0,0,0,0,0,0,0,0,0,0,0
1777364837.3063796,233,1777364833.0055292,,,0,0,,,0,0,0.0,0.0,0.0,0.0,0.0,0.0,0.0,0.0,0.0,0.0,0.0,0.0,0.0,0.0,0.0,0.0,0.0,0.0,0.0,0.0,0.0,0.0,0.0,0.0,0.0,0.0,0.0,772.2298583984375,608.0952758789062,1113.470458984375,1021.047119140625,641.3854370117188,1119.0872802734375,820.1838989257812,429.8167724609375,1142.5621337890625,981.7037963867188,431.13299560546875,1147.844482421875,707.2145385742188,541.8810424804688,851.4765625,727.3777465820312,587.5868530273438,602.8289184570312,718.7002563476562,450.9287109375,512.176025390625,743.349853515625,311.7786560058594,368.81866455078125,824.8102416992188,206.58010864257812,393.6426086425781,744.7557983398438,361.164306640625,186.1090850830078,1078.8321533203125,606.5394897460938,803.922119140625,1027.33935546875,589.595458984375,569.0780639648438,1038.4942626953125,579.939208984375,432.3426208496094,989.7520141601562,562.50244140625,221.1136932373047,920.9525756835938,486.6160583496094,163.62315368652344,965.689208984375,749.0213012695312,177.35427856445312,0.0,0.0,0.0,0.0,0.0,0.0,0.0,0.0,0.0,0.0,0.0,0.0,1.0,0.0,0.0,0.0,0.0,0.0,0.0,0.0,0.0,0.0,0.0,0.0,0.0,1.0,0.0,0.0,0.0,0.0,0.0,0.0,0.0,0.0,0.0,0.0,0.0,0.0,1.0,0.0,0.0,0.0,0.0,0.0,0.0,0.0,0.0,0.0,0.0,0.0,0.0,1.0,0.0,0.0,0.0,0.0,0.0,0.0,0.0,0.0,0.0,0.0,0.0,0.0,1.0,0.0,0.0,0.0,0.0,0.0,0.0,0.0,0.0,0.0,0.0,0.0,0.0,1.0,0.0,0.0,0.0,0.0,0.0,0.0,0.0,0.0,0.0,0.0,0.0,0.0,1.0,0,0,0,0,0,0,0,0,0,0,0,0,0,0,0,0,0,0,0,0,0,0,0,0,0,0,0,0,0,0,0,0,0,0,0,0
1777364837.3063796,234,1777364833.0165725,,,0,0,,,0,0,0.0,0.0,0.0,0.0,0.0,0.0,0.0,0.0,0.0,0.0,0.0,0.0,0.0,0.0,0.0,0.0,0.0,0.0,0.0,0.0,0.0,0.0,0.0,0.0,0.0,0.0,0.0,773.4552001953125,607.2291870117188,1114.5751953125,1022.2056884765625,641.1095581054688,1119.8604736328125,821.8455810546875,429.0555419921875,1143.6331787109375,983.3464965820312,430.8974609375,1148.811279296875,707.2264404296875,545.0223999023438,853.8077392578125,726.1784057617188,595.4246215820312,606.036865234375,719.0765991210938,459.04071044921875,515.611083984375,745.0309448242188,320.458984375,372.083740234375,828.9656372070312,215.75550842285156,393.3913269042969,742.4541015625,372.3971252441406,190.5618896484375,1080.160888671875,604.2298583984375,803.7283325195312,1028.0941162109375,584.911865234375,569.0416259765625,1038.9759521484375,574.0547485351562,432.36895751953125,989.9130249023438,555.1890258789062,221.35415649414062,921.1340942382812,479.1636657714844,163.85369873046875,965.9193725585938,741.5580444335938,177.2647705078125,0.0,0.0,0.0,0.0,0.0,0.0,0.0,0.0,0.0,0.0,0.0,0.0,1.0,0.0,0.0,0.0,0.0,0.0,0.0,0.0,0.0,0.0,0.0,0.0,0.0,1.0,0.0,0.0,0.0,0.0,0.0,0.0,0.0,0.0,0.0,0.0,0.0,0.0,1.0,0.0,0.0,0.0,0.0,0.0,0.0,0.0,0.0,0.0,0.0,0.0,0.0,1.0,0.0,0.0,0.0,0.0,0.0,0.0,0.0,0.0,0.0,0.0,0.0,0.0,1.0,0.0,0.0,0.0,0.0,0.0,0.0,0.0,0.0,0.0,0.0,0.0,0.0,1.0,0.0,0.0,0.0,0.0,0.0,0.0,0.0,0.0,0.0,0.0,0.0,0.0,1.0,0,0,0,0,0,0,0,0,0,0,0,0,0,0,0,0,0,0,0,0,0,0,0,0,0,0,0,0,0,0,0,0,0,0,0,0
1777364837.3063796,235,1777364833.0270846,,,0,0,,,0,0,0.0,0.0,0.0,0.0,0.0,0.0,0.0,0.0,0.0,0.0,0.0,0.0,0.0,0.0,0.0,0.0,0.0,0.0,0.0,0.0,0.0,0.0,0.0,0.0,0.0,0.0,0.0,774.6578369140625,606.3433837890625,1115.65966796875,1023.3612670898438,640.6729736328125,1120.5704345703125,823.387451171875,428.24078369140625,1144.7056884765625,984.8658447265625,430.542236328125,1149.737548828125,707.2422485351562,547.8663940429688,856.2024536132812,725.0841674804688,602.9036865234375,609.3374633789062,719.5235595703125,467.0035400390625,518.5409545898438,746.7073364257812,329.5438232421875,374.2748718261719,833.1678466796875,224.79466247558594,390.8113708496094,739.9163208007812,385.2455749511719,194.8721466064453,1081.3565673828125,601.794677734375,803.53369140625,1028.777587890625,580.1532592773438,569.037109375,1039.4041748046875,568.12646484375,432.4430236816406,990.0546875,547.8623046875,221.63116455078125,921.302978515625,471.6847839355469,164.10601806640625,966.1419677734375,734.0614624023438,177.19439697265625,0.0,0.0,0.0,0.0,0.0,0.0,0.0,0.0,0.0,0.0,0.0,0.0,1.0,0.0,0.0,0.0,0.0,0.0,0.0,0.0,0.0,0.0,0.0,0.0,0.0,1.0,0.0,0.0,0.0,0.0,0.0,0.0,0.0,0.0,0.0,0.0,0.0,0.0,1.0,0.0,0.0,0.0,0.0,0.0,0.0,0.0,0.0,0.0,0.0,0.0,0.0,1.0,0.0,0.0,0.0,0.0,0.0,0.0,0.0,0.0,0.0,0.0,0.0,0.0,1.0,0.0,0.0,0.0,0.0,0.0,0.0,0.0,0.0,0.0,0.0,0.0,0.0,1.0,0.0,0.0,0.0,0.0,0.0,0.0,0.0,0.0,0.0,0.0,0.0,0.0,1.0,0,0,0,0,0,0,0,0,0,0,0,0,0,0,0,0,0,0,0,0,0,0,0,0,0,0,0,0,0,0,0,0,0,0,0,0
1777364837.3063796,236,1777364833.03792,,,0,0,,,0,0,0.0,0.0,0.0,0.0,0.0,0.0,0.0,0.0,0.0,0.0,0.0,0.0,0.0,0.0,0.0,0.0,0.0,0.0,0.0,0.0,0.0,0.0,0.0,0.0,0.0,0.0,0.0,775.8352661132812,605.4483642578125,1116.7200927734375,1024.5120849609375,640.094482421875,1121.2178955078125,824.80712890625,427.3843994140625,1145.771728515625,986.2592163085938,430.0811767578125,1150.6185302734375,707.306884765625,550.373046875,858.6181640625,724.1137084960938,610.0050048828125,612.6771240234375,720.0098876953125,474.8265380859375,520.8912963867188,748.2954711914062,339.060302734375,375.3184814453125,837.19482421875,234.0318145751953,386.31512451171875,737.1993408203125,399.44256591796875,198.72438049316406,1082.4136962890625,599.2611083984375,803.3429565429688,1029.3892822265625,575.3339233398438,569.0652465820312,1039.77880859375,562.1630859375,432.5622863769531,990.1748046875,540.5227661132812,221.9415283203125,921.4624633789062,464.1799621582031,164.375732421875,966.3555297851562,726.5350341796875,177.14146423339844,0.0,0.0,0.0,0.0,0.0,0.0,0.0,0.0,0.0,0.0,0.0,0.0,1.0,0.0,0.0,0.0,0.0,0.0,0.0,0.0,0.0,0.0,0.0,0.0,0.0,1.0,0.0,0.0,0.0,0.0,0.0,0.0,0.0,0.0,0.0,0.0,0.0,0.0,1.0,0.0,0.0,0.0,0.0,0.0,0.0,0.0,0.0,0.0,0.0,0.0,0.0,1.0,0.0,0.0,0.0,0.0,0.0,0.0,0.0,0.0,0.0,0.0,0.0,0.0,1.0,0.0,0.0,0.0,0.0,0.0,0.0,0.0,0.0,0.0,0.0,0.0,0.0,1.0,0.0,0.0,0.0,0.0,0.0,0.0,0.0,0.0,0.0,0.0,0.0,0.0,1.0,0,0,0,0,0,0,0,0,0,0,0,0,0,0,0,0,0,0,0,0,0,0,0,0,0,0,0,0,0,0,0,0,0,0,0,0
1777364837.3063796,237,1777364833.0489855,,,0,0,,,0,0,0.0,0.0,0.0,0.0,0.0,0.0,0.0,0.0,0.0,0.0,0.0,0.0,0.0,0.0,0.0,0.0,0.0,0.0,0.0,0.0,0.0,0.0,0.0,0.0,0.0,0.0,0.0,776.982177734375,604.5524291992188,1117.7513427734375,1025.652587890625,639.394775390625,1121.8026123046875,826.103759765625,426.4979248046875,1146.8231201171875,987.5258178710938,429.5290832519531,1151.4505615234375,707.4586791992188,552.5092163085938,861.0113525390625,723.2828369140625,616.7117309570312,616.0017700195312,720.5015258789062,482.524169921875,522.5999145507812,749.7172241210938,349.0354309082031,375.1716003417969,840.8385009765625,243.75550842285156,380.28875732421875,734.3723754882812,414.7383117675781,201.87045288085938,1083.3316650390625,596.6533203125,803.158203125,1029.9315185546875,570.4635009765625,569.1234130859375,1040.1021728515625,556.1687622070312,432.72052001953125,990.2723388671875,533.170166015625,222.27964782714844,921.6175537109375,456.65087890625,164.65908813476562,966.5615234375,718.9835205078125,177.1033477783203,0.0,0.0,0.0,0.0,0.0,0.0,0.0,0.0,0.0,0.0,0.0,0.0,1.0,0.0,0.0,0.0,0.0,0.0,0.0,0.0,0.0,0.0,0.0,0.0,0.0,1.0,0.0,0.0,0.0,0.0,0.0,0.0,0.0,0.0,0.0,0.0,0.0,0.0,1.0,0.0,0.0,0.0,0.0,0.0,0.0,0.0,0.0,0.0,0.0,0.0,0.0,1.0,0.0,0.0,0.0,0.0,0.0,0.0,0.0,0.0,0.0,0.0,0.0,0.0,1.0,0.0,0.0,0.0,0.0,0.0,0.0,0.0,0.0,0.0,0.0,0.0,0.0,1.0,0.0,0.0,0.0,0.0,0.0,0.0,0.0,0.0,0.0,0.0,0.0,0.0,1.0,0,0,0,0,0,0,0,0,0,0,0,0,0,0,0,0,0,0,0,0,0,0,0,0,0,0,0,0,0,0,0,0,0,0,0,0
1777364837.3063796,238,1777364833.0489855,,,0,0,,,0,0,0.0,0.0,0.0,0.0,0.0,0.0,0.0,0.0,0.0,0.0,0.0,0.0,0.0,0.0,0.0,0.0,0.0,0.0,0.0,0.0,0.0,0.0,0.0,0.0,0.0,0.0,0.0,778.0904541015625,603.6618041992188,1118.74658203125,1026.7740478515625,638.5958862304688,1122.3236083984375,827.2783203125,425.5924072265625,1147.851318359375,988.6663208007812,428.9013977050781,1152.2310791015625,707.7271118164062,554.2500610351562,863.3388671875,722.6044921875,623.0075073242188,619.2578735351562,720.9641723632812,490.113037109375,523.61962890625,750.904052734375,359.4936828613281,373.82257080078125,843.9209594726562,254.16506958007812,373.03936767578125,731.5089721679688,430.93487548828125,204.1531524658203,1084.1142578125,593.9918823242188,802.9789428710938,1030.4090576171875,565.5481567382812,569.2064208984375,1040.3785400390625,550.1456298828125,432.90887451171875,990.34765625,525.8043823242188,222.63841247558594,921.7738647460938,449.10089111328125,164.95278930664062,966.7628173828125,711.4125366210938,177.0762481689453,0.0,0.0,0.0,0.0,0.0,0.0,0.0,0.0,0.0,0.0,0.0,0.0,1.0,0.0,0.0,0.0,0.0,0.0,0.0,0.0,0.0,0.0,0.0,0.0,0.0,1.0,0.0,0.0,0.0,0.0,0.0,0.0,0.0,0.0,0.0,0.0,0.0,0.0,1.0,0.0,0.0,0.0,0.0,0.0,0.0,0.0,0.0,0.0,0.0,0.0,0.0,1.0,0.0,0.0,0.0,0.0,0.0,0.0,0.0,0.0,0.0,0.0,0.0,0.0,1.0,0.0,0.0,0.0,0.0,0.0,0.0,0.0,0.0,0.0,0.0,0.0,0.0,1.0,0.0,0.0,0.0,0.0,0.0,0.0,0.0,0.0,0.0,0.0,0.0,0.0,1.0,0,0,0,0,0,0,0,0,0,0,0,0,0,0,0,0,0,0,0,0,0,0,0,0,0,0,0,0,0,0,0,0,0,0,0,0
1777364837.3063796,239,1777364833.0588982,,,0,0,,,0,0,0.0,0.0,0.0,0.0,0.0,0.0,0.0,0.0,0.0,0.0,0.0,0.0,0.0,0.0,0.0,0.0,0.0,0.0,0.0,0.0,0.0,0.0,0.0,0.0,0.0,0.0,0.0,779.1505126953125,602.781494140625,1119.697265625,1027.865234375,637.72021484375,1122.7783203125,828.3329467773438,424.6785583496094,1148.8475341796875,989.6830444335938,428.2137451171875,1152.9580078125,708.1316528320312,555.580078125,865.559814453125,722.0885009765625,628.8755493164062,622.3936157226562,721.3656616210938,497.60992431640625,523.9199829101562,751.7993774414062,370.45660400390625,371.2903747558594,846.3048706054688,265.36138916015625,364.77099609375,728.678466796875,447.9021301269531,205.51101684570312,1084.7689208984375,591.2935791015625,802.8027954101562,1030.828369140625,560.59228515625,569.3070068359375,1040.6138916015625,544.0951538085938,433.1170349121094,990.4024658203125,518.4260864257812,223.00994873046875,921.9365844726562,441.5350036621094,165.2534942626953,966.96240234375,703.8276977539062,177.05545043945312,0.0,0.0,0.0,0.0,0.0,0.0,0.0,0.0,0.0,0.0,0.0,0.0,1.0,0.0,0.0,0.0,0.0,0.0,0.0,0.0,0.0,0.0,0.0,0.0,0.0,1.0,0.0,0.0,0.0,0.0,0.0,0.0,0.0,0.0,0.0,0.0,0.0,0.0,1.0,0.0,0.0,0.0,0.0,0.0,0.0,0.0,0.0,0.0,0.0,0.0,0.0,1.0,0.0,0.0,0.0,0.0,0.0,0.0,0.0,0.0,0.0,0.0,0.0,0.0,1.0,0.0,0.0,0.0,0.0,0.0,0.0,0.0,0.0,0.0,0.0,0.0,0.0,1.0,0.0,0.0,0.0,0.0,0.0,0.0,0.0,0.0,0.0,0.0,0.0,0.0,1.0,0,0,0,0,0,0,0,0,0,0,0,0,0,0,0,0,0,0,0,0,0,0,0,0,0,0,0,0,0,0,0,0,0,0,0,0
1777364837.3063796,240,1777364833.0698957,,,0,0,,,0,0,0.0,0.0,0.0,0.0,0.0,0.0,0.0,0.0,0.0,0.0,0.0,0.0,0.0,0.0,0.0,0.0,0.0,0.0,0.0,0.0,0.0,0.0,0.0,0.0,0.0,0.0,0.0,780.1517944335938,601.9154052734375,1120.5936279296875,1028.9132080078125,636.7901000976562,1123.1632080078125,829.2706298828125,423.766845703125,1149.8028564453125,990.5789184570312,427.4816589355469,1153.6297607421875,708.6806030273438,556.4938354492188,867.6365356445312,721.741455078125,634.2978515625,625.3598022460938,721.677978515625,505.0306701660156,523.48779296875,752.3600463867188,381.9439392089844,367.6219482421875,847.89794921875,277.3649597167969,355.5903625488281,725.9389038085938,465.575439453125,205.9676971435547,1085.30517578125,588.5718383789062,802.625732421875,1031.19677734375,555.5997924804688,569.4171142578125,1040.814208984375,538.0195922851562,433.3343505859375,990.4389038085938,511.0367126464844,223.38650512695312,922.1091918945312,433.9594421386719,165.55723571777344,967.162353515625,696.2343139648438,177.0358428955078,0.0,0.0,0.0,0.0,0.0,0.0,0.0,0.0,0.0,0.0,0.0,0.0,1.0,0.0,0.0,0.0,0.0,0.0,0.0,0.0,0.0,0.0,0.0,0.0,0.0,1.0,0.0,0.0,0.0,0.0,0.0,0.0,0.0,0.0,0.0,0.0,0.0,0.0,1.0,0.0,0.0,0.0,0.0,0.0,0.0,0.0,0.0,0.0,0.0,0.0,0.0,1.0,0.0,0.0,0.0,0.0,0.0,0.0,0.0,0.0,0.0,0.0,0.0,0.0,1.0,0.0,0.0,0.0,0.0,0.0,0.0,0.0,0.0,0.0,0.0,0.0,0.0,1.0,0.0,0.0,0.0,0.0,0.0,0.0,0.0,0.0,0.0,0.0,0.0,0.0,1.0,0,0,0,0,0,0,0,0,0,0,0,0,0,0,0,0,0,0,0,0,0,0,0,0,0,0,0,0,0,0,0,0,0,0,0,0
1777364837.3063796,241,1777364833.0811765,,,0,0,,,0,0,0.0,0.0,0.0,0.0,0.0,0.0,0.0,0.0,0.0,0.0,0.0,0.0,0.0,0.0,0.0,0.0,0.0,0.0,0.0,0.0,0.0,0.0,0.0,0.0,0.0,0.0,0.0,781.0836181640625,601.0672607421875,1121.423828125,1029.904541015625,635.8270263671875,1123.4737548828125,830.094970703125,422.86749267578125,1150.7080078125,991.3579711914062,426.72027587890625,1154.244873046875,709.3712158203125,556.9964599609375,869.535888671875,721.5667724609375,639.2548217773438,628.1107788085938,721.8786010742188,512.3904418945312,522.3267822265625,752.5560913085938,393.9754333496094,362.88916015625,848.6535034179688,290.1497802734375,345.5352783203125,723.3306884765625,483.9393615722656,205.611083984375,1085.7344970703125,585.8367919921875,802.4428100585938,1031.5216064453125,550.5743408203125,569.5283813476562,1040.9853515625,531.922607421875,433.55078125,990.4593505859375,503.638671875,223.7610626220703,922.2927856445312,426.3809509277344,165.85903930664062,967.36328125,688.6364135742188,177.01290893554688,0.0,0.0,0.0,0.0,0.0,0.0,0.0,0.0,0.0,0.0,0.0,0.0,1.0,0.0,0.0,0.0,0.0,0.0,0.0,0.0,0.0,0.0,0.0,0.0,0.0,1.0,0.0,0.0,0.0,0.0,0.0,0.0,0.0,0.0,0.0,0.0,0.0,0.0,1.0,0.0,0.0,0.0,0.0,0.0,0.0,0.0,0.0,0.0,0.0,0.0,0.0,1.0,0.0,0.0,0.0,0.0,0.0,0.0,0.0,0.0,0.0,0.0,0.0,0.0,1.0,0.0,0.0,0.0,0.0,0.0,0.0,0.0,0.0,0.0,0.0,0.0,0.0,1.0,0.0,0.0,0.0,0.0,0.0,0.0,0.0,0.0,0.0,0.0,0.0,0.0,1.0,0,0,0,0,0,0,0,0,0,0,0,0,0,0,0,0,0,0,0,0,0,0,0,0,0,0,0,0,0,0,0,0,0,0,0,0
1777364837.3073766,242,1777364833.0926185,,,0,0,,,0,0,0.0,0.0,0.0,0.0,0.0,0.0,0.0,0.0,0.0,0.0,0.0,0.0,0.0,0.0,0.0,0.0,0.0,0.0,0.0,0.0,0.0,0.0,0.0,0.0,0.0,0.0,0.0,781.9363403320312,600.240966796875,1122.1759033203125,1030.826171875,634.8510131835938,1123.70458984375,830.8095092773438,421.9905700683594,1151.5538330078125,992.024169921875,425.94415283203125,1154.8021240234375,710.189697265625,557.1033325195312,871.22998046875,721.56396484375,643.7257690429688,630.6051635742188,721.9509887695312,519.7039794921875,520.4559936523438,752.37060546875,406.5726623535156,357.1855773925781,848.5685424804688,303.6785583496094,334.6149597167969,720.8740844726562,503.0041198730469,204.56924438476562,1086.068359375,583.0955810546875,802.2482299804688,1031.8095703125,545.5203857421875,569.6329345703125,1041.13232421875,525.8092041015625,433.75762939453125,990.4660034179688,496.23504638671875,224.1279754638672,922.4854736328125,418.8055114746094,166.1531982421875,967.5648803710938,681.0369873046875,176.9837188720703,0.0,0.0,0.0,0.0,0.0,0.0,0.0,0.0,0.0,0.0,0.0,0.0,1.0,0.0,0.0,0.0,0.0,0.0,0.0,0.0,0.0,0.0,0.0,0.0,0.0,1.0,0.0,0.0,0.0,0.0,0.0,0.0,0.0,0.0,0.0,0.0,0.0,0.0,1.0,0.0,0.0,0.0,0.0,0.0,0.0,0.0,0.0,0.0,0.0,0.0,0.0,1.0,0.0,0.0,0.0,0.0,0.0,0.0,0.0,0.0,0.0,0.0,0.0,0.0,1.0,0.0,0.0,0.0,0.0,0.0,0.0,0.0,0.0,0.0,0.0,0.0,0.0,1.0,0.0,0.0,0.0,0.0,0.0,0.0,0.0,0.0,0.0,0.0,0.0,0.0,1.0,0,0,0,0,0,0,0,0,0,0,0,0,0,0,0,0,0,0,0,0,0,0,0,0,0,0,0,0,0,0,0,0,0,0,0,0
1777364837.3073766,243,1777364833.103463,,,0,0,,,0,0,0.0,0.0,0.0,0.0,0.0,0.0,0.0,0.0,0.0,0.0,0.0,0.0,0.0,0.0,0.0,0.0,0.0,0.0,0.0,0.0,0.0,0.0,0.0,0.0,0.0,0.0,0.0,782.7017822265625,599.4409790039062,1122.836669921875,1031.66650390625,633.880126953125,1123.8499755859375,831.4177856445312,421.1460266113281,1152.331298828125,992.5816040039062,425.16693115234375,1155.2999267578125,711.1123046875,556.83984375,872.6967163085938,721.728759765625,647.689453125,632.8064575195312,721.88427734375,526.9865112304688,517.908447265625,751.7991943359375,419.7592468261719,350.6239318847656,847.6805419921875,317.9290771484375,322.8488464355469,718.5694580078125,522.7818603515625,202.98886108398438,1086.3187255859375,580.3524169921875,802.0363159179688,1032.06640625,540.442626953125,569.7237548828125,1041.2587890625,519.6853637695312,433.9480895996094,990.4607543945312,488.8289794921875,224.4831085205078,922.6832885742188,411.23712158203125,166.43382263183594,967.7666015625,673.4378662109375,176.94732666015625,0.0,0.0,0.0,0.0,0.0,0.0,0.0,0.0,0.0,0.0,0.0,0.0,1.0,0.0,0.0,0.0,0.0,0.0,0.0,0.0,0.0,0.0,0.0,0.0,0.0,1.0,0.0,0.0,0.0,0.0,0.0,0.0,0.0,0.0,0.0,0.0,0.0,0.0,1.0,0.0,0.0,0.0,0.0,0.0,0.0,0.0,0.0,0.0,0.0,0.0,0.0,1.0,0.0,0.0,0.0,0.0,0.0,0.0,0.0,0.0,0.0,0.0,0.0,0.0,1.0,0.0,0.0,0.0,0.0,0.0,0.0,0.0,0.0,0.0,0.0,0.0,0.0,1.0,0.0,0.0,0.0,0.0,0.0,0.0,0.0,0.0,0.0,0.0,0.0,0.0,1.0,0,0,0,0,0,0,0,0,0,0,0,0,0,0,0,0,0,0,0,0,0,0,0,0,0,0,0,0,0,0,0,0,0,0,0,0
1777364837.3073766,244,1777364833.1144266,,,0,0,,,0,0,0.0,0.0,0.0,0.0,0.0,0.0,0.0,0.0,0.0,0.0,0.0,0.0,0.0,0.0,0.0,0.0,0.0,0.0,0.0,0.0,0.0,0.0,0.0,0.0,0.0,0.0,0.0,783.3737182617188,598.6728515625,1123.3936767578125,1032.416259765625,632.9303588867188,1123.9041748046875,831.922607421875,420.34368896484375,1153.0316162109375,993.0339965820312,424.4013366699219,1155.736572265625,712.1066284179688,556.2399291992188,873.920166015625,722.0524291992188,651.1253051757812,634.6836547851562,721.6720581054688,534.2537231445312,514.7294311523438,750.8497314453125,433.5596618652344,343.3338317871094,846.0626220703125,332.90484619140625,310.294921875,716.401123046875,543.2689819335938,201.0205535888672,1086.496337890625,577.609375,801.801513671875,1032.2967529296875,535.3463134765625,569.795166015625,1041.36767578125,513.5572509765625,434.1173400878906,990.4451293945312,481.42327880859375,224.82403564453125,922.880615234375,403.6770935058594,166.69544982910156,967.967529296875,665.83984375,176.90460205078125,0.0,0.0,0.0,0.0,0.0,0.0,0.0,0.0,0.0,0.0,0.0,0.0,1.0,0.0,0.0,0.0,0.0,0.0,0.0,0.0,0.0,0.0,0.0,0.0,0.0,1.0,0.0,0.0,0.0,0.0,0.0,0.0,0.0,0.0,0.0,0.0,0.0,0.0,1.0,0.0,0.0,0.0,0.0,0.0,0.0,0.0,0.0,0.0,0.0,0.0,0.0,1.0,0.0,0.0,0.0,0.0,0.0,0.0,0.0,0.0,0.0,0.0,0.0,0.0,1.0,0.0,0.0,0.0,0.0,0.0,0.0,0.0,0.0,0.0,0.0,0.0,0.0,1.0,0.0,0.0,0.0,0.0,0.0,0.0,0.0,0.0,0.0,0.0,0.0,0.0,1.0,0,0,0,0,0,0,0,0,0,0,0,0,0,0,0,0,0,0,0,0,0,0,0,0,0,0,0,0,0,0,0,0,0,0,0,0
1777364837.3073766,245,1777364833.125612,,,0,0,,,0,0,0.0,0.0,0.0,0.0,0.0,0.0,0.0,0.0,0.0,0.0,0.0,0.0,0.0,0.0,0.0,0.0,0.0,0.0,0.0,0.0,0.0,0.0,0.0,0.0,0.0,0.0,0.0,783.9481811523438,597.9432983398438,1123.834716796875,1033.0689697265625,632.0151977539062,1123.8621826171875,832.326171875,419.59320068359375,1153.6463623046875,993.384521484375,423.6589660644531,1156.1099853515625,713.1336059570312,555.3446655273438,874.8897705078125,722.5220336914062,654.014892578125,636.211669921875,721.3115844726562,541.5214233398438,510.97576904296875,749.5419921875,447.9969177246094,335.4599609375,843.8159790039062,348.63201904296875,297.0633544921875,714.3439331054688,564.4374389648438,198.8124542236328,1086.611328125,574.866455078125,801.5388793945312,1032.5040283203125,530.2368774414062,569.8432006835938,1041.4608154296875,507.4310302734375,434.2628173828125,990.4208374023438,474.0201110839844,225.14991760253906,923.0712280273438,396.124267578125,166.93359375,968.1668701171875,658.2428588867188,176.8577117919922,0.0,0.0,0.0,0.0,0.0,0.0,0.0,0.0,0.0,0.0,0.0,0.0,1.0,0.0,0.0,0.0,0.0,0.0,0.0,0.0,0.0,0.0,0.0,0.0,0.0,1.0,0.0,0.0,0.0,0.0,0.0,0.0,0.0,0.0,0.0,0.0,0.0,0.0,1.0,0.0,0.0,0.0,0.0,0.0,0.0,0.0,0.0,0.0,0.0,0.0,0.0,1.0,0.0,0.0,0.0,0.0,0.0,0.0,0.0,0.0,0.0,0.0,0.0,0.0,1.0,0.0,0.0,0.0,0.0,0.0,0.0,0.0,0.0,0.0,0.0,0.0,0.0,1.0,0.0,0.0,0.0,0.0,0.0,0.0,0.0,0.0,0.0,0.0,0.0,0.0,1.0,0,0,0,0,0,0,0,0,0,0,0,0,0,0,0,0,0,0,0,0,0,0,0,0,0,0,0,0,0,0,0,0,0,0,0,0
1777364837.3073766,246,1777364833.1361353,,,0,0,,,0,0,0.0,0.0,0.0,0.0,0.0,0.0,0.0,0.0,0.0,0.0,0.0,0.0,0.0,0.0,0.0,0.0,0.0,0.0,0.0,0.0,0.0,0.0,0.0,0.0,0.0,0.0,0.0,784.4235229492188,597.2601928710938,1124.14892578125,1033.6212158203125,631.1456909179688,1123.71923828125,832.6298217773438,418.9040832519531,1154.16748046875,993.635498046875,422.950439453125,1156.4176025390625,714.1500244140625,554.199951171875,875.600341796875,723.1202392578125,656.3438110351562,637.3720092773438,720.802978515625,548.8040771484375,506.715087890625,747.9071655273438,463.0887145996094,327.1600036621094,841.06005859375,365.1473693847656,283.3172302246094,712.371826171875,586.2332763671875,196.5101318359375,1086.672607421875,572.1223754882812,801.2442626953125,1032.690673828125,525.1195068359375,569.8652954101562,1041.5396728515625,501.311767578125,434.3839416503906,990.3895263671875,466.62060546875,225.46128845214844,923.2500610351562,388.5758972167969,167.14569091796875,968.3644409179688,650.6464233398438,176.80975341796875,0.0,0.0,0.0,0.0,0.0,0.0,0.0,0.0,0.0,0.0,0.0,0.0,1.0,0.0,0.0,0.0,0.0,0.0,0.0,0.0,0.0,0.0,0.0,0.0,0.0,1.0,0.0,0.0,0.0,0.0,0.0,0.0,0.0,0.0,0.0,0.0,0.0,0.0,1.0,0.0,0.0,0.0,0.0,0.0,0.0,0.0,0.0,0.0,0.0,0.0,0.0,1.0,0.0,0.0,0.0,0.0,0.0,0.0,0.0,0.0,0.0,0.0,0.0,0.0,1.0,0.0,0.0,0.0,0.0,0.0,0.0,0.0,0.0,0.0,0.0,0.0,0.0,1.0,0.0,0.0,0.0,0.0,0.0,0.0,0.0,0.0,0.0,0.0,0.0,0.0,1.0,0,0,0,0,0,0,0,0,0,0,0,0,0,0,0,0,0,0,0,0,0,0,0,0,0,0,0,0,0,0,0,0,0,0,0,0
1777364837.3073766,247,1777364833.1491392,,,0,0,,,0,0,0.0,0.0,0.0,0.0,0.0,0.0,0.0,0.0,0.0,0.0,0.0,0.0,0.0,0.0,0.0,0.0,0.0,0.0,0.0,0.0,0.0,0.0,0.0,0.0,0.0,0.0,0.0,784.80029296875,596.632568359375,1124.3271484375,1034.072509765625,630.330322265625,1123.4722900390625,832.8341064453125,418.2854919433594,1154.587890625,993.7885131835938,422.28521728515625,1156.65673828125,715.1114501953125,552.8536987304688,876.0509643554688,723.8260498046875,658.1036987304688,638.1527099609375,720.1498413085938,556.1129760742188,502.0259094238281,745.9877319335938,478.8419189453125,318.60247802734375,837.9204711914062,382.48358154296875,269.2627868652344,710.468017578125,608.5804443359375,194.26040649414062,1086.6878662109375,569.3750610351562,800.9144287109375,1032.8585205078125,519.999267578125,569.8606567382812,1041.6055908203125,495.20361328125,434.48193359375,990.3533935546875,459.2250671386719,225.75987243652344,923.4146118164062,381.0287780761719,167.33206176757812,968.5610961914062,643.0498657226562,176.76434326171875,0.0,0.0,0.0,0.0,0.0,0.0,0.0,0.0,0.0,0.0,0.0,0.0,1.0,0.0,0.0,0.0,0.0,0.0,0.0,0.0,0.0,0.0,0.0,0.0,0.0,1.0,0.0,0.0,0.0,0.0,0.0,0.0,0.0,0.0,0.0,0.0,0.0,0.0,1.0,0.0,0.0,0.0,0.0,0.0,0.0,0.0,0.0,0.0,0.0,0.0,0.0,1.0,0.0,0.0,0.0,0.0,0.0,0.0,0.0,0.0,0.0,0.0,0.0,0.0,1.0,0.0,0.0,0.0,0.0,0.0,0.0,0.0,0.0,0.0,0.0,0.0,0.0,1.0,0.0,0.0,0.0,0.0,0.0,0.0,0.0,0.0,0.0,0.0,0.0,0.0,1.0,0,0,0,0,0,0,0,0,0,0,0,0,0,0,0,0,0,0,0,0,0,0,0,0,0,0,0,0,0,0,0,0,0,0,0,0
1777364837.3073766,248,1777364833.1501398,,,0,0,,,0,0,0.0,0.0,0.0,0.0,0.0,0.0,0.0,0.0,0.0,0.0,0.0,0.0,0.0,0.0,0.0,0.0,0.0,0.0,0.0,0.0,0.0,0.0,0.0,0.0,0.0,0.0,0.0,785.0808715820312,596.0704345703125,1124.3621826171875,1034.425048828125,629.5755615234375,1123.1195068359375,832.9387817382812,417.74627685546875,1154.90087890625,993.844482421875,421.6717529296875,1156.82421875,715.9752807617188,551.3535766601562,876.244140625,724.6153564453125,659.294189453125,638.5490112304688,719.3600463867188,563.453369140625,496.9971008300781,743.836181640625,495.2466125488281,309.9636535644531,834.5153198242188,400.6567077636719,255.13258361816406,708.634033203125,631.3858642578125,192.2163848876953,1086.6639404296875,566.62255859375,800.5471801757812,1033.0089111328125,514.880859375,569.8297729492188,1041.6600341796875,489.1096496582031,434.559326171875,990.3148193359375,451.8331604003906,226.04823303222656,923.5657348632812,373.4797058105469,167.49649047851562,968.7586059570312,635.45263671875,176.7250518798828,0.0,0.0,0.0,0.0,0.0,0.0,0.0,0.0,0.0,0.0,0.0,0.0,1.0,0.0,0.0,0.0,0.0,0.0,0.0,0.0,0.0,0.0,0.0,0.0,0.0,1.0,0.0,0.0,0.0,0.0,0.0,0.0,0.0,0.0,0.0,0.0,0.0,0.0,1.0,0.0,0.0,0.0,0.0,0.0,0.0,0.0,0.0,0.0,0.0,0.0,0.0,1.0,0.0,0.0,0.0,0.0,0.0,0.0,0.0,0.0,0.0,0.0,0.0,0.0,1.0,0.0,0.0,0.0,0.0,0.0,0.0,0.0,0.0,0.0,0.0,0.0,0.0,1.0,0.0,0.0,0.0,0.0,0.0,0.0,0.0,0.0,0.0,0.0,0.0,0.0,1.0,0,0,0,0,0,0,0,0,0,0,0,0,0,0,0,0,0,0,0,0,0,0,0,0,0,0,0,0,0,0,0,0,0,0,0,0
1777364837.3073766,249,1777364833.1602485,,,0,0,,,0,0,0.0,0.0,0.0,0.0,0.0,0.0,0.0,0.0,0.0,0.0,0.0,0.0,0.0,0.0,0.0,0.0,0.0,0.0,0.0,0.0,0.0,0.0,0.0,0.0,0.0,0.0,0.0,785.2692260742188,595.5842895507812,1124.249267578125,1034.683349609375,628.8858642578125,1122.6602783203125,832.943115234375,417.2947082519531,1155.10107421875,993.8036499023438,421.1175231933594,1156.9166259765625,716.7036743164062,549.7445068359375,876.1851196289062,725.4622802734375,659.9249267578125,638.5636596679688,718.447265625,570.8218383789062,491.72705078125,741.51416015625,512.269287109375,301.4234619140625,830.9454345703125,419.6562805175781,241.16769409179688,706.89697265625,654.5447387695312,190.5403289794922,1086.6065673828125,563.8635864257812,800.141357421875,1033.142333984375,509.7691650390625,569.7744140625,1041.70458984375,483.0322570800781,434.6195068359375,990.276611328125,444.444091796875,226.32952880859375,923.7072143554688,365.9259033203125,167.64584350585938,968.959716796875,627.8546752929688,176.6945037841797,0.0,0.0,0.0,0.0,0.0,0.0,0.0,0.0,0.0,0.0,0.0,0.0,1.0,0.0,0.0,0.0,0.0,0.0,0.0,0.0,0.0,0.0,0.0,0.0,0.0,1.0,0.0,0.0,0.0,0.0,0.0,0.0,0.0,0.0,0.0,0.0,0.0,0.0,1.0,0.0,0.0,0.0,0.0,0.0,0.0,0.0,0.0,0.0,0.0,0.0,0.0,1.0,0.0,0.0,0.0,0.0,0.0,0.0,0.0,0.0,0.0,0.0,0.0,0.0,1.0,0.0,0.0,0.0,0.0,0.0,0.0,0.0,0.0,0.0,0.0,0.0,0.0,1.0,0.0,0.0,0.0,0.0,0.0,0.0,0.0,0.0,0.0,0.0,0.0,0.0,1.0,0,0,0,0,0,0,0,0,0,0,0,0,0,0,0,0,0,0,0,0,0,0,0,0,0,0,0,0,0,0,0,0,0,0,0,0
1777364837.3073766,250,1777364833.1708164,,,0,0,,,0,0,0.0,0.0,0.0,0.0,0.0,0.0,0.0,0.0,0.0,0.0,0.0,0.0,0.0,0.0,0.0,0.0,0.0,0.0,0.0,0.0,0.0,0.0,0.0,0.0,0.0,0.0,0.0,785.3701171875,595.1849975585938,1123.9862060546875,1034.8533935546875,628.2642211914062,1122.0963134765625,832.8458251953125,416.93853759765625,1155.18359375,993.6657104492188,420.62921142578125,1156.9305419921875,717.265869140625,548.0675659179688,875.881103515625,726.3403930664062,660.0177612304688,638.2068481445312,717.431884765625,578.2039184570312,486.3216552734375,739.0899047851562,529.8466186523438,293.1600646972656,827.2890014648438,439.4380798339844,227.60205078125,705.3128051757812,677.9425048828125,189.40191650390625,1086.5203857421875,561.0982055664062,799.6967163085938,1033.259033203125,504.6689453125,569.6968383789062,1041.740478515625,476.9735412597656,434.6663513183594,990.2412719726562,437.05712890625,226.60714721679688,923.8450927734375,358.3651428222656,167.7889404296875,969.166748046875,620.2560424804688,176.6735382080078,0.0,0.0,0.0,0.0,0.0,0.0,0.0,0.0,0.0,0.0,0.0,0.0,1.0,0.0,0.0,0.0,0.0,0.0,0.0,0.0,0.0,0.0,0.0,0.0,0.0,1.0,0.0,0.0,0.0,0.0,0.0,0.0,0.0,0.0,0.0,0.0,0.0,0.0,1.0,0.0,0.0,0.0,0.0,0.0,0.0,0.0,0.0,0.0,0.0,0.0,0.0,1.0,0.0,0.0,0.0,0.0,0.0,0.0,0.0,0.0,0.0,0.0,0.0,0.0,1.0,0.0,0.0,0.0,0.0,0.0,0.0,0.0,0.0,0.0,0.0,0.0,0.0,1.0,0.0,0.0,0.0,0.0,0.0,0.0,0.0,0.0,0.0,0.0,0.0,0.0,1.0,0,0,0,0,0,0,0,0,0,0,0,0,0,0,0,0,0,0,0,0,0,0,0,0,0,0,0,0,0,0,0,0,0,0,0,0
1777364837.3073766,251,1777364833.182804,,,0,0,,,0,0,0.0,0.0,0.0,0.0,0.0,0.0,0.0,0.0,0.0,0.0,0.0,0.0,0.0,0.0,0.0,0.0,0.0,0.0,0.0,0.0,0.0,0.0,0.0,0.0,0.0,0.0,0.0,785.3889770507812,594.8833618164062,1123.573486328125,1034.9420166015625,627.712646484375,1121.4307861328125,832.6454467773438,416.6847839355469,1155.145263671875,993.4299926757812,420.2126770019531,1156.8626708984375,717.6398315429688,546.3602294921875,875.3414306640625,727.2245483398438,659.6080932617188,637.4963989257812,716.3413696289062,585.5731201171875,480.8910217285156,736.635986328125,547.8802490234375,285.34283447265625,823.6026611328125,459.91937255859375,214.650634765625,703.9652099609375,701.4539184570312,188.97108459472656,1086.4083251953125,558.3284301757812,799.2135620117188,1033.358154296875,499.585693359375,569.60009765625,1041.7689208984375,470.93597412109375,434.70391845703125,990.2111206054688,429.6717224121094,226.88467407226562,923.9859619140625,350.79608154296875,167.93447875976562,969.380859375,612.656982421875,176.6605224609375,0.0,0.0,0.0,0.0,0.0,0.0,0.0,0.0,0.0,0.0,0.0,0.0,1.0,0.0,0.0,0.0,0.0,0.0,0.0,0.0,0.0,0.0,0.0,0.0,0.0,1.0,0.0,0.0,0.0,0.0,0.0,0.0,0.0,0.0,0.0,0.0,0.0,0.0,1.0,0.0,0.0,0.0,0.0,0.0,0.0,0.0,0.0,0.0,0.0,0.0,0.0,1.0,0.0,0.0,0.0,0.0,0.0,0.0,0.0,0.0,0.0,0.0,0.0,0.0,1.0,0.0,0.0,0.0,0.0,0.0,0.0,0.0,0.0,0.0,0.0,0.0,0.0,1.0,0.0,0.0,0.0,0.0,0.0,0.0,0.0,0.0,0.0,0.0,0.0,0.0,1.0,0,0,0,0,0,0,0,0,0,0,0,0,0,0,0,0,0,0,0,0,0,0,0,0,0,0,0,0,0,0,0,0,0,0,0,0
1777364837.3073766,252,1777364833.1934564,,,0,0,,,0,0,0.0,0.0,0.0,0.0,0.0,0.0,0.0,0.0,0.0,0.0,0.0,0.0,0.0,0.0,0.0,0.0,0.0,0.0,0.0,0.0,0.0,0.0,0.0,0.0,0.0,0.0,0.0,785.3312377929688,594.6895751953125,1123.0145263671875,1034.956298828125,627.2324829101562,1120.66845703125,832.340576171875,416.53961181640625,1154.984130859375,993.0958251953125,419.87322998046875,1156.7098388671875,717.812744140625,544.6575317382812,874.5778198242188,728.0921630859375,658.7456665039062,636.4573364257812,715.208984375,592.8903198242188,475.544921875,734.2260131835938,566.2328491210938,278.12445068359375,819.9264526367188,480.97430419921875,202.50221252441406,702.9591674804688,724.9369506835938,189.40499877929688,1086.2716064453125,555.5584716796875,798.69287109375,1033.4381103515625,494.52569580078125,569.487060546875,1041.7901611328125,464.92279052734375,434.7359619140625,990.1873779296875,422.2877502441406,227.16574096679688,924.1353149414062,343.2180480957031,168.08938598632812,969.6010131835938,605.057373046875,176.65151977539062,0.0,0.0,0.0,0.0,0.0,0.0,0.0,0.0,0.0,0.0,0.0,0.0,1.0,0.0,0.0,0.0,0.0,0.0,0.0,0.0,0.0,0.0,0.0,0.0,0.0,1.0,0.0,0.0,0.0,0.0,0.0,0.0,0.0,0.0,0.0,0.0,0.0,0.0,1.0,0.0,0.0,0.0,0.0,0.0,0.0,0.0,0.0,0.0,0.0,0.0,0.0,1.0,0.0,0.0,0.0,0.0,0.0,0.0,0.0,0.0,0.0,0.0,0.0,0.0,1.0,0.0,0.0,0.0,0.0,0.0,0.0,0.0,0.0,0.0,0.0,0.0,0.0,1.0,0.0,0.0,0.0,0.0,0.0,0.0,0.0,0.0,0.0,0.0,0.0,0.0,1.0,0,0,0,0,0,0,0,0,0,0,0,0,0,0,0,0,0,0,0,0,0,0,0,0,0,0,0,0,0,0,0,0,0,0,0,0
1777364837.3073766,253,1777364833.207296,,,0,0,,,0,0,0.0,0.0,0.0,0.0,0.0,0.0,0.0,0.0,0.0,0.0,0.0,0.0,0.0,0.0,0.0,0.0,0.0,0.0,0.0,0.0,0.0,0.0,0.0,0.0,0.0,0.0,0.0,785.2017822265625,594.613037109375,1122.3150634765625,1034.9027099609375,626.8250122070312,1119.8160400390625,831.9301147460938,416.50823974609375,1154.6993408203125,992.662353515625,419.6156311035156,1156.4693603515625,717.7808837890625,542.9940795898438,873.6043701171875,728.9249877929688,657.4943237304688,635.1211547851562,714.0724487304688,600.1047973632812,470.38726806640625,731.9319458007812,584.7275390625,271.6319580078125,816.2906494140625,502.4263916015625,191.31753540039062,702.4104614257812,748.223876953125,190.8289031982422,1086.109375,552.7953491210938,798.1358032226562,1033.4954833984375,489.496337890625,569.3609619140625,1041.802734375,458.9383544921875,434.76611328125,990.1703491210938,414.90570068359375,227.4542236328125,924.296875,335.6305236816406,168.25779724121094,969.8245239257812,597.4564819335938,176.6412811279297,0.0,0.0,0.0,0.0,0.0,0.0,0.0,0.0,0.0,0.0,0.0,0.0,1.0,0.0,0.0,0.0,0.0,0.0,0.0,0.0,0.0,0.0,0.0,0.0,0.0,1.0,0.0,0.0,0.0,0.0,0.0,0.0,0.0,0.0,0.0,0.0,0.0,0.0,1.0,0.0,0.0,0.0,0.0,0.0,0.0,0.0,0.0,0.0,0.0,0.0,0.0,1.0,0.0,0.0,0.0,0.0,0.0,0.0,0.0,0.0,0.0,0.0,0.0,0.0,1.0,0.0,0.0,0.0,0.0,0.0,0.0,0.0,0.0,0.0,0.0,0.0,0.0,1.0,0.0,0.0,0.0,0.0,0.0,0.0,0.0,0.0,0.0,0.0,0.0,0.0,1.0,0,0,0,0,0,0,0,0,0,0,0,0,0,0,0,0,0,0,0,0,0,0,0,0,0,0,0,0,0,0,0,0,0,0,0,0
1777364837.3073766,254,1777364833.2179906,,,0,0,,,0,0,0.0,0.0,0.0,0.0,0.0,0.0,0.0,0.0,0.0,0.0,0.0,0.0,0.0,0.0,0.0,0.0,0.0,0.0,0.0,0.0,0.0,0.0,0.0,0.0,0.0,0.0,0.0,785.0048217773438,594.6619873046875,1121.484130859375,1034.78662109375,626.4918212890625,1118.8814697265625,831.4130859375,416.5950012207031,1154.292236328125,992.1290893554688,419.4443664550781,1156.139404296875,717.549560546875,541.4058227539062,872.4385375976562,729.7096557617188,655.9314575195312,633.5247802734375,712.9713745117188,607.1558227539062,465.5101013183594,729.8224487304688,603.1493530273438,265.95849609375,812.723388671875,524.0414428710938,181.23028564453125,702.4313354492188,771.1128540039062,193.31414794921875,1085.9180908203125,550.0487060546875,797.5438842773438,1033.525634765625,484.50640869140625,569.224853515625,1041.803955078125,452.98834228515625,434.7977294921875,990.1588745117188,407.52655029296875,227.7544708251953,924.47216796875,328.0330505371094,168.44100952148438,970.0476684570312,589.8530883789062,176.6251220703125,0.0,0.0,0.0,0.0,0.0,0.0,0.0,0.0,0.0,0.0,0.0,0.0,1.0,0.0,0.0,0.0,0.0,0.0,0.0,0.0,0.0,0.0,0.0,0.0,0.0,1.0,0.0,0.0,0.0,0.0,0.0,0.0,0.0,0.0,0.0,0.0,0.0,0.0,1.0,0.0,0.0,0.0,0.0,0.0,0.0,0.0,0.0,0.0,0.0,0.0,0.0,1.0,0.0,0.0,0.0,0.0,0.0,0.0,0.0,0.0,0.0,0.0,0.0,0.0,1.0,0.0,0.0,0.0,0.0,0.0,0.0,0.0,0.0,0.0,0.0,0.0,0.0,1.0,0.0,0.0,0.0,0.0,0.0,0.0,0.0,0.0,0.0,0.0,0.0,0.0,1.0,0,0,0,0,0,0,0,0,0,0,0,0,0,0,0,0,0,0,0,0,0,0,0,0,0,0,0,0,0,0,0,0,0,0,0,0
1777364837.3073766,255,1777364833.2189937,,,0,0,,,0,0,0.0,0.0,0.0,0.0,0.0,0.0,0.0,0.0,0.0,0.0,0.0,0.0,0.0,0.0,0.0,0.0,0.0,0.0,0.0,0.0,0.0,0.0,0.0,0.0,0.0,0.0,0.0,784.7432250976562,594.8431396484375,1120.5328369140625,1034.61181640625,626.2351684570312,1117.8743896484375,830.7893676757812,416.8031005859375,1153.765625,991.4957885742188,419.3634948730469,1155.7183837890625,717.1320190429688,539.9313354492188,871.1010131835938,730.4387817382812,654.1452026367188,631.709716796875,711.9459838867188,613.9752807617188,460.987548828125,727.9607543945312,621.2510986328125,261.1563415527344,809.2591552734375,545.5264892578125,172.34596252441406,703.1150512695312,793.3638916015625,196.8577117919922,1085.6923828125,547.3314208984375,796.918701171875,1033.522216796875,479.566162109375,569.0819702148438,1041.7889404296875,447.07977294921875,434.83447265625,990.150390625,400.1518859863281,228.0714874267578,924.6610107421875,320.4251403808594,168.63772583007812,970.2669677734375,582.2453002929688,176.6004180908203,0.0,0.0,0.0,0.0,0.0,0.0,0.0,0.0,0.0,0.0,0.0,0.0,1.0,0.0,0.0,0.0,0.0,0.0,0.0,0.0,0.0,0.0,0.0,0.0,0.0,1.0,0.0,0.0,0.0,0.0,0.0,0.0,0.0,0.0,0.0,0.0,0.0,0.0,1.0,0.0,0.0,0.0,0.0,0.0,0.0,0.0,0.0,0.0,0.0,0.0,0.0,1.0,0.0,0.0,0.0,0.0,0.0,0.0,0.0,0.0,0.0,0.0,0.0,0.0,1.0,0.0,0.0,0.0,0.0,0.0,0.0,0.0,0.0,0.0,0.0,0.0,0.0,1.0,0.0,0.0,0.0,0.0,0.0,0.0,0.0,0.0,0.0,0.0,0.0,0.0,1.0,0,0,0,0,0,0,0,0,0,0,0,0,0,0,0,0,0,0,0,0,0,0,0,0,0,0,0,0,0,0,0,0,0,0,0,0
1777364837.3073766,256,1777364833.229991,,,0,0,,,0,0,0.0,0.0,0.0,0.0,0.0,0.0,0.0,0.0,0.0,0.0,0.0,0.0,0.0,0.0,0.0,0.0,0.0,0.0,0.0,0.0,0.0,0.0,0.0,0.0,0.0,0.0,0.0,784.418701171875,595.1615600585938,1119.4747314453125,1034.380615234375,626.0582275390625,1116.8055419921875,830.059326171875,417.134765625,1153.1241455078125,990.7626953125,419.3769226074219,1155.20654296875,716.5484619140625,538.6122436523438,869.6158447265625,731.1106567382812,652.2318725585938,629.7203979492188,711.0352783203125,620.490966796875,456.87115478515625,726.40283203125,638.76171875,257.23223876953125,805.9461669921875,566.5364990234375,164.7369842529297,704.5225830078125,814.701904296875,201.3670196533203,1085.4244384765625,544.659423828125,796.2620849609375,1033.477294921875,474.6873779296875,568.9359741210938,1041.7509765625,441.22076416015625,434.88043212890625,990.140869140625,392.7837829589844,228.41119384765625,924.8619384765625,312.80633544921875,168.8443145751953,970.4794311523438,574.6309814453125,176.56689453125,0.0,0.0,0.0,0.0,0.0,0.0,0.0,0.0,0.0,0.0,0.0,0.0,1.0,0.0,0.0,0.0,0.0,0.0,0.0,0.0,0.0,0.0,0.0,0.0,0.0,1.0,0.0,0.0,0.0,0.0,0.0,0.0,0.0,0.0,0.0,0.0,0.0,0.0,1.0,0.0,0.0,0.0,0.0,0.0,0.0,0.0,0.0,0.0,0.0,0.0,0.0,1.0,0.0,0.0,0.0,0.0,0.0,0.0,0.0,0.0,0.0,0.0,0.0,0.0,1.0,0.0,0.0,0.0,0.0,0.0,0.0,0.0,0.0,0.0,0.0,0.0,0.0,1.0,0.0,0.0,0.0,0.0,0.0,0.0,0.0,0.0,0.0,0.0,0.0,0.0,1.0,0,0,0,0,0,0,0,0,0,0,0,0,0,0,0,0,0,0,0,0,0,0,0,0,0,0,0,0,0,0,0,0,0,0,0,0
1777364837.3073766,257,1777364833.2423122,,,0,0,,,0,0,0.0,0.0,0.0,0.0,0.0,0.0,0.0,0.0,0.0,0.0,0.0,0.0,0.0,0.0,0.0,0.0,0.0,0.0,0.0,0.0,0.0,0.0,0.0,0.0,0.0,0.0,0.0,784.0313110351562,595.6206665039062,1118.3255615234375,1034.0931396484375,625.96533203125,1115.686767578125,829.22412109375,417.591064453125,1152.37451171875,989.9306030273438,419.4883117675781,1154.6046142578125,715.8246459960938,537.492919921875,868.0103149414062,731.7288818359375,650.2918090820312,627.6029052734375,710.2764892578125,626.6302490234375,453.18670654296875,725.1951293945312,655.3983154296875,254.14651489257812,802.8491821289062,586.6862182617188,158.43453979492188,706.6732788085938,834.8270263671875,206.65225219726562,1085.1048583984375,542.0515747070312,795.5759887695312,1033.3819580078125,469.8834228515625,568.7908325195312,1041.682373046875,435.4203186035156,434.9406433105469,990.1254272460938,385.42449951171875,228.78070068359375,925.0723876953125,305.1763610839844,169.05508422851562,970.6832885742188,567.0081176757812,176.5263214111328,0.0,0.0,0.0,0.0,0.0,0.0,0.0,0.0,0.0,0.0,0.0,0.0,1.0,0.0,0.0,0.0,0.0,0.0,0.0,0.0,0.0,0.0,0.0,0.0,0.0,1.0,0.0,0.0,0.0,0.0,0.0,0.0,0.0,0.0,0.0,0.0,0.0,0.0,1.0,0.0,0.0,0.0,0.0,0.0,0.0,0.0,0.0,0.0,0.0,0.0,0.0,1.0,0.0,0.0,0.0,0.0,0.0,0.0,0.0,0.0,0.0,0.0,0.0,0.0,1.0,0.0,0.0,0.0,0.0,0.0,0.0,0.0,0.0,0.0,0.0,0.0,0.0,1.0,0.0,0.0,0.0,0.0,0.0,0.0,0.0,0.0,0.0,0.0,0.0,0.0,1.0,0,0,0,0,0,0,0,0,0,0,0,0,0,0,0,0,0,0,0,0,0,0,0,0,0,0,0,0,0,0,0,0,0,0,0,0
1777364837.3073766,258,1777364833.254838,,,0,0,,,0,0,0.0,0.0,0.0,0.0,0.0,0.0,0.0,0.0,0.0,0.0,0.0,0.0,0.0,0.0,0.0,0.0,0.0,0.0,0.0,0.0,0.0,0.0,0.0,0.0,0.0,0.0,0.0,783.5797119140625,596.2218017578125,1117.1029052734375,1033.7474365234375,625.9617309570312,1114.531005859375,828.2855834960938,418.172119140625,1151.5255126953125,989.0009155273438,419.70111083984375,1153.9151611328125,714.9901123046875,536.6192626953125,866.3141479492188,732.3013305664062,648.4254760742188,625.4036254882812,709.703369140625,632.3241577148438,449.93408203125,724.3724365234375,670.880859375,251.81553649902344,800.045166015625,605.5648803710938,153.41970825195312,709.5427856445312,853.4306640625,212.4285430908203,1084.7225341796875,539.5297241210938,794.8626098632812,1033.226806640625,465.16925048828125,568.6511840820312,1041.5740966796875,429.6878662109375,435.021240234375,990.098388671875,378.0765380859375,229.18824768066406,925.2887573242188,297.53546142578125,169.26315307617188,970.8779907226562,559.3756103515625,176.48158264160156,0.0,0.0,0.0,0.0,0.0,0.0,0.0,0.0,0.0,0.0,0.0,0.0,1.0,0.0,0.0,0.0,0.0,0.0,0.0,0.0,0.0,0.0,0.0,0.0,0.0,1.0,0.0,0.0,0.0,0.0,0.0,0.0,0.0,0.0,0.0,0.0,0.0,0.0,1.0,0.0,0.0,0.0,0.0,0.0,0.0,0.0,0.0,0.0,0.0,0.0,0.0,1.0,0.0,0.0,0.0,0.0,0.0,0.0,0.0,0.0,0.0,0.0,0.0,0.0,1.0,0.0,0.0,0.0,0.0,0.0,0.0,0.0,0.0,0.0,0.0,0.0,0.0,1.0,0.0,0.0,0.0,0.0,0.0,0.0,0.0,0.0,0.0,0.0,0.0,0.0,1.0,0,0,0,0,0,0,0,0,0,0,0,0,0,0,0,0,0,0,0,0,0,0,0,0,0,0,0,0,0,0,0,0,0,0,0,0
1777364837.3073766,259,1777364833.264988,,,0,0,,,0,0,0.0,0.0,0.0,0.0,0.0,0.0,0.0,0.0,0.0,0.0,0.0,0.0,0.0,0.0,0.0,0.0,0.0,0.0,0.0,0.0,0.0,0.0,0.0,0.0,0.0,0.0,0.0,783.0611572265625,596.96484375,1115.8258056640625,1033.340087890625,626.0538330078125,1113.3519287109375,827.2465209960938,418.8770751953125,1150.5875244140625,987.9755249023438,420.0184326171875,1153.1422119140625,714.0769653320312,536.0366821289062,864.5589599609375,732.8388061523438,646.7286987304688,623.1673583984375,709.3446655273438,637.5115966796875,447.0896301269531,723.9556884765625,684.9481201171875,250.1185760498047,797.6129760742188,622.7564086914062,149.61756896972656,713.0670166015625,870.2166137695312,218.32994079589844,1084.26611328125,537.1180419921875,794.1246948242188,1033.0020751953125,460.5617370605469,568.5223388671875,1041.4176025390625,424.0331726074219,435.12982177734375,990.053955078125,370.74249267578125,229.643310546875,925.5064086914062,289.8843688964844,169.46173095703125,971.0650634765625,551.7341918945312,176.43556213378906,0.0,0.0,0.0,0.0,0.0,0.0,0.0,0.0,0.0,0.0,0.0,0.0,1.0,0.0,0.0,0.0,0.0,0.0,0.0,0.0,0.0,0.0,0.0,0.0,0.0,1.0,0.0,0.0,0.0,0.0,0.0,0.0,0.0,0.0,0.0,0.0,0.0,0.0,1.0,0.0,0.0,0.0,0.0,0.0,0.0,0.0,0.0,0.0,0.0,0.0,0.0,1.0,0.0,0.0,0.0,0.0,0.0,0.0,0.0,0.0,0.0,0.0,0.0,0.0,1.0,0.0,0.0,0.0,0.0,0.0,0.0,0.0,0.0,0.0,0.0,0.0,0.0,1.0,0.0,0.0,0.0,0.0,0.0,0.0,0.0,0.0,0.0,0.0,0.0,0.0,1.0,0,0,0,0,0,0,0,0,0,0,0,0,0,0,0,0,0,0,0,0,0,0,0,0,0,0,0,0,0,0,0,0,0,0,0,0
1777364837.3073766,260,1777364833.2768698,,,0,0,,,0,0,0.0,0.0,0.0,0.0,0.0,0.0,0.0,0.0,0.0,0.0,0.0,0.0,0.0,0.0,0.0,0.0,0.0,0.0,0.0,0.0,0.0,0.0,0.0,0.0,0.0,0.0,0.0,782.4716796875,597.847900390625,1114.5142822265625,1032.86572265625,626.2485961914062,1112.163818359375,826.1102905273438,419.7041931152344,1149.572998046875,986.8569946289062,420.4429626464844,1152.2913818359375,713.1179809570312,535.78759765625,862.7774047851562,733.3533935546875,645.2891845703125,620.9364624023438,709.22216796875,642.14404296875,444.6112365722656,723.94921875,697.373779296875,248.90830993652344,795.6200561523438,637.8640747070312,146.90086364746094,717.150146484375,884.923583984375,223.9356689453125,1083.7235107421875,534.8427734375,793.3652954101562,1032.698974609375,456.07989501953125,568.4100341796875,1041.2047119140625,418.4660949707031,435.2754211425781,989.9867553710938,363.425048828125,230.1564178466797,925.7199096679688,282.2247314453125,169.6461639404297,971.2476196289062,544.0869140625,176.38983154296875,0.0,0.0,0.0,0.0,0.0,0.0,0.0,0.0,0.0,0.0,0.0,0.0,1.0,0.0,0.0,0.0,0.0,0.0,0.0,0.0,0.0,0.0,0.0,0.0,0.0,1.0,0.0,0.0,0.0,0.0,0.0,0.0,0.0,0.0,0.0,0.0,0.0,0.0,1.0,0.0,0.0,0.0,0.0,0.0,0.0,0.0,0.0,0.0,0.0,0.0,0.0,1.0,0.0,0.0,0.0,0.0,0.0,0.0,0.0,0.0,0.0,0.0,0.0,0.0,1.0,0.0,0.0,0.0,0.0,0.0,0.0,0.0,0.0,0.0,0.0,0.0,0.0,1.0,0.0,0.0,0.0,0.0,0.0,0.0,0.0,0.0,0.0,0.0,0.0,0.0,1.0,0,0,0,0,0,0,0,0,0,0,0,0,0,0,0,0,0,0,0,0,0,0,0,0,0,0,0,0,0,0,0,0,0,0,0,0
1777364837.3073766,261,1777364833.2879915,,,0,0,,,0,0,0.0,0.0,0.0,0.0,0.0,0.0,0.0,0.0,0.0,0.0,0.0,0.0,0.0,0.0,0.0,0.0,0.0,0.0,0.0,0.0,0.0,0.0,0.0,0.0,0.0,0.0,0.0,781.8060913085938,598.86767578125,1113.189208984375,1032.318115234375,626.5534057617188,1110.9815673828125,824.8807983398438,420.6509094238281,1148.4959716796875,985.6484985351562,420.976806640625,1151.3699951171875,712.1451416015625,535.908935546875,861.0017700195312,733.8568115234375,644.1824951171875,618.7496948242188,709.3482666015625,646.1892700195312,442.444580078125,724.338623046875,707.9813232421875,248.02456665039062,794.1079711914062,650.5376586914062,145.1083221435547,721.6752319335938,897.34716796875,228.80636596679688,1083.0836181640625,532.7316284179688,792.5880737304688,1032.31005859375,451.7455749511719,568.3203735351562,1040.9288330078125,412.99713134765625,435.46844482421875,989.892333984375,356.1270751953125,230.73899841308594,925.9232788085938,274.5591735839844,169.81634521484375,971.4299926757812,536.4385375976562,176.34371948242188,0.0,0.0,0.0,0.0,0.0,0.0,0.0,0.0,0.0,0.0,0.0,0.0,1.0,0.0,0.0,0.0,0.0,0.0,0.0,0.0,0.0,0.0,0.0,0.0,0.0,1.0,0.0,0.0,0.0,0.0,0.0,0.0,0.0,0.0,0.0,0.0,0.0,0.0,1.0,0.0,0.0,0.0,0.0,0.0,0.0,0.0,0.0,0.0,0.0,0.0,0.0,1.0,0.0,0.0,0.0,0.0,0.0,0.0,0.0,0.0,0.0,0.0,0.0,0.0,1.0,0.0,0.0,0.0,0.0,0.0,0.0,0.0,0.0,0.0,0.0,0.0,0.0,1.0,0.0,0.0,0.0,0.0,0.0,0.0,0.0,0.0,0.0,0.0,0.0,0.0,1.0,0,0,0,0,0,0,0,0,0,0,0,0,0,0,0,0,0,0,0,0,0,0,0,0,0,0,0,0,0,0,0,0,0,0,0,0
1777364837.3073766,262,1777364833.300817,,,0,0,,,0,0,0.0,0.0,0.0,0.0,0.0,0.0,0.0,0.0,0.0,0.0,0.0,0.0,0.0,0.0,0.0,0.0,0.0,0.0,0.0,0.0,0.0,0.0,0.0,0.0,0.0,0.0,0.0,781.058837890625,600.0197143554688,1111.8719482421875,1031.689697265625,626.9755249023438,1109.820068359375,823.5626831054688,421.71405029296875,1147.3719482421875,984.3536376953125,421.621337890625,1150.38671875,711.1873779296875,536.4290771484375,859.2633056640625,734.3588256835938,643.4692993164062,616.6417236328125,709.7235107421875,649.6347045898438,440.53070068359375,725.088623046875,716.6560668945312,247.30987548828125,793.0802612304688,660.5018920898438,144.07212829589844,726.5126342773438,907.3573608398438,232.52682495117188,1082.3367919921875,530.8131713867188,791.7974853515625,1031.829833984375,447.5843200683594,568.2593383789062,1040.585205078125,407.6377868652344,435.720458984375,989.7675170898438,348.85186767578125,231.40333557128906,926.1112670898438,266.8916015625,169.9795684814453,971.61669921875,528.7947998046875,176.2942657470703,0.0,0.0,0.0,0.0,0.0,0.0,0.0,0.0,0.0,0.0,0.0,0.0,1.0,0.0,0.0,0.0,0.0,0.0,0.0,0.0,0.0,0.0,0.0,0.0,0.0,1.0,0.0,0.0,0.0,0.0,0.0,0.0,0.0,0.0,0.0,0.0,0.0,0.0,1.0,0.0,0.0,0.0,0.0,0.0,0.0,0.0,0.0,0.0,0.0,0.0,0.0,1.0,0.0,0.0,0.0,0.0,0.0,0.0,0.0,0.0,0.0,0.0,0.0,0.0,1.0,0.0,0.0,0.0,0.0,0.0,0.0,0.0,0.0,0.0,0.0,0.0,0.0,1.0,0.0,0.0,0.0,0.0,0.0,0.0,0.0,0.0,0.0,0.0,0.0,0.0,1.0,0,0,0,0,0,0,0,0,0,0,0,0,0,0,0,0,0,0,0,0,0,0,0,0,0,0,0,0,0,0,0,0,0,0,0,0
1777364837.3073766,263,1777364833.3013444,,,0,0,,,0,0,0.0,0.0,0.0,0.0,0.0,0.0,0.0,0.0,0.0,0.0,0.0,0.0,0.0,0.0,0.0,0.0,0.0,0.0,0.0,0.0,0.0,0.0,0.0,0.0,0.0,0.0,0.0,780.2239990234375,601.2984008789062,1110.583251953125,1030.9730224609375,627.5213623046875,1108.694580078125,822.1607666015625,422.8896484375,1146.21728515625,982.9763793945312,422.3768310546875,1149.3524169921875,710.2691650390625,537.3658447265625,857.5912475585938,734.8656616210938,643.1930541992188,614.6429443359375,710.3345947265625,652.4893188476562,438.8136901855469,726.1421508789062,723.3533935546875,246.62454223632812,792.4957275390625,667.5850219726562,143.64111328125,731.5254516601562,914.9104614257812,234.75152587890625,1081.4754638671875,529.1160888671875,790.9983520507812,1031.2552490234375,443.62664794921875,568.2322998046875,1040.171875,402.4020080566406,436.0439453125,989.6116943359375,341.6036682128906,232.1631317138672,926.2801513671875,259.2273254394531,170.15370178222656,971.81201171875,521.1609497070312,176.2366485595703,0.0,0.0,0.0,0.0,0.0,0.0,0.0,0.0,0.0,0.0,0.0,0.0,1.0,0.0,0.0,0.0,0.0,0.0,0.0,0.0,0.0,0.0,0.0,0.0,0.0,1.0,0.0,0.0,0.0,0.0,0.0,0.0,0.0,0.0,0.0,0.0,0.0,0.0,1.0,0.0,0.0,0.0,0.0,0.0,0.0,0.0,0.0,0.0,0.0,0.0,0.0,1.0,0.0,0.0,0.0,0.0,0.0,0.0,0.0,0.0,0.0,0.0,0.0,0.0,1.0,0.0,0.0,0.0,0.0,0.0,0.0,0.0,0.0,0.0,0.0,0.0,0.0,1.0,0.0,0.0,0.0,0.0,0.0,0.0,0.0,0.0,0.0,0.0,0.0,0.0,1.0,0,0,0,0,0,0,0,0,0,0,0,0,0,0,0,0,0,0,0,0,0,0,0,0,0,0,0,0,0,0,0,0,0,0,0,0
1777364837.3073766,264,1777364833.309872,,,0,0,,,0,0,0.0,0.0,0.0,0.0,0.0,0.0,0.0,0.0,0.0,0.0,0.0,0.0,0.0,0.0,0.0,0.0,0.0,0.0,0.0,0.0,0.0,0.0,0.0,0.0,0.0,0.0,0.0,779.2957763671875,602.6973876953125,1109.343994140625,1030.160400390625,628.1961669921875,1107.619873046875,820.68017578125,424.1732482910156,1145.0498046875,981.52099609375,423.24237060546875,1148.279052734375,709.40869140625,538.7244262695312,856.0117797851562,735.3792114257812,643.37890625,612.7794799804688,711.152587890625,654.7838134765625,437.24737548828125,727.42236328125,728.1018676757812,245.85928344726562,792.2716064453125,671.745361328125,143.69180297851562,736.5704956054688,920.0526733398438,235.24806213378906,1080.4947509765625,527.6690063476562,790.1962280273438,1030.5863037109375,439.9090881347656,568.2435913085938,1039.6898193359375,397.30755615234375,436.4519348144531,989.4276123046875,334.38836669921875,233.0343475341797,926.4290161132812,251.57337951660156,170.36962890625,972.018798828125,513.5405883789062,176.16505432128906,0.0,0.0,0.0,0.0,0.0,0.0,0.0,0.0,0.0,0.0,0.0,0.0,1.0,0.0,0.0,0.0,0.0,0.0,0.0,0.0,0.0,0.0,0.0,0.0,0.0,1.0,0.0,0.0,0.0,0.0,0.0,0.0,0.0,0.0,0.0,0.0,0.0,0.0,1.0,0.0,0.0,0.0,0.0,0.0,0.0,0.0,0.0,0.0,0.0,0.0,0.0,1.0,0.0,0.0,0.0,0.0,0.0,0.0,0.0,0.0,0.0,0.0,0.0,0.0,1.0,0.0,0.0,0.0,0.0,0.0,0.0,0.0,0.0,0.0,0.0,0.0,0.0,1.0,0.0,0.0,0.0,0.0,0.0,0.0,0.0,0.0,0.0,0.0,0.0,0.0,1.0,0,0,0,0,0,0,0,0,0,0,0,0,0,0,0,0,0,0,0,0,0,0,0,0,0,0,0,0,0,0,0,0,0,0,0,0
1777364837.3073766,265,1777364833.32405,,,0,0,,,0,0,0.0,0.0,0.0,0.0,0.0,0.0,0.0,0.0,0.0,0.0,0.0,0.0,0.0,0.0,0.0,0.0,0.0,0.0,0.0,0.0,0.0,0.0,0.0,0.0,0.0,0.0,0.0,778.2692260742188,604.2096557617188,1108.1734619140625,1029.244873046875,629.0031127929688,1106.6102294921875,819.1260986328125,425.5596618652344,1143.887451171875,979.9918823242188,424.215576171875,1147.1798095703125,708.6168212890625,540.49658203125,854.5477294921875,735.8961791992188,644.0330810546875,611.073486328125,712.1327514648438,656.5692749023438,435.7999267578125,728.8372192382812,731.0009155273438,244.9436798095703,792.2965698242188,673.0901489257812,144.12762451171875,741.4987182617188,922.9163208007812,233.93234252929688,1079.3936767578125,526.4996337890625,789.39697265625,1029.826416015625,436.4757080078125,568.2957153320312,1039.1436767578125,392.3780822753906,436.9577941894531,989.221923828125,327.2149658203125,234.03582763671875,926.560791015625,243.93862915039062,170.67251586914062,972.2376708984375,505.9349670410156,176.0741424560547,0.0,0.0,0.0,0.0,0.0,0.0,0.0,0.0,0.0,0.0,0.0,0.0,1.0,0.0,0.0,0.0,0.0,0.0,0.0,0.0,0.0,0.0,0.0,0.0,0.0,1.0,0.0,0.0,0.0,0.0,0.0,0.0,0.0,0.0,0.0,0.0,0.0,0.0,1.0,0.0,0.0,0.0,0.0,0.0,0.0,0.0,0.0,0.0,0.0,0.0,0.0,1.0,0.0,0.0,0.0,0.0,0.0,0.0,0.0,0.0,0.0,0.0,0.0,0.0,1.0,0.0,0.0,0.0,0.0,0.0,0.0,0.0,0.0,0.0,0.0,0.0,0.0,1.0,0.0,0.0,0.0,0.0,0.0,0.0,0.0,0.0,0.0,0.0,0.0,0.0,1.0,0,0,0,0,0,0,0,0,0,0,0,0,0,0,0,0,0,0,0,0,0,0,0,0,0,0,0,0,0,0,0,0,0,0,0,0
1777364837.3073766,266,1777364833.3350427,,,0,0,,,0,0,0.0,0.0,0.0,0.0,0.0,0.0,0.0,0.0,0.0,0.0,0.0,0.0,0.0,0.0,0.0,0.0,0.0,0.0,0.0,0.0,0.0,0.0,0.0,0.0,0.0,0.0,0.0,777.140380859375,605.827392578125,1107.09033203125,1028.220458984375,629.9428100585938,1105.6795654296875,817.5036010742188,427.0430908203125,1142.7484130859375,978.3935546875,425.29229736328125,1146.0693359375,707.896484375,542.66064453125,853.21826171875,736.4078979492188,645.1432495117188,609.5431518554688,713.2155151367188,657.9136352539062,434.45611572265625,730.2871704101562,732.2124633789062,243.8490753173828,792.4530029296875,671.8778076171875,144.87033081054688,746.1563110351562,923.706787109375,230.88853454589844,1078.1746826171875,525.634765625,788.60693359375,1028.982666015625,433.37908935546875,568.3890380859375,1038.5413818359375,387.6451721191406,437.57464599609375,989.005859375,320.0971984863281,235.1898651123047,926.6828002929688,236.3341522216797,171.12110900878906,972.4664306640625,498.3423767089844,175.960693359375,0.0,0.0,0.0,0.0,0.0,0.0,0.0,0.0,0.0,0.0,0.0,0.0,1.0,0.0,0.0,0.0,0.0,0.0,0.0,0.0,0.0,0.0,0.0,0.0,0.0,1.0,0.0,0.0,0.0,0.0,0.0,0.0,0.0,0.0,0.0,0.0,0.0,0.0,1.0,0.0,0.0,0.0,0.0,0.0,0.0,0.0,0.0,0.0,0.0,0.0,0.0,1.0,0.0,0.0,0.0,0.0,0.0,0.0,0.0,0.0,0.0,0.0,0.0,0.0,1.0,0.0,0.0,0.0,0.0,0.0,0.0,0.0,0.0,0.0,0.0,0.0,0.0,1.0,0.0,0.0,0.0,0.0,0.0,0.0,0.0,0.0,0.0,0.0,0.0,0.0,1.0,0,0,0,0,0,0,0,0,0,0,0,0,0,0,0,0,0,0,0,0,0,0,0,0,0,0,0,0,0,0,0,0,0,0,0,0
1777364837.3073766,267,1777364833.3480518,,,0,0,,,0,0,0.0,0.0,0.0,0.0,0.0,0.0,0.0,0.0,0.0,0.0,0.0,0.0,0.0,0.0,0.0,0.0,0.0,0.0,0.0,0.0,0.0,0.0,0.0,0.0,0.0,0.0,0.0,775.906982421875,607.5422973632812,1106.111328125,1027.0831298828125,631.0128173828125,1104.84033203125,815.81787109375,428.6170349121094,1141.6510009765625,976.7306518554688,426.4664611816406,1144.9625244140625,707.2429809570312,545.1820678710938,852.0390014648438,736.9006958007812,646.6795654296875,608.2028198242188,714.3294677734375,658.8963012695312,433.2164001464844,731.6749267578125,731.9459838867188,242.5859832763672,792.641357421875,668.4967651367188,145.8495635986328,750.3916625976562,922.6820678710938,226.36685180664062,1076.844482421875,525.099853515625,787.8325805664062,1028.0660400390625,430.6810302734375,568.521240234375,1037.894775390625,383.15032958984375,438.315185546875,988.794921875,313.0556640625,236.52236938476562,926.8070678710938,228.77288818359375,171.78500366210938,972.699951171875,490.7579345703125,175.8252716064453,0.0,0.0,0.0,0.0,0.0,0.0,0.0,0.0,0.0,0.0,0.0,0.0,1.0,0.0,0.0,0.0,0.0,0.0,0.0,0.0,0.0,0.0,0.0,0.0,0.0,1.0,0.0,0.0,0.0,0.0,0.0,0.0,0.0,0.0,0.0,0.0,0.0,0.0,1.0,0.0,0.0,0.0,0.0,0.0,0.0,0.0,0.0,0.0,0.0,0.0,0.0,1.0,0.0,0.0,0.0,0.0,0.0,0.0,0.0,0.0,0.0,0.0,0.0,0.0,1.0,0.0,0.0,0.0,0.0,0.0,0.0,0.0,0.0,0.0,0.0,0.0,0.0,1.0,0.0,0.0,0.0,0.0,0.0,0.0,0.0,0.0,0.0,0.0,0.0,0.0,1.0,0,0,0,0,0,0,0,0,0,0,0,0,0,0,0,0,0,0,0,0,0,0,0,0,0,0,0,0,0,0,0,0,0,0,0,0
1777364837.3073766,268,1777364833.349051,,,0,0,,,0,0,0.0,0.0,0.0,0.0,0.0,0.0,0.0,0.0,0.0,0.0,0.0,0.0,0.0,0.0,0.0,0.0,0.0,0.0,0.0,0.0,0.0,0.0,0.0,0.0,0.0,0.0,0.0,774.5686645507812,609.3452758789062,1105.2510986328125,1025.83056640625,632.2069091796875,1104.1038818359375,814.0738525390625,430.27410888671875,1140.6126708984375,975.007568359375,427.7299499511719,1143.8748779296875,706.6445922851562,548.0150146484375,851.0220947265625,737.3572387695312,648.5960083007812,607.0621337890625,715.3953247070312,659.6005249023438,432.0936584472656,732.9156494140625,730.43896484375,241.19647216796875,792.79638671875,663.4178466796875,146.995849609375,754.0692138671875,920.126708984375,220.75465393066406,1075.4139404296875,524.9191284179688,787.080322265625,1027.091064453125,428.4522399902344,568.687255859375,1037.219482421875,378.9463806152344,439.1912841796875,988.6089477539062,306.1200256347656,238.06301879882812,926.9491577148438,221.26947021484375,172.73951721191406,972.9307861328125,483.1746826171875,175.67349243164062,0.0,0.0,0.0,0.0,0.0,0.0,0.0,0.0,0.0,0.0,0.0,0.0,1.0,0.0,0.0,0.0,0.0,0.0,0.0,0.0,0.0,0.0,0.0,0.0,0.0,1.0,0.0,0.0,0.0,0.0,0.0,0.0,0.0,0.0,0.0,0.0,0.0,0.0,1.0,0.0,0.0,0.0,0.0,0.0,0.0,0.0,0.0,0.0,0.0,0.0,0.0,1.0,0.0,0.0,0.0,0.0,0.0,0.0,0.0,0.0,0.0,0.0,0.0,0.0,1.0,0.0,0.0,0.0,0.0,0.0,0.0,0.0,0.0,0.0,0.0,0.0,0.0,1.0,0.0,0.0,0.0,0.0,0.0,0.0,0.0,0.0,0.0,0.0,0.0,0.0,1.0,0,0,0,0,0,0,0,0,0,0,0,0,0,0,0,0,0,0,0,0,0,0,0,0,0,0,0,0,0,0,0,0,0,0,0,0
1777364837.3073766,269,1777364833.3606088,,,0,0,,,0,0,0.0,0.0,0.0,0.0,0.0,0.0,0.0,0.0,0.0,0.0,0.0,0.0,0.0,0.0,0.0,0.0,0.0,0.0,0.0,0.0,0.0,0.0,0.0,0.0,0.0,0.0,0.0,773.1271362304688,611.2266845703125,1104.5224609375,1024.4632568359375,633.5150146484375,1103.47998046875,812.2763061523438,432.006103515625,1139.64990234375,973.2288818359375,429.072509765625,1142.8221435546875,706.0841674804688,551.1044921875,850.1764526367188,737.7581787109375,650.8324584960938,606.1259155273438,716.3323364257812,660.1047973632812,431.10821533203125,733.94482421875,727.9336547851562,239.7433624267578,792.8890991210938,657.1295776367188,148.23892211914062,757.0894165039062,916.3248901367188,214.5228271484375,1073.8978271484375,525.114990234375,786.3563842773438,1026.076416015625,426.7713928222656,568.879638671875,1036.5341796875,375.0982666015625,440.21380615234375,988.4708251953125,299.3309631347656,239.84490966796875,927.1259155273438,213.84048461914062,174.05902099609375,973.1502685546875,475.5851135253906,175.5161590576172,0.0,0.0,0.0,0.0,0.0,0.0,0.0,0.0,0.0,0.0,0.0,0.0,1.0,0.0,0.0,0.0,0.0,0.0,0.0,0.0,0.0,0.0,0.0,0.0,0.0,1.0,0.0,0.0,0.0,0.0,0.0,0.0,0.0,0.0,0.0,0.0,0.0,0.0,1.0,0.0,0.0,0.0,0.0,0.0,0.0,0.0,0.0,0.0,0.0,0.0,0.0,1.0,0.0,0.0,0.0,0.0,0.0,0.0,0.0,0.0,0.0,0.0,0.0,0.0,1.0,0.0,0.0,0.0,0.0,0.0,0.0,0.0,0.0,0.0,0.0,0.0,0.0,1.0,0.0,0.0,0.0,0.0,0.0,0.0,0.0,0.0,0.0,0.0,0.0,0.0,1.0,0,0,0,0,0,0,0,0,0,0,0,0,0,0,0,0,0,0,0,0,0,0,0,0,0,0,0,0,0,0,0,0,0,0,0,0
1777364837.3073766,270,1777364833.3691804,,,0,0,,,0,0,0.0,0.0,0.0,0.0,0.0,0.0,0.0,0.0,0.0,0.0,0.0,0.0,0.0,0.0,0.0,0.0,0.0,0.0,0.0,0.0,0.0,0.0,0.0,0.0,0.0,0.0,0.0,771.5865478515625,613.1758422851562,1103.9354248046875,1022.9841918945312,634.9231567382812,1102.976806640625,810.4299926757812,433.8037414550781,1138.777587890625,971.3988647460938,430.4817810058594,1141.819091796875,705.5407104492188,554.3886108398438,849.5077514648438,738.0846557617188,653.3161010742188,605.3926391601562,717.0657958984375,660.4733276367188,430.2820129394531,734.7236938476562,724.65478515625,238.29824829101562,792.9175415039062,650.0758666992188,149.5094451904297,759.4085693359375,911.538330078125,208.1578369140625,1072.3140869140625,525.7079467773438,785.6663208007812,1025.0435791015625,425.7228698730469,569.0885620117188,1035.8604736328125,371.6824035644531,441.3924255371094,988.4057006835938,292.7420959472656,241.9038848876953,927.3517456054688,206.50582885742188,175.81134033203125,973.3501586914062,467.984130859375,175.36766052246094,0.0,0.0,0.0,0.0,0.0,0.0,0.0,0.0,0.0,0.0,0.0,0.0,1.0,0.0,0.0,0.0,0.0,0.0,0.0,0.0,0.0,0.0,0.0,0.0,0.0,1.0,0.0,0.0,0.0,0.0,0.0,0.0,0.0,0.0,0.0,0.0,0.0,0.0,1.0,0.0,0.0,0.0,0.0,0.0,0.0,0.0,0.0,0.0,0.0,0.0,0.0,1.0,0.0,0.0,0.0,0.0,0.0,0.0,0.0,0.0,0.0,0.0,0.0,0.0,1.0,0.0,0.0,0.0,0.0,0.0,0.0,0.0,0.0,0.0,0.0,0.0,0.0,1.0,0.0,0.0,0.0,0.0,0.0,0.0,0.0,0.0,0.0,0.0,0.0,0.0,1.0,0,0,0,0,0,0,0,0,0,0,0,0,0,0,0,0,0,0,0,0,0,0,0,0,0,0,0,0,0,0,0,0,0,0,0,0
1777364837.3073766,271,1777364833.380326,,,0,0,,,0,0,0.0,0.0,0.0,0.0,0.0,0.0,0.0,0.0,0.0,0.0,0.0,0.0,0.0,0.0,0.0,0.0,0.0,0.0,0.0,0.0,0.0,0.0,0.0,0.0,0.0,0.0,0.0,769.953369140625,615.1814575195312,1103.4971923828125,1021.3994140625,636.4132080078125,1102.599853515625,808.5396728515625,435.6567687988281,1138.009033203125,969.5219116210938,431.94342041015625,1140.8800048828125,704.9913330078125,557.801025390625,849.0181274414062,738.3209228515625,655.9642333984375,604.853759765625,717.5355224609375,660.748046875,429.6329345703125,735.2404174804688,720.7915649414062,236.93055725097656,792.8941040039062,642.6137084960938,150.74220275878906,761.0488891601562,905.9932250976562,202.09573364257812,1070.6839599609375,526.7156372070312,785.0151977539062,1024.016845703125,425.3935852050781,569.3030395507812,1035.2216796875,368.7853088378906,442.73553466796875,988.4389038085938,286.4208679199219,244.2775115966797,927.635986328125,199.29244995117188,178.05723571777344,973.5244750976562,460.37261962890625,175.24282836914062,0.0,0.0,0.0,0.0,0.0,0.0,0.0,0.0,0.0,0.0,0.0,0.0,1.0,0.0,0.0,0.0,0.0,0.0,0.0,0.0,0.0,0.0,0.0,0.0,0.0,1.0,0.0,0.0,0.0,0.0,0.0,0.0,0.0,0.0,0.0,0.0,0.0,0.0,1.0,0.0,0.0,0.0,0.0,0.0,0.0,0.0,0.0,0.0,0.0,0.0,0.0,1.0,0.0,0.0,0.0,0.0,0.0,0.0,0.0,0.0,0.0,0.0,0.0,0.0,1.0,0.0,0.0,0.0,0.0,0.0,0.0,0.0,0.0,0.0,0.0,0.0,0.0,1.0,0.0,0.0,0.0,0.0,0.0,0.0,0.0,0.0,0.0,0.0,0.0,0.0,1.0,0,0,0,0,0,0,0,0,0,0,0,0,0,0,0,0,0,0,0,0,0,0,0,0,0,0,0,0,0,0,0,0,0,0,0,0
1777364837.3073766,272,1777364833.3920805,,,0,0,,,0,0,0.0,0.0,0.0,0.0,0.0,0.0,0.0,0.0,0.0,0.0,0.0,0.0,0.0,0.0,0.0,0.0,0.0,0.0,0.0,0.0,0.0,0.0,0.0,0.0,0.0,0.0,0.0,768.2364501953125,617.2310791015625,1103.2119140625,1019.7178955078125,637.9635009765625,1102.35302734375,806.6100463867188,437.55389404296875,1137.354736328125,967.6024780273438,433.4413146972656,1140.0177001953125,704.412841796875,561.2732543945312,848.7055053710938,738.4564819335938,658.68603515625,604.4932250976562,717.7041015625,660.943115234375,429.1705322265625,735.5079956054688,716.48779296875,235.69931030273438,792.8356323242188,634.9955444335938,151.8800048828125,762.0933227539062,899.8764038085938,196.67337036132812,1069.0301513671875,528.152099609375,784.4074096679688,1023.021728515625,425.86859130859375,569.5120239257812,1034.641845703125,366.5006408691406,444.2500915527344,988.5942993164062,280.4486999511719,247.00363159179688,927.9814453125,192.24032592773438,180.8565216064453,973.6721801757812,452.76165771484375,175.15208435058594,0.0,0.0,0.0,0.0,0.0,0.0,0.0,0.0,0.0,0.0,0.0,0.0,1.0,0.0,0.0,0.0,0.0,0.0,0.0,0.0,0.0,0.0,0.0,0.0,0.0,1.0,0.0,0.0,0.0,0.0,0.0,0.0,0.0,0.0,0.0,0.0,0.0,0.0,1.0,0.0,0.0,0.0,0.0,0.0,0.0,0.0,0.0,0.0,0.0,0.0,0.0,1.0,0.0,0.0,0.0,0.0,0.0,0.0,0.0,0.0,0.0,0.0,0.0,0.0,1.0,0.0,0.0,0.0,0.0,0.0,0.0,0.0,0.0,0.0,0.0,0.0,0.0,1.0,0.0,0.0,0.0,0.0,0.0,0.0,0.0,0.0,0.0,0.0,0.0,0.0,1.0,0,0,0,0,0,0,0,0,0,0,0,0,0,0,0,0,0,0,0,0,0,0,0,0,0,0,0,0,0,0,0,0,0,0,0,0
1777364837.3073766,273,1777364833.4023838,,,0,0,,,0,0,0.0,0.0,0.0,0.0,0.0,0.0,0.0,0.0,0.0,0.0,0.0,0.0,0.0,0.0,0.0,0.0,0.0,0.0,0.0,0.0,0.0,0.0,0.0,0.0,0.0,0.0,0.0,766.44677734375,619.3115234375,1103.080322265625,1017.9514770507812,639.5492553710938,1102.23681640625,804.6459350585938,439.4826965332031,1136.82275390625,965.6449584960938,434.9579772949219,1139.2432861328125,703.783447265625,564.737060546875,848.563232421875,738.4874877929688,661.3853759765625,604.2874145507812,717.5635986328125,661.04345703125,428.8930969238281,735.560791015625,711.84228515625,234.64797973632812,792.7579956054688,627.374755859375,152.87864685058594,762.6658935546875,893.3380737304688,192.10377502441406,1067.3768310546875,530.026123046875,783.8467407226562,1022.084228515625,427.226318359375,569.70556640625,1034.1439208984375,364.9251403808594,445.94171142578125,988.8922729492188,274.91998291015625,250.1186065673828,928.3851928710938,185.41001892089844,184.2776336669922,973.798828125,445.1764831542969,175.09620666503906,0.0,0.0,0.0,0.0,0.0,0.0,0.0,0.0,0.0,0.0,0.0,0.0,1.0,0.0,0.0,0.0,0.0,0.0,0.0,0.0,0.0,0.0,0.0,0.0,0.0,1.0,0.0,0.0,0.0,0.0,0.0,0.0,0.0,0.0,0.0,0.0,0.0,0.0,1.0,0.0,0.0,0.0,0.0,0.0,0.0,0.0,0.0,0.0,0.0,0.0,0.0,1.0,0.0,0.0,0.0,0.0,0.0,0.0,0.0,0.0,0.0,0.0,0.0,0.0,1.0,0.0,0.0,0.0,0.0,0.0,0.0,0.0,0.0,0.0,0.0,0.0,0.0,1.0,0.0,0.0,0.0,0.0,0.0,0.0,0.0,0.0,0.0,0.0,0.0,0.0,1.0,0,0,0,0,0,0,0,0,0,0,0,0,0,0,0,0,0,0,0,0,0,0,0,0,0,0,0,0,0,0,0,0,0,0,0,0
1777364837.3073766,274,1777364833.4136863,,,0,0,,,0,0,0.0,0.0,0.0,0.0,0.0,0.0,0.0,0.0,0.0,0.0,0.0,0.0,0.0,0.0,0.0,0.0,0.0,0.0,0.0,0.0,0.0,0.0,0.0,0.0,0.0,0.0,0.0,764.5972290039062,621.4087524414062,1103.099609375,1016.114501953125,641.1432495117188,1102.2496337890625,802.6522827148438,441.4299621582031,1136.41796875,963.654052734375,436.474853515625,1138.5657958984375,703.0838012695312,568.1258544921875,848.5792236328125,738.4169311523438,663.9635620117188,604.2058715820312,717.1384887695312,661.0082397460938,428.78656005859375,735.4482421875,706.9163818359375,233.8019561767578,792.6734619140625,619.8253173828125,153.7121124267578,762.9053344726562,886.4985961914062,188.47352600097656,1065.74853515625,532.3396606445312,783.336669921875,1021.2291259765625,429.532958984375,569.8765869140625,1033.7490234375,364.1537780761719,447.81427001953125,989.3477783203125,269.93927001953125,253.6551971435547,928.8397827148438,178.88973999023438,188.40684509277344,973.9185791015625,437.658935546875,175.06187438964844,0.0,0.0,0.0,0.0,0.0,0.0,0.0,0.0,0.0,0.0,0.0,0.0,1.0,0.0,0.0,0.0,0.0,0.0,0.0,0.0,0.0,0.0,0.0,0.0,0.0,1.0,0.0,0.0,0.0,0.0,0.0,0.0,0.0,0.0,0.0,0.0,0.0,0.0,1.0,0.0,0.0,0.0,0.0,0.0,0.0,0.0,0.0,0.0,0.0,0.0,0.0,1.0,0.0,0.0,0.0,0.0,0.0,0.0,0.0,0.0,0.0,0.0,0.0,0.0,1.0,0.0,0.0,0.0,0.0,0.0,0.0,0.0,0.0,0.0,0.0,0.0,0.0,1.0,0.0,0.0,0.0,0.0,0.0,0.0,0.0,0.0,0.0,0.0,0.0,0.0,1.0,0,0,0,0,0,0,0,0,0,0,0,0,0,0,0,0,0,0,0,0,0,0,0,0,0,0,0,0,0,0,0,0,0,0,0,0
1777364837.3073766,275,1777364833.424294,,,0,0,,,0,0,0.0,0.0,0.0,0.0,0.0,0.0,0.0,0.0,0.0,0.0,0.0,0.0,0.0,0.0,0.0,0.0,0.0,0.0,0.0,0.0,0.0,0.0,0.0,0.0,0.0,0.0,0.0,762.7022094726562,623.5078125,1103.26318359375,1014.2235717773438,642.7171020507812,1102.3868408203125,800.6344604492188,443.38153076171875,1136.142333984375,961.6345825195312,437.9729309082031,1137.991943359375,702.2979736328125,571.3766479492188,848.7362670898438,738.2532958984375,666.3223266601562,604.2131958007812,716.4840698242188,660.7767333984375,428.8252258300781,735.2288208007812,701.7451782226562,233.16796875,792.5911865234375,612.3668823242188,154.37522888183594,762.9431762695312,879.455078125,185.75743103027344,1064.16943359375,535.0863647460938,782.8807373046875,1020.4786376953125,432.8375549316406,570.0220947265625,1033.4747314453125,364.2741394042969,449.8699951171875,989.9686889648438,265.6167907714844,257.64044189453125,929.3359375,172.80035400390625,193.35333251953125,974.0543823242188,430.2673034667969,175.01951599121094,0.0,0.0,0.0,0.0,0.0,0.0,0.0,0.0,0.0,0.0,0.0,0.0,1.0,0.0,0.0,0.0,0.0,0.0,0.0,0.0,0.0,0.0,0.0,0.0,0.0,1.0,0.0,0.0,0.0,0.0,0.0,0.0,0.0,0.0,0.0,0.0,0.0,0.0,1.0,0.0,0.0,0.0,0.0,0.0,0.0,0.0,0.0,0.0,0.0,0.0,0.0,1.0,0.0,0.0,0.0,0.0,0.0,0.0,0.0,0.0,0.0,0.0,0.0,0.0,1.0,0.0,0.0,0.0,0.0,0.0,0.0,0.0,0.0,0.0,0.0,0.0,0.0,1.0,0.0,0.0,0.0,0.0,0.0,0.0,0.0,0.0,0.0,0.0,0.0,0.0,1.0,0,0,0,0,0,0,0,0,0,0,0,0,0,0,0,0,0,0,0,0,0,0,0,0,0,0,0,0,0,0,0,0,0,0,0,0
1777364837.3073766,276,1777364833.4378245,,,0,0,,,0,0,0.0,0.0,0.0,0.0,0.0,0.0,0.0,0.0,0.0,0.0,0.0,0.0,0.0,0.0,0.0,0.0,0.0,0.0,0.0,0.0,0.0,0.0,0.0,0.0,0.0,0.0,0.0,760.7774658203125,625.59326171875,1103.5609130859375,1012.296875,644.241943359375,1102.6407470703125,798.5979614257812,445.32257080078125,1135.99462890625,959.5917358398438,439.4332580566406,1137.5262451171875,701.4138793945312,574.4312133789062,849.0122680664062,738.0084838867188,668.36767578125,604.2710571289062,715.6790161132812,660.27685546875,428.97369384765625,734.962890625,696.348388671875,232.73538208007812,792.5184326171875,604.9885864257812,154.88104248046875,762.8903198242188,872.2853393554688,183.84751892089844,1062.662109375,538.2498168945312,782.4830932617188,1019.8508911132812,437.16705322265625,570.14501953125,1033.3336181640625,365.3603515625,452.10919189453125,990.7542114257812,262.0618896484375,262.0936584472656,929.8640747070312,167.29693603515625,199.24769592285156,974.2373046875,423.07373046875,174.92384338378906,0.0,0.0,0.0,0.0,0.0,0.0,0.0,0.0,0.0,0.0,0.0,0.0,1.0,0.0,0.0,0.0,0.0,0.0,0.0,0.0,0.0,0.0,0.0,0.0,0.0,1.0,0.0,0.0,0.0,0.0,0.0,0.0,0.0,0.0,0.0,0.0,0.0,0.0,1.0,0.0,0.0,0.0,0.0,0.0,0.0,0.0,0.0,0.0,0.0,0.0,0.0,1.0,0.0,0.0,0.0,0.0,0.0,0.0,0.0,0.0,0.0,0.0,0.0,0.0,1.0,0.0,0.0,0.0,0.0,0.0,0.0,0.0,0.0,0.0,0.0,0.0,0.0,1.0,0.0,0.0,0.0,0.0,0.0,0.0,0.0,0.0,0.0,0.0,0.0,0.0,1.0,0,0,0,0,0,0,0,0,0,0,0,0,0,0,0,0,0,0,0,0,0,0,0,0,0,0,0,0,0,0,0,0,0,0,0,0
1777364837.3073766,277,1777364833.449831,,,0,0,,,0,0,0.0,0.0,0.0,0.0,0.0,0.0,0.0,0.0,0.0,0.0,0.0,0.0,0.0,0.0,0.0,0.0,0.0,0.0,0.0,0.0,0.0,0.0,0.0,0.0,0.0,0.0,0.0,758.8394775390625,627.6490478515625,1103.9796142578125,1010.3536987304688,645.6900634765625,1103.00146484375,796.5487060546875,447.23773193359375,1135.970703125,957.5311279296875,440.83740234375,1137.1707763671875,700.423828125,577.2373046875,849.3814086914062,737.695556640625,670.0137329101562,604.3411254882812,714.813232421875,659.43359375,429.1897277832031,734.7069091796875,690.7390747070312,232.47909545898438,792.4617309570312,597.6668701171875,155.25494384765625,762.8301391601562,865.0498657226562,182.58714294433594,1061.24755859375,541.8027954101562,782.1485595703125,1019.3590698242188,442.52276611328125,570.2548217773438,1033.33251953125,367.4669189453125,454.5303039550781,991.6934814453125,259.3751525878906,267.0247497558594,930.4160766601562,162.5655517578125,206.23240661621094,974.5039672851562,416.1583557128906,174.71795654296875,0.0,0.0,0.0,0.0,0.0,0.0,0.0,0.0,0.0,0.0,0.0,0.0,1.0,0.0,0.0,0.0,0.0,0.0,0.0,0.0,0.0,0.0,0.0,0.0,0.0,1.0,0.0,0.0,0.0,0.0,0.0,0.0,0.0,0.0,0.0,0.0,0.0,0.0,1.0,0.0,0.0,0.0,0.0,0.0,0.0,0.0,0.0,0.0,0.0,0.0,0.0,1.0,0.0,0.0,0.0,0.0,0.0,0.0,0.0,0.0,0.0,0.0,0.0,0.0,1.0,0.0,0.0,0.0,0.0,0.0,0.0,0.0,0.0,0.0,0.0,0.0,0.0,1.0,0.0,0.0,0.0,0.0,0.0,0.0,0.0,0.0,0.0,0.0,0.0,0.0,1.0,0,0,0,0,0,0,0,0,0,0,0,0,0,0,0,0,0,0,0,0,0,0,0,0,0,0,0,0,0,0,0,0,0,0,0,0
1777364837.3073766,278,1777364833.4508326,,,0,0,,,0,0,0.0,0.0,0.0,0.0,0.0,0.0,0.0,0.0,0.0,0.0,0.0,0.0,0.0,0.0,0.0,0.0,0.0,0.0,0.0,0.0,0.0,0.0,0.0,0.0,0.0,0.0,0.0,756.9048461914062,629.6590576171875,1104.503173828125,1008.41357421875,647.0357666015625,1103.4569091796875,794.4930419921875,449.1113586425781,1136.06396484375,955.458984375,442.16827392578125,1136.9249267578125,699.3250122070312,579.749267578125,849.8154907226562,737.3265991210938,671.1866455078125,604.3876342773438,713.97412109375,658.1769409179688,429.4281311035156,734.5086669921875,684.9285278320312,232.3636932373047,792.427734375,590.3781127929688,155.52783203125,762.81640625,857.7932739257812,181.8023223876953,1059.9432373046875,545.7069091796875,781.8833618164062,1019.010009765625,448.8781433105469,570.3685913085938,1033.4710693359375,370.6230163574219,457.1303405761719,992.7643432617188,257.6397705078125,272.4329528808594,930.984375,158.81414794921875,214.4446563720703,974.8932495117188,409.60113525390625,174.34132385253906,0.0,0.0,0.0,0.0,0.0,0.0,0.0,0.0,0.0,0.0,0.0,0.0,1.0,0.0,0.0,0.0,0.0,0.0,0.0,0.0,0.0,0.0,0.0,0.0,0.0,1.0,0.0,0.0,0.0,0.0,0.0,0.0,0.0,0.0,0.0,0.0,0.0,0.0,1.0,0.0,0.0,0.0,0.0,0.0,0.0,0.0,0.0,0.0,0.0,0.0,0.0,1.0,0.0,0.0,0.0,0.0,0.0,0.0,0.0,0.0,0.0,0.0,0.0,0.0,1.0,0.0,0.0,0.0,0.0,0.0,0.0,0.0,0.0,0.0,0.0,0.0,0.0,1.0,0.0,0.0,0.0,0.0,0.0,0.0,0.0,0.0,0.0,0.0,0.0,0.0,1.0,0,0,0,0,0,0,0,0,0,0,0,0,0,0,0,0,0,0,0,0,0,0,0,0,0,0,0,0,0,0,0,0,0,0,0,0
1777364837.3073766,279,1777364833.4604492,,,0,0,,,0,0,0.0,0.0,0.0,0.0,0.0,0.0,0.0,0.0,0.0,0.0,0.0,0.0,0.0,0.0,0.0,0.0,0.0,0.0,0.0,0.0,0.0,0.0,0.0,0.0,0.0,0.0,0.0,754.9901123046875,631.6068725585938,1105.1131591796875,1006.49560546875,648.2568359375,1103.9932861328125,792.4378051757812,450.9277038574219,1136.265869140625,953.3818969726562,443.41033935546875,1136.78662109375,698.1196899414062,581.9293212890625,850.2855834960938,736.911376953125,671.828125,604.3800048828125,713.2339477539062,656.4498901367188,429.64508056640625,734.4035034179688,678.9290771484375,232.34840393066406,792.4232177734375,583.1054077148438,155.7301025390625,762.8759155273438,850.54638671875,181.3272247314453,1058.7626953125,549.9131469726562,781.6952514648438,1018.8040161132812,456.1781921386719,570.5111083984375,1033.7412109375,374.82757568359375,459.90582275390625,993.9332275390625,256.9136047363281,278.3064270019531,931.5596313476562,156.25787353515625,223.99362182617188,975.4412841796875,403.47320556640625,173.7410430908203,0.0,0.0,0.0,0.0,0.0,0.0,0.0,0.0,0.0,0.0,0.0,0.0,1.0,0.0,0.0,0.0,0.0,0.0,0.0,0.0,0.0,0.0,0.0,0.0,0.0,1.0,0.0,0.0,0.0,0.0,0.0,0.0,0.0,0.0,0.0,0.0,0.0,0.0,1.0,0.0,0.0,0.0,0.0,0.0,0.0,0.0,0.0,0.0,0.0,0.0,0.0,1.0,0.0,0.0,0.0,0.0,0.0,0.0,0.0,0.0,0.0,0.0,0.0,0.0,1.0,0.0,0.0,0.0,0.0,0.0,0.0,0.0,0.0,0.0,0.0,0.0,0.0,1.0,0.0,0.0,0.0,0.0,0.0,0.0,0.0,0.0,0.0,0.0,0.0,0.0,1.0,0,0,0,0,0,0,0,0,0,0,0,0,0,0,0,0,0,0,0,0,0,0,0,0,0,0,0,0,0,0,0,0,0,0,0,0
1777364837.3073766,280,1777364833.4709613,,,0,0,,,0,0,0.0,0.0,0.0,0.0,0.0,0.0,0.0,0.0,0.0,0.0,0.0,0.0,0.0,0.0,0.0,0.0,0.0,0.0,0.0,0.0,0.0,0.0,0.0,0.0,0.0,0.0,0.0,753.1109008789062,633.4765014648438,1105.7901611328125,1004.617919921875,649.335205078125,1104.5958251953125,790.390380859375,452.67132568359375,1136.566162109375,951.3071899414062,444.55029296875,1136.7518310546875,696.8148803710938,583.7477416992188,850.7639770507812,736.4569091796875,671.8983764648438,604.2947998046875,712.6408081054688,654.2137451171875,429.8025817871094,734.4127197265625,672.7556762695312,232.3921356201172,792.4551391601562,575.8404541015625,155.88780212402344,763.0144653320312,843.3278198242188,181.02127075195312,1057.71435546875,554.3635864257812,781.5936279296875,1018.7344360351562,464.341064453125,570.71435546875,1034.12646484375,380.0466613769531,462.85406494140625,995.155517578125,257.2231140136719,284.6222229003906,932.1256103515625,155.09967041015625,234.93539428710938,976.176513671875,397.83013916015625,172.88499450683594,0.0,0.0,0.0,0.0,0.0,0.0,0.0,0.0,0.0,0.0,0.0,0.0,1.0,0.0,0.0,0.0,0.0,0.0,0.0,0.0,0.0,0.0,0.0,0.0,0.0,1.0,0.0,0.0,0.0,0.0,0.0,0.0,0.0,0.0,0.0,0.0,0.0,0.0,1.0,0.0,0.0,0.0,0.0,0.0,0.0,0.0,0.0,0.0,0.0,0.0,0.0,1.0,0.0,0.0,0.0,0.0,0.0,0.0,0.0,0.0,0.0,0.0,0.0,0.0,1.0,0.0,0.0,0.0,0.0,0.0,0.0,0.0,0.0,0.0,0.0,0.0,0.0,1.0,0.0,0.0,0.0,0.0,0.0,0.0,0.0,0.0,0.0,0.0,0.0,0.0,1.0,0,0,0,0,0,0,0,0,0,0,0,0,0,0,0,0,0,0,0,0,0,0,0,0,0,0,0,0,0,0,0,0,0,0,0,0
1777364837.3073766,281,1777364833.482148,,,0,0,,,0,0,0.0,0.0,0.0,0.0,0.0,0.0,0.0,0.0,0.0,0.0,0.0,0.0,0.0,0.0,0.0,0.0,0.0,0.0,0.0,0.0,0.0,0.0,0.0,0.0,0.0,0.0,0.0,751.2816162109375,635.2523803710938,1106.5145263671875,1002.7965698242188,650.2578735351562,1105.249755859375,788.3585815429688,454.3273010253906,1136.9537353515625,949.2427978515625,445.5771789550781,1136.8155517578125,695.422119140625,585.1840209960938,851.2256469726562,735.96728515625,671.3778076171875,604.1170043945312,712.2156982421875,651.4526977539062,429.8722229003906,734.5430297851562,666.426025390625,232.45814514160156,792.5294799804688,568.5825805664062,156.02113342285156,763.2228393554688,836.1465454101562,180.7783966064453,1056.80078125,558.9934692382812,781.5897216796875,1018.7882690429688,473.2614440917969,571.01611328125,1034.602294921875,386.21319580078125,465.97412109375,996.3771362304688,258.5609130859375,291.3460693359375,932.65380859375,155.50828552246094,247.24996948242188,977.1143798828125,392.70989990234375,171.77447509765625,0.0,0.0,0.0,0.0,0.0,0.0,0.0,0.0,0.0,0.0,0.0,0.0,1.0,0.0,0.0,0.0,0.0,0.0,0.0,0.0,0.0,0.0,0.0,0.0,0.0,1.0,0.0,0.0,0.0,0.0,0.0,0.0,0.0,0.0,0.0,0.0,0.0,0.0,1.0,0.0,0.0,0.0,0.0,0.0,0.0,0.0,0.0,0.0,0.0,0.0,0.0,1.0,0.0,0.0,0.0,0.0,0.0,0.0,0.0,0.0,0.0,0.0,0.0,0.0,1.0,0.0,0.0,0.0,0.0,0.0,0.0,0.0,0.0,0.0,0.0,0.0,0.0,1.0,0.0,0.0,0.0,0.0,0.0,0.0,0.0,0.0,0.0,0.0,0.0,0.0,1.0,0,0,0,0,0,0,0,0,0,0,0,0,0,0,0,0,0,0,0,0,0,0,0,0,0,0,0,0,0,0,0,0,0,0,0,0
1777364837.3073766,282,1777364833.4930906,,,0,0,,,0,0,0.0,0.0,0.0,0.0,0.0,0.0,0.0,0.0,0.0,0.0,0.0,0.0,0.0,0.0,0.0,0.0,0.0,0.0,0.0,0.0,0.0,0.0,0.0,0.0,0.0,0.0,0.0,749.5147094726562,636.919677734375,1107.2672119140625,1001.045166015625,651.0172729492188,1105.94140625,786.3505859375,455.8816223144531,1137.4171142578125,947.1969604492188,446.4826965332031,1136.9715576171875,693.9567260742188,586.2269897460938,851.6497192382812,735.4447021484375,670.2676391601562,603.8408813476562,711.9537963867188,648.17529296875,429.8378601074219,734.7877197265625,659.9600830078125,232.51756286621094,792.6495971679688,561.3351440429688,156.14454650878906,763.4835815429688,829.0031127929688,180.52955627441406,1056.01806640625,563.7347412109375,781.6963500976562,1018.9467163085938,482.8156433105469,571.4578857421875,1035.13720703125,393.2301330566406,469.2673034667969,997.5374755859375,260.88702392578125,298.43206787109375,933.0982666015625,157.59625244140625,260.8226623535156,978.2537841796875,388.1373291015625,170.4540252685547,0.0,0.0,0.0,0.0,0.0,0.0,0.0,0.0,0.0,0.0,0.0,0.0,1.0,0.0,0.0,0.0,0.0,0.0,0.0,0.0,0.0,0.0,0.0,0.0,0.0,1.0,0.0,0.0,0.0,0.0,0.0,0.0,0.0,0.0,0.0,0.0,0.0,0.0,1.0,0.0,0.0,0.0,0.0,0.0,0.0,0.0,0.0,0.0,0.0,0.0,0.0,1.0,0.0,0.0,0.0,0.0,0.0,0.0,0.0,0.0,0.0,0.0,0.0,0.0,1.0,0.0,0.0,0.0,0.0,0.0,0.0,0.0,0.0,0.0,0.0,0.0,0.0,1.0,0.0,0.0,0.0,0.0,0.0,0.0,0.0,0.0,0.0,0.0,0.0,0.0,1.0,0,0,0,0,0,0,0,0,0,0,0,0,0,0,0,0,0,0,0,0,0,0,0,0,0,0,0,0,0,0,0,0,0,0,0,0
1777364837.3073766,283,1777364833.5036597,,,0,0,,,0,0,0.0,0.0,0.0,0.0,0.0,0.0,0.0,0.0,0.0,0.0,0.0,0.0,0.0,0.0,0.0,0.0,0.0,0.0,0.0,0.0,0.0,0.0,0.0,0.0,0.0,0.0,0.0,747.8206176757812,638.4647827148438,1108.03076171875,999.374267578125,651.6111450195312,1106.658203125,784.3748168945312,457.3216552734375,1137.9447021484375,945.1784057617188,447.2612609863281,1137.2138671875,692.4364624023438,586.8755493164062,852.0206909179688,734.8903198242188,668.5891723632812,603.4695434570312,711.8306884765625,644.4138793945312,429.6961364746094,735.12939453125,653.3787231445312,232.55154418945312,792.8146362304688,554.1021118164062,156.26785278320312,763.77587890625,821.8920288085938,180.23988342285156,1055.3560791015625,568.5194091796875,781.9280395507812,1019.1868896484375,492.8676452636719,572.08154296875,1035.693603515625,400.9762878417969,472.73626708984375,998.572998046875,264.1341857910156,305.8209533691406,933.3936157226562,161.40008544921875,275.4332275390625,979.5758666992188,384.1362609863281,169.01577758789062,0.0,0.0,0.0,0.0,0.0,0.0,0.0,0.0,0.0,0.0,0.0,0.0,1.0,0.0,0.0,0.0,0.0,0.0,0.0,0.0,0.0,0.0,0.0,0.0,0.0,1.0,0.0,0.0,0.0,0.0,0.0,0.0,0.0,0.0,0.0,0.0,0.0,0.0,1.0,0.0,0.0,0.0,0.0,0.0,0.0,0.0,0.0,0.0,0.0,0.0,0.0,1.0,0.0,0.0,0.0,0.0,0.0,0.0,0.0,0.0,0.0,0.0,0.0,0.0,1.0,0.0,0.0,0.0,0.0,0.0,0.0,0.0,0.0,0.0,0.0,0.0,0.0,1.0,0.0,0.0,0.0,0.0,0.0,0.0,0.0,0.0,0.0,0.0,0.0,0.0,1.0,0,0,0,0,0,0,0,0,0,0,0,0,0,0,0,0,0,0,0,0,0,0,0,0,0,0,0,0,0,0,0,0,0,0,0,0
1777364837.3073766,284,1777364833.516639,,,0,0,,,0,0,0.0,0.0,0.0,0.0,0.0,0.0,0.0,0.0,0.0,0.0,0.0,0.0,0.0,0.0,0.0,0.0,0.0,0.0,0.0,0.0,0.0,0.0,0.0,0.0,0.0,0.0,0.0,746.2071533203125,639.87548828125,1108.790283203125,997.7911376953125,652.04248046875,1107.3907470703125,782.4400024414062,458.6363220214844,1138.525634765625,943.196044921875,447.9098205566406,1137.5364990234375,690.8809204101562,587.1384887695312,852.3294677734375,734.305419921875,666.3818969726562,603.013916015625,711.8096313476562,640.2205200195312,429.455810546875,735.5430297851562,646.7020263671875,232.55201721191406,793.0189819335938,546.8848266601562,156.39749145507812,764.0798950195312,814.802978515625,179.90191650390625,1054.79931640625,573.283203125,782.300537109375,1019.4835815429688,503.2757263183594,572.9258422851562,1036.2305908203125,409.3144226074219,476.3824157714844,999.4217529296875,268.2157897949219,313.438232421875,933.458984375,166.86538696289062,290.75494384765625,981.0465087890625,380.7474670410156,167.59732055664062,0.0,0.0,0.0,0.0,0.0,0.0,0.0,0.0,0.0,0.0,0.0,0.0,1.0,0.0,0.0,0.0,0.0,0.0,0.0,0.0,0.0,0.0,0.0,0.0,0.0,1.0,0.0,0.0,0.0,0.0,0.0,0.0,0.0,0.0,0.0,0.0,0.0,0.0,1.0,0.0,0.0,0.0,0.0,0.0,0.0,0.0,0.0,0.0,0.0,0.0,0.0,1.0,0.0,0.0,0.0,0.0,0.0,0.0,0.0,0.0,0.0,0.0,0.0,0.0,1.0,0.0,0.0,0.0,0.0,0.0,0.0,0.0,0.0,0.0,0.0,0.0,0.0,1.0,0.0,0.0,0.0,0.0,0.0,0.0,0.0,0.0,0.0,0.0,0.0,0.0,1.0,0,0,0,0,0,0,0,0,0,0,0,0,0,0,0,0,0,0,0,0,0,0,0,0,0,0,0,0,0,0,0,0,0,0,0,0
