Timestamp,Vicon_Frame_Num,Vicon_Recv_Timestamp,IMU_Recv_Timestamp,Planter_Recv_Timestamp,Vicon_Gap_Flag,Vicon_Gap_Size,IMU_Stale_ms,Planter_Stale_ms,IMU_Matched_Flag,Planter_Matched_Flag,IMU_Matched_Count,Planter_Matched_Count,IMU_All_Matched_Flag,Planter_Both_Matched_Flag,Vicon_Original_Valid_Flag,Vicon_Held_Flag,Vicon_Timeout_Zero_Flag,Vicon_Root_X,Vicon_Root_Y,Vicon_Root_Z,Vicon_L_Femur_X,Vicon_L_Femur_Y,Vicon_L_Femur_Z,Vicon_L_Tibia_X,Vicon_L_Tibia_Y,Vicon_L_Tibia_Z,Vicon_L_Foot_X,Vicon_L_Foot_Y,Vicon_L_Foot_Z,Vicon_L_Toe_X,Vicon_L_Toe_Y,Vicon_L_Toe_Z,Vicon_R_Femur_X,Vicon_R_Femur_Y,Vicon_R_Femur_Z,Vicon_R_Tibia_X,Vicon_R_Tibia_Y,Vicon_R_Tibia_Z,Vicon_R_Foot_X,Vicon_R_Foot_Y,Vicon_R_Foot_Z,Vicon_R_Toe_X,Vicon_R_Toe_Y,Vicon_R_Toe_Z,Vicon_LASI_X,Vicon_LASI_Y,Vicon_LASI_Z,Vicon_RASI_X,Vicon_RASI_Y,Vicon_RASI_Z,Vicon_LPSI_X,Vicon_LPSI_Y,Vicon_LPSI_Z,Vicon_RPSI_X,Vicon_RPSI_Y,Vicon_RPSI_Z,Vicon_LTHI_X,Vicon_LTHI_Y,Vicon_LTHI_Z,Vicon_LKNE_X,Vicon_LKNE_Y,Vicon_LKNE_Z,Vicon_LTIB_X,Vicon_LTIB_Y,Vicon_LTIB_Z,Vicon_LANK_X,Vicon_LANK_Y,Vicon_LANK_Z,Vicon_LHEE_X,Vicon_LHEE_Y,Vicon_LHEE_Z,Vicon_LTOE_X,Vicon_LTOE_Y,Vicon_LTOE_Z,Vicon_RTHI_X,Vicon_RTHI_Y,Vicon_RTHI_Z,Vicon_RKNE_X,Vicon_RKNE_Y,Vicon_RKNE_Z,Vicon_RTIB_X,Vicon_RTIB_Y,Vicon_RTIB_Z,Vicon_RANK_X,Vicon_RANK_Y,Vicon_RANK_Z,Vicon_RHEE_X,Vicon_RHEE_Y,Vicon_RHEE_Z,Vicon_RTOE_X,Vicon_RTOE_Y,Vicon_RTOE_Z,IMU_Trunk_Matched_Flag,IMU_Trunk_Held_Flag,IMU_Trunk_Timeout_Zero_Flag,IMU_Trunk_Recv_Timestamp,IMU_Trunk_Stale_ms,IMU_Trunk_Acc_X,IMU_Trunk_Acc_Y,IMU_Trunk_Acc_Z,IMU_Trunk_Gyro_X,IMU_Trunk_Gyro_Y,IMU_Trunk_Gyro_Z,IMU_Trunk_Roll,IMU_Trunk_Pitch,IMU_Trunk_Yaw,IMU_Trunk_Quat_x,IMU_Trunk_Quat_y,IMU_Trunk_Quat_z,IMU_Trunk_Quat_w,IMU_L_Femur_Matched_Flag,IMU_L_Femur_Held_Flag,IMU_L_Femur_Timeout_Zero_Flag,IMU_L_Femur_Recv_Timestamp,IMU_L_Femur_Stale_ms,IMU_L_Femur_Acc_X,IMU_L_Femur_Acc_Y,IMU_L_Femur_Acc_Z,IMU_L_Femur_Gyro_X,IMU_L_Femur_Gyro_Y,IMU_L_Femur_Gyro_Z,IMU_L_Femur_Roll,IMU_L_Femur_Pitch,IMU_L_Femur_Yaw,IMU_L_Femur_Quat_x,IMU_L_Femur_Quat_y,IMU_L_Femur_Quat_z,IMU_L_Femur_Quat_w,IMU_L_Tibia_Matched_Flag,IMU_L_Tibia_Held_Flag,IMU_L_Tibia_Timeout_Zero_Flag,IMU_L_Tibia_Recv_Timestamp,IMU_L_Tibia_Stale_ms,IMU_L_Tibia_Acc_X,IMU_L_Tibia_Acc_Y,IMU_L_Tibia_Acc_Z,IMU_L_Tibia_Gyro_X,IMU_L_Tibia_Gyro_Y,IMU_L_Tibia_Gyro_Z,IMU_L_Tibia_Roll,IMU_L_Tibia_Pitch,IMU_L_Tibia_Yaw,IMU_L_Tibia_Quat_x,IMU_L_Tibia_Quat_y,IMU_L_Tibia_Quat_z,IMU_L_Tibia_Quat_w,IMU_L_Foot_Matched_Flag,IMU_L_Foot_Held_Flag,IMU_L_Foot_Timeout_Zero_Flag,IMU_L_Foot_Recv_Timestamp,IMU_L_Foot_Stale_ms,IMU_L_Foot_Acc_X,IMU_L_Foot_Acc_Y,IMU_L_Foot_Acc_Z,IMU_L_Foot_Gyro_X,IMU_L_Foot_Gyro_Y,IMU_L_Foot_Gyro_Z,IMU_L_Foot_Roll,IMU_L_Foot_Pitch,IMU_L_Foot_Yaw,IMU_L_Foot_Quat_x,IMU_L_Foot_Quat_y,IMU_L_Foot_Quat_z,IMU_L_Foot_Quat_w,IMU_R_Femur_Matched_Flag,IMU_R_Femur_Held_Flag,IMU_R_Femur_Timeout_Zero_Flag,IMU_R_Femur_Recv_Timestamp,IMU_R_Femur_Stale_ms,IMU_R_Femur_Acc_X,IMU_R_Femur_Acc_Y,IMU_R_Femur_Acc_Z,IMU_R_Femur_Gyro_X,IMU_R_Femur_Gyro_Y,IMU_R_Femur_Gyro_Z,IMU_R_Femur_Roll,IMU_R_Femur_Pitch,IMU_R_Femur_Yaw,IMU_R_Femur_Quat_x,IMU_R_Femur_Quat_y,IMU_R_Femur_Quat_z,IMU_R_Femur_Quat_w,IMU_R_Tibia_Matched_Flag,IMU_R_Tibia_Held_Flag,IMU_R_Tibia_Timeout_Zero_Flag,IMU_R_Tibia_Recv_Timestamp,IMU_R_Tibia_Stale_ms,IMU_R_Tibia_Acc_X,IMU_R_Tibia_Acc_Y,IMU_R_Tibia_Acc_Z,IMU_R_Tibia_Gyro_X,IMU_R_Tibia_Gyro_Y,IMU_R_Tibia_Gyro_Z,IMU_R_Tibia_Roll,IMU_R_Tibia_Pitch,IMU_R_Tibia_Yaw,IMU_R_Tibia_Quat_x,IMU_R_Tibia_Quat_y,IMU_R_Tibia_Quat_z,IMU_R_Tibia_Quat_w,IMU_R_Foot_Matched_Flag,IMU_R_Foot_Held_Flag,IMU_R_Foot_Timeout_Zero_Flag,IMU_R_Foot_Recv_Timestamp,IMU_R_Foot_Stale_ms,IMU_R_Foot_Acc_X,IMU_R_Foot_Acc_Y,IMU_R_Foot_Acc_Z,IMU_R_Foot_Gyro_X,IMU_R_Foot_Gyro_Y,IMU_R_Foot_Gyro_Z,IMU_R_Foot_Roll,IMU_R_Foot_Pitch,IMU_R_Foot_Yaw,IMU_R_Foot_Quat_x,IMU_R_Foot_Quat_y,IMU_R_Foot_Quat_z,IMU_R_Foot_Quat_w,Planter_Left_Matched_Flag,Planter_Left_Held_Flag,Planter_Left_Zero_Confirmed_Flag,Planter_Left_Timeout_Zero_Flag,Planter_Left_Recv_Timestamp,Planter_Left_Stale_ms,Planter_Left_0,Planter_Left_1,Planter_Left_2,Planter_Left_3,Planter_Left_4,Planter_Left_5,Planter_Left_6,Planter_Left_7,Planter_Left_8,Planter_Left_9,Planter_Left_10,Planter_Left_11,Planter_Left_12,Planter_Left_13,Planter_Left_14,Planter_Left_15,Planter_Left_16,Planter_Left_17,Planter_Right_Matched_Flag,Planter_Right_Held_Flag,Planter_Right_Zero_Confirmed_Flag,Planter_Right_Timeout_Zero_Flag,Planter_Right_Recv_Timestamp,Planter_Right_Stale_ms,Planter_Right_0,Planter_Right_1,Planter_Right_2,Planter_Right_3,Planter_Right_4,Planter_Right_5,Planter_Right_6,Planter_Right_7,Planter_Right_8,Planter_Right_9,Planter_Right_10,Planter_Right_11,Planter_Right_12,Planter_Right_13,Planter_Right_14,Planter_Right_15,Planter_Right_16,Planter_Right_17
1777535004.8820233,365707,1777535000.9396756,,,0,0,,,0,0,0,0,0,0,0,0,1,0.0,0.0,0.0,0.0,0.0,0.0,0.0,0.0,0.0,0.0,0.0,0.0,0.0,0.0,0.0,0.0,0.0,0.0,0.0,0.0,0.0,0.0,0.0,0.0,0.0,0.0,0.0,0.0,0.0,0.0,0.0,0.0,0.0,0.0,0.0,0.0,0.0,0.0,0.0,0.0,0.0,0.0,0.0,0.0,0.0,0.0,0.0,0.0,0.0,0.0,0.0,0.0,0.0,0.0,0.0,0.0,0.0,0.0,0.0,0.0,0.0,0.0,0.0,0.0,0.0,0.0,0.0,0.0,0.0,0.0,0.0,0.0,0.0,0.0,0.0,0,0,1,,,0.0,0.0,0.0,0.0,0.0,0.0,0.0,0.0,0.0,0.0,0.0,0.0,1.0,0,0,1,,,0.0,0.0,0.0,0.0,0.0,0.0,0.0,0.0,0.0,0.0,0.0,0.0,1.0,0,0,1,,,0.0,0.0,0.0,0.0,0.0,0.0,0.0,0.0,0.0,0.0,0.0,0.0,1.0,0,0,1,,,0.0,0.0,0.0,0.0,0.0,0.0,0.0,0.0,0.0,0.0,0.0,0.0,1.0,0,0,1,,,0.0,0.0,0.0,0.0,0.0,0.0,0.0,0.0,0.0,0.0,0.0,0.0,1.0,0,0,1,,,0.0,0.0,0.0,0.0,0.0,0.0,0.0,0.0,0.0,0.0,0.0,0.0,1.0,0,0,1,,,0.0,0.0,0.0,0.0,0.0,0.0,0.0,0.0,0.0,0.0,0.0,0.0,1.0,0,0,0,1,,,0,0,0,0,0,0,0,0,0,0,0,0,0,0,0,0,0,0,0,0,0,1,,,0,0,0,0,0,0,0,0,0,0,0,0,0,0,0,0,0,0
1777535004.8820233,365708,1777535000.941672,,,0,0,,,0,0,0,0,0,0,1,0,0,0.0,0.0,0.0,0.0,0.0,0.0,0.0,0.0,0.0,0.0,0.0,0.0,0.0,0.0,0.0,0.0,0.0,0.0,0.0,0.0,0.0,0.0,0.0,0.0,0.0,0.0,0.0,37.81305792020814,641.5526087029446,848.2825411069686,113.63271634669526,602.1179278815943,863.2870625327805,-51.212247508915176,447.8318398655966,939.535137884916,27.213585284939114,419.36174884090497,953.559484893978,-131.2407011348911,601.0190240681065,706.8143403356108,-83.90955058516528,603.5030699440623,412.85842404739583,-114.62090230118017,533.1983625711492,195.70314500356042,-88.99534881130415,477.4582993313734,70.31534256050591,-49.305109934412776,400.4039044738148,46.64705654305509,-5.37101613790346,668.9456420909737,53.532580347546464,208.47765034044934,443.9242730886174,740.5935576644312,225.32318129355343,407.22498121418045,448.9395495830243,220.304966125962,307.1712474484826,273.8091577925843,192.49681643495794,270.5444518575268,116.54286907021347,130.1534473304627,211.06967606830332,102.29453570362777,213.22371862069534,454.618200011754,48.05816213898946,0,0,1,,,0.0,0.0,0.0,0.0,0.0,0.0,0.0,0.0,0.0,0.0,0.0,0.0,1.0,0,0,1,,,0.0,0.0,0.0,0.0,0.0,0.0,0.0,0.0,0.0,0.0,0.0,0.0,1.0,0,0,1,,,0.0,0.0,0.0,0.0,0.0,0.0,0.0,0.0,0.0,0.0,0.0,0.0,1.0,0,0,1,,,0.0,0.0,0.0,0.0,0.0,0.0,0.0,0.0,0.0,0.0,0.0,0.0,1.0,0,0,1,,,0.0,0.0,0.0,0.0,0.0,0.0,0.0,0.0,0.0,0.0,0.0,0.0,1.0,0,0,1,,,0.0,0.0,0.0,0.0,0.0,0.0,0.0,0.0,0.0,0.0,0.0,0.0,1.0,0,0,1,,,0.0,0.0,0.0,0.0,0.0,0.0,0.0,0.0,0.0,0.0,0.0,0.0,1.0,0,0,0,1,,,0,0,0,0,0,0,0,0,0,0,0,0,0,0,0,0,0,0,0,0,0,1,,,0,0,0,0,0,0,0,0,0,0,0,0,0,0,0,0,0,0
1777535004.883022,365709,1777535000.9516706,,,0,0,,,0,0,0,0,0,0,1,0,0,0.0,0.0,0.0,0.0,0.0,0.0,0.0,0.0,0.0,0.0,0.0,0.0,0.0,0.0,0.0,0.0,0.0,0.0,0.0,0.0,0.0,0.0,0.0,0.0,0.0,0.0,0.0,37.843988871479304,641.5434110886054,848.2842065510264,113.65979758432874,602.0835620066351,863.2823406054225,-51.219807911650996,447.82441100437376,939.5346706848838,27.179563599723902,419.3745814687468,953.5569041161924,-131.23593687239543,601.0485368262081,706.8008088133533,-83.91434821011083,603.446384393532,412.84096348572774,-114.62632381569377,533.1846341963183,195.70032078326415,-89.0173959889336,477.4691280574471,70.32540393266159,-49.27396456563682,400.40637085324664,46.65327340719649,-5.353238197613935,668.9299368318674,53.54178261374138,208.4932451013505,443.874259243069,740.6064073084137,225.29996081935596,407.1133858620594,448.93824498067744,220.28127358164144,307.09176106743433,273.7843005210538,192.49936049315403,270.50509309286986,116.53032873673165,130.14098642839923,211.04889972757775,102.23214373650875,213.2697700053254,454.6377582689364,48.12273748834482,0,0,1,,,0.0,0.0,0.0,0.0,0.0,0.0,0.0,0.0,0.0,0.0,0.0,0.0,1.0,0,0,1,,,0.0,0.0,0.0,0.0,0.0,0.0,0.0,0.0,0.0,0.0,0.0,0.0,1.0,0,0,1,,,0.0,0.0,0.0,0.0,0.0,0.0,0.0,0.0,0.0,0.0,0.0,0.0,1.0,0,0,1,,,0.0,0.0,0.0,0.0,0.0,0.0,0.0,0.0,0.0,0.0,0.0,0.0,1.0,0,0,1,,,0.0,0.0,0.0,0.0,0.0,0.0,0.0,0.0,0.0,0.0,0.0,0.0,1.0,0,0,1,,,0.0,0.0,0.0,0.0,0.0,0.0,0.0,0.0,0.0,0.0,0.0,0.0,1.0,0,0,1,,,0.0,0.0,0.0,0.0,0.0,0.0,0.0,0.0,0.0,0.0,0.0,0.0,1.0,0,0,0,1,,,0,0,0,0,0,0,0,0,0,0,0,0,0,0,0,0,0,0,0,0,0,1,,,0,0,0,0,0,0,0,0,0,0,0,0,0,0,0,0,0,0
1777535004.883022,365710,1777535000.9616792,,,0,0,,,0,0,0,0,0,0,1,0,0,0.0,0.0,0.0,0.0,0.0,0.0,0.0,0.0,0.0,0.0,0.0,0.0,0.0,0.0,0.0,0.0,0.0,0.0,0.0,0.0,0.0,0.0,0.0,0.0,0.0,0.0,0.0,37.859168089518114,641.5398466701789,848.2832372883888,113.67915494835857,602.0783718164387,863.2782374534436,-51.200239891291695,447.8004239488038,939.5306396979017,27.207408565709027,419.3451219465582,953.5525174734105,-131.2382943339552,601.0423566943939,706.8097636840909,-83.92953115533254,603.3988961235993,412.83578657003414,-114.62402405077373,533.1396128848335,195.68522226209575,-89.02562764437793,477.47871113861015,70.35491227747937,-49.3052920722765,400.3966586640949,46.62838276272882,-5.342943273596509,668.9803830141118,53.59245474508271,208.48955001668364,443.8291065553279,740.6037823466974,225.30214263425273,407.02707058394014,448.96573166594226,220.23143320157405,307.0296351193377,273.771549553651,192.51065033193996,270.4797678501131,116.50814190201461,130.1226238793665,211.005969339088,102.17864437473563,213.30801800421852,454.7020637412868,48.18584320455299,0,0,1,,,0.0,0.0,0.0,0.0,0.0,0.0,0.0,0.0,0.0,0.0,0.0,0.0,1.0,0,0,1,,,0.0,0.0,0.0,0.0,0.0,0.0,0.0,0.0,0.0,0.0,0.0,0.0,1.0,0,0,1,,,0.0,0.0,0.0,0.0,0.0,0.0,0.0,0.0,0.0,0.0,0.0,0.0,1.0,0,0,1,,,0.0,0.0,0.0,0.0,0.0,0.0,0.0,0.0,0.0,0.0,0.0,0.0,1.0,0,0,1,,,0.0,0.0,0.0,0.0,0.0,0.0,0.0,0.0,0.0,0.0,0.0,0.0,1.0,0,0,1,,,0.0,0.0,0.0,0.0,0.0,0.0,0.0,0.0,0.0,0.0,0.0,0.0,1.0,0,0,1,,,0.0,0.0,0.0,0.0,0.0,0.0,0.0,0.0,0.0,0.0,0.0,0.0,1.0,0,0,0,1,,,0,0,0,0,0,0,0,0,0,0,0,0,0,0,0,0,0,0,0,0,0,1,,,0,0,0,0,0,0,0,0,0,0,0,0,0,0,0,0,0,0
1777535004.883022,365711,1777535000.9717128,,,0,0,,,0,0,0,0,0,0,1,0,0,0.0,0.0,0.0,0.0,0.0,0.0,0.0,0.0,0.0,0.0,0.0,0.0,0.0,0.0,0.0,0.0,0.0,0.0,0.0,0.0,0.0,0.0,0.0,0.0,0.0,0.0,0.0,37.86793668545906,641.5354517086535,848.2900381414071,113.68280142457654,602.0705684673354,863.2727490247474,-51.18327780560905,447.7802016140446,939.5392856069981,27.185964970975384,419.32854814493913,953.5485637021933,-131.2346011796343,601.0217944839139,706.7887623308968,-83.94614373647813,603.3612573634631,412.85631093459733,-114.63071212051193,533.1240370190438,195.67879655701927,-89.05795034915582,477.52162734093,70.36517822943559,-49.292843290255014,400.3962707666364,46.63344206314445,-5.353422056127325,668.9481487949649,53.57477666441534,208.5119995410098,443.8036265824166,740.5945510170933,225.29687158969787,406.9682550702308,448.9667569876798,220.1857845422358,306.96060111486327,273.75928625332585,192.47822985612808,270.43313738724174,116.43932907528897,130.12239514377103,210.9912251352164,102.11369086286807,213.27658527042078,454.67516064421346,48.14572665611697,0,0,1,,,0.0,0.0,0.0,0.0,0.0,0.0,0.0,0.0,0.0,0.0,0.0,0.0,1.0,0,0,1,,,0.0,0.0,0.0,0.0,0.0,0.0,0.0,0.0,0.0,0.0,0.0,0.0,1.0,0,0,1,,,0.0,0.0,0.0,0.0,0.0,0.0,0.0,0.0,0.0,0.0,0.0,0.0,1.0,0,0,1,,,0.0,0.0,0.0,0.0,0.0,0.0,0.0,0.0,0.0,0.0,0.0,0.0,1.0,0,0,1,,,0.0,0.0,0.0,0.0,0.0,0.0,0.0,0.0,0.0,0.0,0.0,0.0,1.0,0,0,1,,,0.0,0.0,0.0,0.0,0.0,0.0,0.0,0.0,0.0,0.0,0.0,0.0,1.0,0,0,1,,,0.0,0.0,0.0,0.0,0.0,0.0,0.0,0.0,0.0,0.0,0.0,0.0,1.0,0,0,0,1,,,0,0,0,0,0,0,0,0,0,0,0,0,0,0,0,0,0,0,0,0,0,1,,,0,0,0,0,0,0,0,0,0,0,0,0,0,0,0,0,0,0
1777535004.8840244,365712,1777535000.9817116,,,0,0,,,0,0,0,0,0,0,1,0,0,0.0,0.0,0.0,0.0,0.0,0.0,0.0,0.0,0.0,0.0,0.0,0.0,0.0,0.0,0.0,0.0,0.0,0.0,0.0,0.0,0.0,0.0,0.0,0.0,0.0,0.0,0.0,37.859193145453084,641.4950181376744,848.3059831344375,113.68833519536398,602.0450004931706,863.2731575714627,-51.08946636793654,447.70433744806667,939.5231342398283,27.200838114299533,419.30977050151455,953.5589191148629,-131.24302631022417,601.0301056457591,706.8176720925255,-83.96362859932528,603.3548421349379,412.87625028001185,-114.63538637362946,533.1192462716033,195.69410542207794,-89.03632925854221,477.47789751749133,70.36047394389581,-49.27987979370843,400.3906780507699,46.66737584511721,-5.335740224773158,668.9626907876726,53.598918280079516,208.5095841353341,443.7916664122975,740.5768879964941,225.271275066944,406.9147695624317,448.94591659996695,220.1751881744123,306.91210362246915,273.7390254741301,192.49187964263174,270.4124240175668,116.42161935077299,130.15836797281318,210.95380569127659,102.12906944843844,213.23161480729684,454.5632970263436,48.09726051940118,0,0,1,,,0.0,0.0,0.0,0.0,0.0,0.0,0.0,0.0,0.0,0.0,0.0,0.0,1.0,0,0,1,,,0.0,0.0,0.0,0.0,0.0,0.0,0.0,0.0,0.0,0.0,0.0,0.0,1.0,0,0,1,,,0.0,0.0,0.0,0.0,0.0,0.0,0.0,0.0,0.0,0.0,0.0,0.0,1.0,0,0,1,,,0.0,0.0,0.0,0.0,0.0,0.0,0.0,0.0,0.0,0.0,0.0,0.0,1.0,0,0,1,,,0.0,0.0,0.0,0.0,0.0,0.0,0.0,0.0,0.0,0.0,0.0,0.0,1.0,0,0,1,,,0.0,0.0,0.0,0.0,0.0,0.0,0.0,0.0,0.0,0.0,0.0,0.0,1.0,0,0,1,,,0.0,0.0,0.0,0.0,0.0,0.0,0.0,0.0,0.0,0.0,0.0,0.0,1.0,0,0,0,1,,,0,0,0,0,0,0,0,0,0,0,0,0,0,0,0,0,0,0,0,0,0,1,,,0,0,0,0,0,0,0,0,0,0,0,0,0,0,0,0,0,0
1777535004.8840244,365713,1777535000.991712,,,0,0,,,0,0,0,0,0,0,1,0,0,0.0,0.0,0.0,0.0,0.0,0.0,0.0,0.0,0.0,0.0,0.0,0.0,0.0,0.0,0.0,0.0,0.0,0.0,0.0,0.0,0.0,0.0,0.0,0.0,0.0,0.0,0.0,37.83457261719064,641.5013124150305,848.3136876731693,113.67191554970954,602.0363985333366,863.2618076013774,-51.058775882498054,447.6699247373504,939.5542700919129,27.216531908179395,419.29083892956,953.547099463028,-131.24865804482434,600.9338026934183,706.8235659581256,-83.98763778705435,603.3427394841367,412.87272763390877,-114.66945011062656,533.1248100315117,195.69319052845276,-89.05099964354422,477.4930534833695,70.35654957892076,-49.2922853528172,400.400382965109,46.62719722825543,-5.3617326912535415,668.9137096400018,53.53820220372852,208.53612961385207,443.7782795867112,740.5556322086062,225.26282459233127,406.8704333263801,448.94576321496965,220.1617450274187,306.8702655022425,273.7158624373237,192.53203523041628,270.33133448984745,116.39678479337101,130.15600023323378,210.95815403576822,102.0678594058649,213.21628434372175,454.56199595137963,48.07387189547779,0,0,1,,,0.0,0.0,0.0,0.0,0.0,0.0,0.0,0.0,0.0,0.0,0.0,0.0,1.0,0,0,1,,,0.0,0.0,0.0,0.0,0.0,0.0,0.0,0.0,0.0,0.0,0.0,0.0,1.0,0,0,1,,,0.0,0.0,0.0,0.0,0.0,0.0,0.0,0.0,0.0,0.0,0.0,0.0,1.0,0,0,1,,,0.0,0.0,0.0,0.0,0.0,0.0,0.0,0.0,0.0,0.0,0.0,0.0,1.0,0,0,1,,,0.0,0.0,0.0,0.0,0.0,0.0,0.0,0.0,0.0,0.0,0.0,0.0,1.0,0,0,1,,,0.0,0.0,0.0,0.0,0.0,0.0,0.0,0.0,0.0,0.0,0.0,0.0,1.0,0,0,1,,,0.0,0.0,0.0,0.0,0.0,0.0,0.0,0.0,0.0,0.0,0.0,0.0,1.0,0,0,0,1,,,0,0,0,0,0,0,0,0,0,0,0,0,0,0,0,0,0,0,0,0,0,1,,,0,0,0,0,0,0,0,0,0,0,0,0,0,0,0,0,0,0
1777535004.8840244,365714,1777535001.0017273,,,0,0,,,0,0,0,0,0,0,1,0,0,0.0,0.0,0.0,0.0,0.0,0.0,0.0,0.0,0.0,0.0,0.0,0.0,0.0,0.0,0.0,0.0,0.0,0.0,0.0,0.0,0.0,0.0,0.0,0.0,0.0,0.0,0.0,37.81737520367807,641.4460909150416,848.2951068284244,113.66539500752562,602.0085432392647,863.2607862497549,-51.02922456081684,447.6306690312464,939.5599126793294,27.272736014651475,419.2539387328459,953.5693706849506,-131.27424273263833,600.8841305714378,706.8314944811036,-84.0011611926791,603.3389829519809,412.8783675339118,-114.68752531632975,533.1223784272237,195.6892149708795,-89.0845558139713,477.49210321442825,70.38683197485487,-49.29941837873546,400.3938711983676,46.64353120950885,-5.3922071957518085,668.9578199114494,53.56530315935895,208.55402208249325,443.7793565707215,740.5524765506025,225.25639970424896,406.8548734584389,448.9252830175737,220.16257810183188,306.83833390504685,273.7203797715614,192.55070388544985,270.35768954764467,116.39633830448909,130.18567288630965,210.93714748636668,102.0704627569967,213.20290959288315,454.55678772253987,48.0733382993615,0,0,1,,,0.0,0.0,0.0,0.0,0.0,0.0,0.0,0.0,0.0,0.0,0.0,0.0,1.0,0,0,1,,,0.0,0.0,0.0,0.0,0.0,0.0,0.0,0.0,0.0,0.0,0.0,0.0,1.0,0,0,1,,,0.0,0.0,0.0,0.0,0.0,0.0,0.0,0.0,0.0,0.0,0.0,0.0,1.0,0,0,1,,,0.0,0.0,0.0,0.0,0.0,0.0,0.0,0.0,0.0,0.0,0.0,0.0,1.0,0,0,1,,,0.0,0.0,0.0,0.0,0.0,0.0,0.0,0.0,0.0,0.0,0.0,0.0,1.0,0,0,1,,,0.0,0.0,0.0,0.0,0.0,0.0,0.0,0.0,0.0,0.0,0.0,0.0,1.0,0,0,1,,,0.0,0.0,0.0,0.0,0.0,0.0,0.0,0.0,0.0,0.0,0.0,0.0,1.0,0,0,0,1,,,0,0,0,0,0,0,0,0,0,0,0,0,0,0,0,0,0,0,0,0,0,1,,,0,0,0,0,0,0,0,0,0,0,0,0,0,0,0,0,0,0
1777535004.8840244,365715,1777535001.011725,,,0,0,,,0,0,0,0,0,0,1,0,0,0.0,0.0,0.0,0.0,0.0,0.0,0.0,0.0,0.0,0.0,0.0,0.0,0.0,0.0,0.0,0.0,0.0,0.0,0.0,0.0,0.0,0.0,0.0,0.0,0.0,0.0,0.0,37.79720080193932,641.3794371937228,848.2882929089143,113.63018697522921,602.0017454315889,863.2406469197563,-51.00120923242233,447.5687624279658,939.5069642890684,27.353910292422203,419.22662222755093,953.5529042431293,-131.3056589087041,600.8064669563208,706.8394702758735,-84.04459255623861,603.310874534676,412.8713735659368,-114.68001973299509,533.0690606200099,195.66986036299494,-89.00379229920875,477.4294768712691,70.28720359400306,-49.285689525293385,400.3886166917396,46.65449682586944,-5.3978509552214184,668.9362396208033,53.555273125645336,208.5735127123675,443.77734541699806,740.5451459967577,225.2696629438836,406.8555565608457,448.9253301490456,220.17262526650947,306.8428859717209,273.7137904880616,192.5518047349041,270.3205590516245,116.37551524056062,130.1959622787864,210.9333917507346,102.05589404979384,213.2435462997681,454.57008946199903,48.13239284158977,0,0,1,,,0.0,0.0,0.0,0.0,0.0,0.0,0.0,0.0,0.0,0.0,0.0,0.0,1.0,0,0,1,,,0.0,0.0,0.0,0.0,0.0,0.0,0.0,0.0,0.0,0.0,0.0,0.0,1.0,0,0,1,,,0.0,0.0,0.0,0.0,0.0,0.0,0.0,0.0,0.0,0.0,0.0,0.0,1.0,0,0,1,,,0.0,0.0,0.0,0.0,0.0,0.0,0.0,0.0,0.0,0.0,0.0,0.0,1.0,0,0,1,,,0.0,0.0,0.0,0.0,0.0,0.0,0.0,0.0,0.0,0.0,0.0,0.0,1.0,0,0,1,,,0.0,0.0,0.0,0.0,0.0,0.0,0.0,0.0,0.0,0.0,0.0,0.0,1.0,0,0,1,,,0.0,0.0,0.0,0.0,0.0,0.0,0.0,0.0,0.0,0.0,0.0,0.0,1.0,0,0,0,1,,,0,0,0,0,0,0,0,0,0,0,0,0,0,0,0,0,0,0,0,0,0,1,,,0,0,0,0,0,0,0,0,0,0,0,0,0,0,0,0,0,0
1777535004.885024,365716,1777535001.0220325,,,0,0,,,0,0,0,0,0,0,1,0,0,0.0,0.0,0.0,0.0,0.0,0.0,0.0,0.0,0.0,0.0,0.0,0.0,0.0,0.0,0.0,0.0,0.0,0.0,0.0,0.0,0.0,0.0,0.0,0.0,0.0,0.0,0.0,37.75204268038273,641.3562514472102,848.2802534836259,113.6127079877168,601.9915431694224,863.2346170959277,-51.004077011895134,447.55399638365475,939.519149166631,27.383275021731382,419.19883541169264,953.5672301924756,-131.34061339892293,600.6739168503334,706.8340524910294,-84.06789309588426,603.2789347242816,412.8795820592569,-114.67391153087645,533.0744155061155,195.68001482679242,-89.03665667045162,477.47851527622487,70.32006040182455,-49.33108819844087,400.3973538645923,46.601067036287084,-5.366747365736902,668.9560168601527,53.59751645349151,208.57995006088035,443.7662437277703,740.5663893822547,225.27674745286075,406.85735433311856,448.9067333711377,220.1832817629787,306.8451202022872,273.683483179696,192.5712717809109,270.32238747239495,116.36019784169595,130.19654053270423,210.93093144729917,102.0493735327045,213.21343797693635,454.5520913873377,48.09873672985872,0,0,1,,,0.0,0.0,0.0,0.0,0.0,0.0,0.0,0.0,0.0,0.0,0.0,0.0,1.0,0,0,1,,,0.0,0.0,0.0,0.0,0.0,0.0,0.0,0.0,0.0,0.0,0.0,0.0,1.0,0,0,1,,,0.0,0.0,0.0,0.0,0.0,0.0,0.0,0.0,0.0,0.0,0.0,0.0,1.0,0,0,1,,,0.0,0.0,0.0,0.0,0.0,0.0,0.0,0.0,0.0,0.0,0.0,0.0,1.0,0,0,1,,,0.0,0.0,0.0,0.0,0.0,0.0,0.0,0.0,0.0,0.0,0.0,0.0,1.0,0,0,1,,,0.0,0.0,0.0,0.0,0.0,0.0,0.0,0.0,0.0,0.0,0.0,0.0,1.0,0,0,1,,,0.0,0.0,0.0,0.0,0.0,0.0,0.0,0.0,0.0,0.0,0.0,0.0,1.0,0,0,0,1,,,0,0,0,0,0,0,0,0,0,0,0,0,0,0,0,0,0,0,0,0,0,1,,,0,0,0,0,0,0,0,0,0,0,0,0,0,0,0,0,0,0
1777535004.885024,365717,1777535001.0320323,,,0,0,,,0,0,0,0,0,0,1,0,0,0.0,0.0,0.0,0.0,0.0,0.0,0.0,0.0,0.0,0.0,0.0,0.0,0.0,0.0,0.0,0.0,0.0,0.0,0.0,0.0,0.0,0.0,0.0,0.0,0.0,0.0,0.0,37.726892419138885,641.3410177665925,848.2756879959932,113.59824288248655,601.9532274542441,863.2232205084808,-50.91470004765382,447.4624769272689,939.4887898414388,27.404539630473945,419.1984756539213,953.5542016656071,-131.37002104832436,600.5877876356994,706.8456618738443,-84.0981500973721,603.2452499939387,412.87850592619645,-114.6962703846484,533.0547532659056,195.67827983663744,-89.45566332429672,477.83358999585266,70.92905743021215,-49.32582867251822,400.38565857468916,46.62679568643607,-5.410062608680013,668.9266353868638,53.55380949215469,208.60966411641166,443.7734893982029,740.5598398353121,225.2944375440945,406.86994004809407,448.90536914682923,220.1973500522583,306.84858106109124,273.6860780241716,192.62320104583918,270.2980849949685,116.37834872726161,130.2042232715954,210.9282622810039,102.04335525978117,213.21702479434398,454.55205299583696,48.094462862327305,0,0,1,,,0.0,0.0,0.0,0.0,0.0,0.0,0.0,0.0,0.0,0.0,0.0,0.0,1.0,0,0,1,,,0.0,0.0,0.0,0.0,0.0,0.0,0.0,0.0,0.0,0.0,0.0,0.0,1.0,0,0,1,,,0.0,0.0,0.0,0.0,0.0,0.0,0.0,0.0,0.0,0.0,0.0,0.0,1.0,0,0,1,,,0.0,0.0,0.0,0.0,0.0,0.0,0.0,0.0,0.0,0.0,0.0,0.0,1.0,0,0,1,,,0.0,0.0,0.0,0.0,0.0,0.0,0.0,0.0,0.0,0.0,0.0,0.0,1.0,0,0,1,,,0.0,0.0,0.0,0.0,0.0,0.0,0.0,0.0,0.0,0.0,0.0,0.0,1.0,0,0,1,,,0.0,0.0,0.0,0.0,0.0,0.0,0.0,0.0,0.0,0.0,0.0,0.0,1.0,0,0,0,1,,,0,0,0,0,0,0,0,0,0,0,0,0,0,0,0,0,0,0,0,0,0,1,,,0,0,0,0,0,0,0,0,0,0,0,0,0,0,0,0,0,0
1777535004.885024,365718,1777535001.0417655,,,0,0,,,0,0,0,0,0,0,1,0,0,0.0,0.0,0.0,0.0,0.0,0.0,0.0,0.0,0.0,0.0,0.0,0.0,0.0,0.0,0.0,0.0,0.0,0.0,0.0,0.0,0.0,0.0,0.0,0.0,0.0,0.0,0.0,37.712917507177416,641.3239525141835,848.2904713528906,113.5827410744506,601.9522289021016,863.2163721377376,-50.895022275794204,447.4043286027538,939.5038153097661,27.404993210679454,419.13606899056646,953.5800277399635,-131.39432958038762,600.5629964748917,706.857788280061,-84.10492531337185,603.1780776245522,412.891187840014,-114.71434659174453,533.0262993778591,195.68332892741964,-89.45753116906657,477.8291905553882,70.91169303250233,-49.29732390899716,400.40059110090306,46.61511100180589,-5.367433463014266,668.9607833224084,53.594599982799515,208.60838371248948,443.78557869861294,740.5413857391386,225.30447871581498,406.87294753387397,448.888013163619,220.23299815861483,306.84547186373806,273.677937258877,192.66254998796364,270.3050533644796,116.36724820849686,130.25595683617033,210.89294571011507,102.08493380587765,213.19888152146552,454.5485599493259,48.08707288959331,0,0,1,,,0.0,0.0,0.0,0.0,0.0,0.0,0.0,0.0,0.0,0.0,0.0,0.0,1.0,0,0,1,,,0.0,0.0,0.0,0.0,0.0,0.0,0.0,0.0,0.0,0.0,0.0,0.0,1.0,0,0,1,,,0.0,0.0,0.0,0.0,0.0,0.0,0.0,0.0,0.0,0.0,0.0,0.0,1.0,0,0,1,,,0.0,0.0,0.0,0.0,0.0,0.0,0.0,0.0,0.0,0.0,0.0,0.0,1.0,0,0,1,,,0.0,0.0,0.0,0.0,0.0,0.0,0.0,0.0,0.0,0.0,0.0,0.0,1.0,0,0,1,,,0.0,0.0,0.0,0.0,0.0,0.0,0.0,0.0,0.0,0.0,0.0,0.0,1.0,0,0,1,,,0.0,0.0,0.0,0.0,0.0,0.0,0.0,0.0,0.0,0.0,0.0,0.0,1.0,0,0,0,1,,,0,0,0,0,0,0,0,0,0,0,0,0,0,0,0,0,0,0,0,0,0,1,,,0,0,0,0,0,0,0,0,0,0,0,0,0,0,0,0,0,0
1777535004.885024,365719,1777535001.0527678,,,0,0,,,0,0,0,0,0,0,1,0,0,0.0,0.0,0.0,0.0,0.0,0.0,0.0,0.0,0.0,0.0,0.0,0.0,0.0,0.0,0.0,0.0,0.0,0.0,0.0,0.0,0.0,0.0,0.0,0.0,0.0,0.0,0.0,37.68205865952717,641.2838656760715,848.286321422596,113.56788397957878,601.9322888947853,863.2076596201322,-50.87951802300125,447.3522168980964,939.5043401079507,27.506591887155935,419.0647868020574,953.559224032224,-131.4118620823227,600.5248775611269,706.8636798200579,-84.15574605274719,603.1448596506825,412.90681818840176,-114.72176875258259,532.9498962632051,195.68245025610346,-89.4367726217282,477.8148290256433,70.90235897248489,-49.27505816199335,400.38976667353415,46.61232402653995,-5.37347159857848,668.9494993291222,53.59561591372485,208.63855874280443,443.7982111203983,740.5170305172131,225.32983974246406,406.8871775139576,448.86564959589793,220.26241306979733,306.8435101050836,273.6770678342868,192.726413229927,270.2951490720313,116.37312510060988,130.3041576490102,210.87024761008047,102.07258927207424,213.2621750643777,454.61012511425645,48.15617379912549,0,0,1,,,0.0,0.0,0.0,0.0,0.0,0.0,0.0,0.0,0.0,0.0,0.0,0.0,1.0,0,0,1,,,0.0,0.0,0.0,0.0,0.0,0.0,0.0,0.0,0.0,0.0,0.0,0.0,1.0,0,0,1,,,0.0,0.0,0.0,0.0,0.0,0.0,0.0,0.0,0.0,0.0,0.0,0.0,1.0,0,0,1,,,0.0,0.0,0.0,0.0,0.0,0.0,0.0,0.0,0.0,0.0,0.0,0.0,1.0,0,0,1,,,0.0,0.0,0.0,0.0,0.0,0.0,0.0,0.0,0.0,0.0,0.0,0.0,1.0,0,0,1,,,0.0,0.0,0.0,0.0,0.0,0.0,0.0,0.0,0.0,0.0,0.0,0.0,1.0,0,0,1,,,0.0,0.0,0.0,0.0,0.0,0.0,0.0,0.0,0.0,0.0,0.0,0.0,1.0,0,0,0,1,,,0,0,0,0,0,0,0,0,0,0,0,0,0,0,0,0,0,0,0,0,0,1,,,0,0,0,0,0,0,0,0,0,0,0,0,0,0,0,0,0,0
1777535004.8860226,365720,1777535001.0612762,,,0,0,,,0,0,0,0,0,0,1,0,0,0.0,0.0,0.0,0.0,0.0,0.0,0.0,0.0,0.0,0.0,0.0,0.0,0.0,0.0,0.0,0.0,0.0,0.0,0.0,0.0,0.0,0.0,0.0,0.0,0.0,0.0,0.0,37.66890071626912,641.2724402220924,848.2955118007354,113.55940587854658,601.9065716311251,863.2014283927059,-50.867314183504384,447.3180869517935,939.4897427254573,27.524817661790667,419.01678080411034,953.5648740577185,-131.4136043307923,600.4524973735456,706.8880544045252,-84.16267205576844,603.0238227029355,412.9165529932445,-114.75811724577598,532.9484632254776,195.68752352722498,-89.44713230470876,477.7894372831207,70.89507740936536,-49.286097120731746,400.39018615646467,46.6057965709362,-5.426375147934823,668.9468089539963,53.57355854950458,208.67112332180275,443.80658376041265,740.4947439146314,225.38247870702537,406.90771393402645,448.84566900306135,220.30205075221065,306.8399647713511,273.6732379039816,192.8061777666558,270.2557950145152,116.36208598334626,130.32238187976662,210.87639325915092,102.07582278394476,213.25362783473577,454.6081564151814,48.15244278856031,0,0,1,,,0.0,0.0,0.0,0.0,0.0,0.0,0.0,0.0,0.0,0.0,0.0,0.0,1.0,0,0,1,,,0.0,0.0,0.0,0.0,0.0,0.0,0.0,0.0,0.0,0.0,0.0,0.0,1.0,0,0,1,,,0.0,0.0,0.0,0.0,0.0,0.0,0.0,0.0,0.0,0.0,0.0,0.0,1.0,0,0,1,,,0.0,0.0,0.0,0.0,0.0,0.0,0.0,0.0,0.0,0.0,0.0,0.0,1.0,0,0,1,,,0.0,0.0,0.0,0.0,0.0,0.0,0.0,0.0,0.0,0.0,0.0,0.0,1.0,0,0,1,,,0.0,0.0,0.0,0.0,0.0,0.0,0.0,0.0,0.0,0.0,0.0,0.0,1.0,0,0,1,,,0.0,0.0,0.0,0.0,0.0,0.0,0.0,0.0,0.0,0.0,0.0,0.0,1.0,0,0,0,1,,,0,0,0,0,0,0,0,0,0,0,0,0,0,0,0,0,0,0,0,0,0,1,,,0,0,0,0,0,0,0,0,0,0,0,0,0,0,0,0,0,0
1777535004.8860226,365721,1777535001.0818427,1777535001.0813382,,0,0,1.5048980712890625,,1,0,7,0,1,0,1,0,0,0.0,0.0,0.0,0.0,0.0,0.0,0.0,0.0,0.0,0.0,0.0,0.0,0.0,0.0,0.0,0.0,0.0,0.0,0.0,0.0,0.0,0.0,0.0,0.0,0.0,0.0,0.0,37.646374889721905,641.2059196449474,848.3033452632568,113.55097813300313,601.8812905745301,863.1951568660674,-50.84112283843886,447.24947445172285,939.4648828600119,27.568957275806053,418.9567390370873,953.5430508959778,-131.4382263626078,600.4365579522386,706.888053517077,-84.21712782537651,602.9816885589499,412.93261256106376,-114.75938769095428,532.8743478913885,195.6790174161158,-89.4368311274347,477.78528895364764,70.89418913758419,-49.292906680091676,400.3989855615622,46.598590908553795,-5.412246367747868,668.9589424476663,53.605256154811485,208.741212423428,443.7922118071153,740.495712462607,225.4190594383318,406.9397466420301,448.82794835768095,220.29863325576372,306.8613398734681,273.65306002555667,192.85997581194547,270.27019112438416,116.33821298241546,130.352808937343,210.82470331315494,102.08275920882802,213.2424886926772,454.58437754909176,48.13227243249167,1,0,0,1777535001.0803378,1.5048980712890625,-2.1485,8.6803,-3.6032,0.6104,0.3662,-0.3662,112.5275,13.4253,-5.0867,0.8222,0.1015,0.0726,0.5553,1,0,0,1777535001.0813382,0.5044937133789062,-0.3158,9.5799,-1.9236,-0.6104,1.3428,-0.4272,101.618,1.7578,-31.9482,0.7424,0.2226,-0.1625,0.6107,1,0,0,1777535001.0813382,0.5044937133789062,-1.2202,9.1971,-2.7467,-0.3662,0.1221,0.3052,106.5729,7.196,-26.2628,0.7706,0.2183,-0.0866,0.5925,1,0,0,1777535001.0813382,0.5044937133789062,-1.0336,0.6029,9.9723,-0.8545,-0.1831,0.2441,4.0649,6.5698,-121.3824,-0.0326,0.0589,-0.869,0.4902,1,0,0,1777535001.0813382,0.5044937133789062,-1.7322,9.3598,-2.2347,1.2207,-0.1831,-0.7324,104.5349,10.8051,-59.079,0.6566,0.4383,-0.2356,0.5668,1,0,0,1777535001.0803378,1.5048980712890625,-1.0814,8.642,-4.0817,-0.5493,-0.9766,0.7324,115.741,6.3831,176.8854,0.0526,-0.8444,0.5321,-0.0327,1,0,0,1777535001.0803378,1.5048980712890625,0.9618,3.7851,9.1875,-0.1221,0.061,0.3662,23.1372,-5.5371,158.8568,-0.0098,-0.2056,0.9602,0.189,0,0,0,1,,,0,0,0,0,0,0,0,0,0,0,0,0,0,0,0,0,0,0,0,0,0,1,,,0,0,0,0,0,0,0,0,0,0,0,0,0,0,0,0,0,0
1777535004.8860226,365722,1777535001.0826554,1777535001.0813382,,0,0,2.317667007446289,,1,0,7,0,1,0,1,0,0,0.0,0.0,0.0,0.0,0.0,0.0,0.0,0.0,0.0,0.0,0.0,0.0,0.0,0.0,0.0,0.0,0.0,0.0,0.0,0.0,0.0,0.0,0.0,0.0,0.0,0.0,0.0,37.63913364570383,641.169677856612,848.306504853958,113.55333287173306,601.8376970740534,863.1934671345657,-50.80764843803018,447.1819559452262,939.4697544196473,27.539469572003796,418.92382443493057,953.5470059239758,-131.44050221742373,600.3205629344806,706.8992309105578,-84.25516836560955,602.9575569105436,412.9491790650088,-114.76946097712457,532.8527325374575,195.6830243169063,-89.44703771916222,477.76357667788085,70.87289757176191,-49.31431945661913,400.3873699732105,46.58505369773892,-5.405287888115541,668.9274276141879,53.60434742088166,208.7620592763597,443.7847935032493,740.460581528203,225.4546034104998,406.96458134578324,448.80458897491724,220.36246876362117,306.8445212154812,273.6695366386465,192.9099735068098,270.2497540497647,116.33091069161718,130.3918082925977,210.78971919168671,102.07893222119533,213.24262958717492,454.5792955837014,48.137852015173934,1,0,0,1777535001.0803378,2.317667007446289,-2.1485,8.6803,-3.6032,0.6104,0.3662,-0.3662,112.5275,13.4253,-5.0867,0.8222,0.1015,0.0726,0.5553,1,0,0,1777535001.0813382,1.3172626495361328,-0.3158,9.5799,-1.9236,-0.6104,1.3428,-0.4272,101.618,1.7578,-31.9482,0.7424,0.2226,-0.1625,0.6107,1,0,0,1777535001.0813382,1.3172626495361328,-1.2202,9.1971,-2.7467,-0.3662,0.1221,0.3052,106.5729,7.196,-26.2628,0.7706,0.2183,-0.0866,0.5925,1,0,0,1777535001.0813382,1.3172626495361328,-1.0336,0.6029,9.9723,-0.8545,-0.1831,0.2441,4.0649,6.5698,-121.3824,-0.0326,0.0589,-0.869,0.4902,1,0,0,1777535001.0813382,1.3172626495361328,-1.7322,9.3598,-2.2347,1.2207,-0.1831,-0.7324,104.5349,10.8051,-59.079,0.6566,0.4383,-0.2356,0.5668,1,0,0,1777535001.0803378,2.317667007446289,-1.0814,8.642,-4.0817,-0.5493,-0.9766,0.7324,115.741,6.3831,176.8854,0.0526,-0.8444,0.5321,-0.0327,1,0,0,1777535001.0803378,2.317667007446289,0.9618,3.7851,9.1875,-0.1221,0.061,0.3662,23.1372,-5.5371,158.8568,-0.0098,-0.2056,0.9602,0.189,0,0,0,1,,,0,0,0,0,0,0,0,0,0,0,0,0,0,0,0,0,0,0,0,0,0,1,,,0,0,0,0,0,0,0,0,0,0,0,0,0,0,0,0,0,0
1777535004.8870232,365723,1777535001.0915413,1777535001.0813382,,0,0,11.203527450561523,,1,0,7,0,1,0,1,0,0,0.0,0.0,0.0,0.0,0.0,0.0,0.0,0.0,0.0,0.0,0.0,0.0,0.0,0.0,0.0,0.0,0.0,0.0,0.0,0.0,0.0,0.0,0.0,0.0,0.0,0.0,0.0,37.632508622329745,641.1403073919928,848.2957080080846,113.55384201458477,601.794076472131,863.1831308877211,-50.79268342883723,447.14244611654885,939.4713082543794,27.508964959699437,418.85924470554653,953.4950847346772,-131.45060643051056,600.2572983405628,706.9145034340285,-84.27704140518877,602.8875456219876,412.95450220648223,-114.78410196225067,532.833933536364,195.68304383773992,-89.44088081159458,477.76672174563674,70.89405063911515,-49.301789463474435,400.3795768580086,46.574249558286645,-5.420877723003909,668.9310141141254,53.60373835219316,208.79188912251269,443.777354744044,740.4576400531638,225.49370301337564,406.9804565484103,448.8004541660204,220.42058731563264,306.84101350866973,273.64588805136225,192.96231608995203,270.2362546615115,116.32875277023889,130.41335128981103,210.79675149686432,102.05963379681172,213.24594825448463,454.57868198369886,48.1418897446401,1,0,0,1777535001.0803378,11.203527450561523,-2.1485,8.6803,-3.6032,0.6104,0.3662,-0.3662,112.5275,13.4253,-5.0867,0.8222,0.1015,0.0726,0.5553,1,0,0,1777535001.0813382,10.203123092651367,-0.3158,9.5799,-1.9236,-0.6104,1.3428,-0.4272,101.618,1.7578,-31.9482,0.7424,0.2226,-0.1625,0.6107,1,0,0,1777535001.0813382,10.203123092651367,-1.2202,9.1971,-2.7467,-0.3662,0.1221,0.3052,106.5729,7.196,-26.2628,0.7706,0.2183,-0.0866,0.5925,1,0,0,1777535001.0813382,10.203123092651367,-1.0336,0.6029,9.9723,-0.8545,-0.1831,0.2441,4.0649,6.5698,-121.3824,-0.0326,0.0589,-0.869,0.4902,1,0,0,1777535001.0813382,10.203123092651367,-1.7322,9.3598,-2.2347,1.2207,-0.1831,-0.7324,104.5349,10.8051,-59.079,0.6566,0.4383,-0.2356,0.5668,1,0,0,1777535001.0803378,11.203527450561523,-1.0814,8.642,-4.0817,-0.5493,-0.9766,0.7324,115.741,6.3831,176.8854,0.0526,-0.8444,0.5321,-0.0327,1,0,0,1777535001.0803378,11.203527450561523,0.9618,3.7851,9.1875,-0.1221,0.061,0.3662,23.1372,-5.5371,158.8568,-0.0098,-0.2056,0.9602,0.189,0,0,0,1,,,0,0,0,0,0,0,0,0,0,0,0,0,0,0,0,0,0,0,0,0,0,1,,,0,0,0,0,0,0,0,0,0,0,0,0,0,0,0,0,0,0
1777535004.8870232,365724,1777535001.1015425,1777535001.0813382,,0,0,21.204710006713867,,0,0,0,0,0,0,1,0,0,0.0,0.0,0.0,0.0,0.0,0.0,0.0,0.0,0.0,0.0,0.0,0.0,0.0,0.0,0.0,0.0,0.0,0.0,0.0,0.0,0.0,0.0,0.0,0.0,0.0,0.0,0.0,37.64493809833874,641.0587113072837,848.2895332408951,113.54805933034326,601.7561215312529,863.1854240317158,-50.77713881407266,447.0896846859897,939.4428635811181,27.479029095350484,418.80479500713426,953.4870024982113,-131.44865772930433,600.2228540498658,706.9304574850084,-84.30886276916824,602.7823710344195,412.9235061752876,-114.8026391777722,532.8148059838874,195.67388191669224,-89.44980192996164,477.76210831980586,70.9003918361364,-49.29065190255383,400.3974883681184,46.57112056261746,-5.436891263202257,668.9302070129139,53.6009670165755,208.86176806175322,443.73455165239017,740.4726859168587,225.50926569174368,406.9839924273811,448.7935479137913,220.49083831534386,306.830077008178,273.66236477442203,192.99256031446558,270.2287851809106,116.32121520794036,130.42436952091595,210.760796837489,102.05787957510994,213.30742757026022,454.6320856136923,48.22303931873022,0,1,0,1777535001.0803378,21.204710006713867,-2.1485,8.6803,-3.6032,0.6104,0.3662,-0.3662,112.5275,13.4253,-5.0867,0.8222,0.1015,0.0726,0.5553,0,1,0,1777535001.0813382,20.20430564880371,-0.3158,9.5799,-1.9236,-0.6104,1.3428,-0.4272,101.618,1.7578,-31.9482,0.7424,0.2226,-0.1625,0.6107,0,1,0,1777535001.0813382,20.20430564880371,-1.2202,9.1971,-2.7467,-0.3662,0.1221,0.3052,106.5729,7.196,-26.2628,0.7706,0.2183,-0.0866,0.5925,0,1,0,1777535001.0813382,20.20430564880371,-1.0336,0.6029,9.9723,-0.8545,-0.1831,0.2441,4.0649,6.5698,-121.3824,-0.0326,0.0589,-0.869,0.4902,0,1,0,1777535001.0813382,20.20430564880371,-1.7322,9.3598,-2.2347,1.2207,-0.1831,-0.7324,104.5349,10.8051,-59.079,0.6566,0.4383,-0.2356,0.5668,0,1,0,1777535001.0803378,21.204710006713867,-1.0814,8.642,-4.0817,-0.5493,-0.9766,0.7324,115.741,6.3831,176.8854,0.0526,-0.8444,0.5321,-0.0327,0,1,0,1777535001.0803378,21.204710006713867,0.9618,3.7851,9.1875,-0.1221,0.061,0.3662,23.1372,-5.5371,158.8568,-0.0098,-0.2056,0.9602,0.189,0,0,0,1,,,0,0,0,0,0,0,0,0,0,0,0,0,0,0,0,0,0,0,0,0,0,1,,,0,0,0,0,0,0,0,0,0,0,0,0,0,0,0,0,0,0
1777535004.8870232,365725,1777535001.1110547,1777535001.0813382,,0,0,30.716896057128906,,0,0,0,0,0,0,1,0,0,0.0,0.0,0.0,0.0,0.0,0.0,0.0,0.0,0.0,0.0,0.0,0.0,0.0,0.0,0.0,0.0,0.0,0.0,0.0,0.0,0.0,0.0,0.0,0.0,0.0,0.0,0.0,37.64635764064186,641.0317400924916,848.2935877526754,113.56833795851246,601.6839543132613,863.1784447031395,-50.75083226558248,447.0493441029713,939.4560188642566,27.51190871765262,418.75586959717845,953.4870369147241,-131.4245230948027,600.1792309508685,706.9479072280188,-84.32067336415082,602.7200882532835,412.93937591014,-114.83537045882285,532.8109897720102,195.6859447284539,-89.46521950172051,477.75508256843636,70.87348843565982,-49.29518196020087,400.3948403516591,46.550415408256036,-5.454934438625066,668.943798433956,53.62875316557081,208.86878632322308,443.71058994699723,740.4657708031195,225.52129261692812,406.97034655460885,448.7819343371039,220.52045246782103,306.82102515600195,273.6543412371228,193.0381102983263,270.2340903936799,116.31669998301734,130.42785350091467,210.77212453111545,102.03634577784631,213.2498489648186,454.5748612893188,48.14540545000684,0,1,0,1777535001.0803378,30.716896057128906,-2.1485,8.6803,-3.6032,0.6104,0.3662,-0.3662,112.5275,13.4253,-5.0867,0.8222,0.1015,0.0726,0.5553,0,1,0,1777535001.0813382,29.71649169921875,-0.3158,9.5799,-1.9236,-0.6104,1.3428,-0.4272,101.618,1.7578,-31.9482,0.7424,0.2226,-0.1625,0.6107,0,1,0,1777535001.0813382,29.71649169921875,-1.2202,9.1971,-2.7467,-0.3662,0.1221,0.3052,106.5729,7.196,-26.2628,0.7706,0.2183,-0.0866,0.5925,0,1,0,1777535001.0813382,29.71649169921875,-1.0336,0.6029,9.9723,-0.8545,-0.1831,0.2441,4.0649,6.5698,-121.3824,-0.0326,0.0589,-0.869,0.4902,0,1,0,1777535001.0813382,29.71649169921875,-1.7322,9.3598,-2.2347,1.2207,-0.1831,-0.7324,104.5349,10.8051,-59.079,0.6566,0.4383,-0.2356,0.5668,0,1,0,1777535001.0803378,30.716896057128906,-1.0814,8.642,-4.0817,-0.5493,-0.9766,0.7324,115.741,6.3831,176.8854,0.0526,-0.8444,0.5321,-0.0327,0,1,0,1777535001.0803378,30.716896057128906,0.9618,3.7851,9.1875,-0.1221,0.061,0.3662,23.1372,-5.5371,158.8568,-0.0098,-0.2056,0.9602,0.189,0,0,0,1,,,0,0,0,0,0,0,0,0,0,0,0,0,0,0,0,0,0,0,0,0,0,1,,,0,0,0,0,0,0,0,0,0,0,0,0,0,0,0,0,0,0
1777535004.888023,365726,1777535001.1210537,1777535001.0813382,,0,0,40.715932846069336,,0,0,0,0,0,0,1,0,0,0.0,0.0,0.0,0.0,0.0,0.0,0.0,0.0,0.0,0.0,0.0,0.0,0.0,0.0,0.0,0.0,0.0,0.0,0.0,0.0,0.0,0.0,0.0,0.0,0.0,0.0,0.0,37.67348505170474,640.9525074849697,848.2864471348828,113.59030718287669,601.6525382815462,863.1819732279008,-50.76201953837445,447.01324123133253,939.4651064764128,27.481854594937523,418.7547698142202,953.4753223225075,-131.41170425687682,600.1174705140518,706.9408093710681,-84.35742951967389,602.6614652896363,412.93484028027603,-114.83441184632606,532.7844286123203,195.68000819745185,-89.46062379080819,477.7452766047157,70.86621367558503,-49.28122108830486,400.3815725999597,46.57814153641639,-5.449428091384469,668.9317563868943,53.63393698022273,208.886338528368,443.6710068330947,740.4772680879956,225.55474656689717,406.94537794120527,448.7871501515568,220.55618111930653,306.8241900316971,273.64470922329787,193.06976911529264,270.2385530488448,116.338990949361,130.4380898731779,210.76819131656302,102.03805582767215,213.26432356085323,454.57444348265426,48.14705079138649,0,1,0,1777535001.0803378,40.715932846069336,-2.1485,8.6803,-3.6032,0.6104,0.3662,-0.3662,112.5275,13.4253,-5.0867,0.8222,0.1015,0.0726,0.5553,0,1,0,1777535001.0813382,39.71552848815918,-0.3158,9.5799,-1.9236,-0.6104,1.3428,-0.4272,101.618,1.7578,-31.9482,0.7424,0.2226,-0.1625,0.6107,0,1,0,1777535001.0813382,39.71552848815918,-1.2202,9.1971,-2.7467,-0.3662,0.1221,0.3052,106.5729,7.196,-26.2628,0.7706,0.2183,-0.0866,0.5925,0,1,0,1777535001.0813382,39.71552848815918,-1.0336,0.6029,9.9723,-0.8545,-0.1831,0.2441,4.0649,6.5698,-121.3824,-0.0326,0.0589,-0.869,0.4902,0,1,0,1777535001.0813382,39.71552848815918,-1.7322,9.3598,-2.2347,1.2207,-0.1831,-0.7324,104.5349,10.8051,-59.079,0.6566,0.4383,-0.2356,0.5668,0,1,0,1777535001.0803378,40.715932846069336,-1.0814,8.642,-4.0817,-0.5493,-0.9766,0.7324,115.741,6.3831,176.8854,0.0526,-0.8444,0.5321,-0.0327,0,1,0,1777535001.0803378,40.715932846069336,0.9618,3.7851,9.1875,-0.1221,0.061,0.3662,23.1372,-5.5371,158.8568,-0.0098,-0.2056,0.9602,0.189,0,0,0,1,,,0,0,0,0,0,0,0,0,0,0,0,0,0,0,0,0,0,0,0,0,0,1,,,0,0,0,0,0,0,0,0,0,0,0,0,0,0,0,0,0,0
1777535004.888023,365727,1777535001.1320543,1777535001.0813382,,0,0,51.71656608581543,,0,0,0,0,0,0,1,0,0,0.0,0.0,0.0,0.0,0.0,0.0,0.0,0.0,0.0,0.0,0.0,0.0,0.0,0.0,0.0,0.0,0.0,0.0,0.0,0.0,0.0,0.0,0.0,0.0,0.0,0.0,0.0,37.68295492523825,640.9065105285702,848.2815010332183,113.6145924965582,601.586875872025,863.1869319927836,-50.70045889185031,446.88666819750097,939.4493527200146,27.510544360095302,418.63964991766215,953.4709037561231,-131.4083806791176,600.0867300866878,706.9417870334318,-84.37777481457141,602.5986943975747,412.90377025903376,-114.86274626825494,532.7742399625536,195.66929977904533,-89.4818116713071,477.751415699389,70.84249519283114,-49.285749925889164,400.40015146397513,46.553272755077984,-5.448804878780364,668.9489332678193,53.67052804993342,208.88728364710585,443.61678296317496,740.4728142664429,225.60217503902004,406.9321971433789,448.79150569647805,220.5705326208375,306.79217536222086,273.61742536649,193.0831838584928,270.25506673928,116.31084513769063,130.46966120878358,210.75444459051175,102.06473466884232,213.2692151431315,454.57161239454337,48.14944592848129,0,1,0,1777535001.0803378,51.71656608581543,-2.1485,8.6803,-3.6032,0.6104,0.3662,-0.3662,112.5275,13.4253,-5.0867,0.8222,0.1015,0.0726,0.5553,0,1,0,1777535001.0813382,50.71616172790527,-0.3158,9.5799,-1.9236,-0.6104,1.3428,-0.4272,101.618,1.7578,-31.9482,0.7424,0.2226,-0.1625,0.6107,0,1,0,1777535001.0813382,50.71616172790527,-1.2202,9.1971,-2.7467,-0.3662,0.1221,0.3052,106.5729,7.196,-26.2628,0.7706,0.2183,-0.0866,0.5925,0,1,0,1777535001.0813382,50.71616172790527,-1.0336,0.6029,9.9723,-0.8545,-0.1831,0.2441,4.0649,6.5698,-121.3824,-0.0326,0.0589,-0.869,0.4902,0,1,0,1777535001.0813382,50.71616172790527,-1.7322,9.3598,-2.2347,1.2207,-0.1831,-0.7324,104.5349,10.8051,-59.079,0.6566,0.4383,-0.2356,0.5668,0,1,0,1777535001.0803378,51.71656608581543,-1.0814,8.642,-4.0817,-0.5493,-0.9766,0.7324,115.741,6.3831,176.8854,0.0526,-0.8444,0.5321,-0.0327,0,1,0,1777535001.0803378,51.71656608581543,0.9618,3.7851,9.1875,-0.1221,0.061,0.3662,23.1372,-5.5371,158.8568,-0.0098,-0.2056,0.9602,0.189,0,0,0,1,,,0,0,0,0,0,0,0,0,0,0,0,0,0,0,0,0,0,0,0,0,0,1,,,0,0,0,0,0,0,0,0,0,0,0,0,0,0,0,0,0,0
1777535004.888023,365728,1777535001.1410525,1777535001.0813382,,0,0,60.7147216796875,,0,0,0,0,0,0,1,0,0,0.0,0.0,0.0,0.0,0.0,0.0,0.0,0.0,0.0,0.0,0.0,0.0,0.0,0.0,0.0,0.0,0.0,0.0,0.0,0.0,0.0,0.0,0.0,0.0,0.0,0.0,0.0,37.70718070157923,640.8217158996591,848.2825514702594,113.62237962195374,601.5298936169197,863.1947111545385,-50.71757206756692,446.8472113004949,939.4526515153939,27.520040038672096,418.59361475129225,953.4815531461726,-131.39604221615144,600.0594204668998,706.9446896733024,-84.38970068722689,602.5976182263167,412.9191647809928,-114.85330160193342,532.7923414861269,195.67995222421698,-89.48021561941572,477.77950351825217,70.86106643706158,-49.30708541458955,400.4073954967586,46.55401414352129,-5.432106010435689,668.9364478751587,53.655004652997896,208.8901832832904,443.56577818232114,740.4576470452092,225.6109804424562,406.88579316909806,448.7977975947632,220.6106810733613,306.7885372124753,273.63481529682565,193.13283325671057,270.24108401428884,116.33114423461079,130.48152048789703,210.7107993273783,102.06041231982164,213.2805621654015,454.5653110254017,48.1458388015449,0,1,0,1777535001.0803378,60.7147216796875,-2.1485,8.6803,-3.6032,0.6104,0.3662,-0.3662,112.5275,13.4253,-5.0867,0.8222,0.1015,0.0726,0.5553,0,1,0,1777535001.0813382,59.714317321777344,-0.3158,9.5799,-1.9236,-0.6104,1.3428,-0.4272,101.618,1.7578,-31.9482,0.7424,0.2226,-0.1625,0.6107,0,1,0,1777535001.0813382,59.714317321777344,-1.2202,9.1971,-2.7467,-0.3662,0.1221,0.3052,106.5729,7.196,-26.2628,0.7706,0.2183,-0.0866,0.5925,0,1,0,1777535001.0813382,59.714317321777344,-1.0336,0.6029,9.9723,-0.8545,-0.1831,0.2441,4.0649,6.5698,-121.3824,-0.0326,0.0589,-0.869,0.4902,0,1,0,1777535001.0813382,59.714317321777344,-1.7322,9.3598,-2.2347,1.2207,-0.1831,-0.7324,104.5349,10.8051,-59.079,0.6566,0.4383,-0.2356,0.5668,0,1,0,1777535001.0803378,60.7147216796875,-1.0814,8.642,-4.0817,-0.5493,-0.9766,0.7324,115.741,6.3831,176.8854,0.0526,-0.8444,0.5321,-0.0327,0,1,0,1777535001.0803378,60.7147216796875,0.9618,3.7851,9.1875,-0.1221,0.061,0.3662,23.1372,-5.5371,158.8568,-0.0098,-0.2056,0.9602,0.189,0,0,0,1,,,0,0,0,0,0,0,0,0,0,0,0,0,0,0,0,0,0,0,0,0,0,1,,,0,0,0,0,0,0,0,0,0,0,0,0,0,0,0,0,0,0
1777535004.8890228,365729,1777535001.156,1777535001.155568,,0,0,1.4388561248779297,,1,0,7,0,1,0,1,0,0,0.0,0.0,0.0,0.0,0.0,0.0,0.0,0.0,0.0,0.0,0.0,0.0,0.0,0.0,0.0,0.0,0.0,0.0,0.0,0.0,0.0,0.0,0.0,0.0,0.0,0.0,0.0,37.71620400894786,640.7809017702533,848.2829697410078,113.64398484705704,601.4720480331571,863.2043917596411,-50.74326253997947,446.78249224963577,939.4830354969299,27.57920808638036,418.53344296963706,953.4886630051532,-131.39335485194758,599.9642624708493,706.9654090890416,-84.35227955154835,602.637904828376,412.9456836035685,-114.85885844720963,532.8076184674146,195.66203303191946,-89.4745446821952,477.7805971021272,70.86029971469625,-49.290910944724004,400.38084762492366,46.53856129689633,-5.434916855763218,668.9260098182966,53.628244989085076,208.89432518883862,443.5041617846767,740.4694883650385,225.64359361460197,406.84154605768754,448.81167838060486,220.66470837844994,306.7425685577989,273.64748924809055,193.2068595642052,270.22195296447535,116.37304511440045,130.51223260460907,210.7109473681241,102.05249482433639,213.28539784594014,454.5549955434051,48.149535354902504,1,0,0,1777535001.154561,1.4388561248779297,-2.3064,8.6994,-3.5362,0.9155,0.5493,-0.4883,112.5,13.3813,-4.9988,0.8222,0.1007,0.0727,0.5555,1,0,0,1777535001.154561,1.4388561248779297,-0.402,9.4842,-1.9715,0.7324,0.0,0.061,101.618,1.7413,-31.8439,0.7426,0.2218,-0.162,0.6108,1,0,0,1777535001.155568,0.43201446533203125,-1.2537,9.1971,-2.7515,-1.2207,0.061,0.5493,106.5729,7.1906,-25.9003,0.7713,0.2158,-0.0847,0.5927,1,0,0,1777535001.155568,0.43201446533203125,-1.0527,0.5934,9.9579,-1.1597,-0.3052,0.2441,4.0485,6.5588,-121.3934,-0.0326,0.0587,-0.8691,0.4901,1,0,0,1777535001.155568,0.43201446533203125,-1.9141,9.2497,-2.3447,0.1221,2.1362,-1.1597,104.502,10.7886,-59.0625,0.6566,0.4381,-0.2357,0.5669,1,0,0,1777535001.154561,1.4388561248779297,-1.1532,8.642,-4.1344,0.6714,1.2207,-0.1831,115.7684,6.3721,176.9897,0.0518,-0.8446,0.5319,-0.0331,1,0,0,1777535001.155568,0.43201446533203125,0.9618,3.7946,9.1492,0.7324,0.0,0.7324,23.1207,-5.5316,158.8568,-0.0097,-0.2054,0.9602,0.189,0,0,0,1,,,0,0,0,0,0,0,0,0,0,0,0,0,0,0,0,0,0,0,0,0,0,1,,,0,0,0,0,0,0,0,0,0,0,0,0,0,0,0,0,0,0
1777535004.8890228,365730,1777535001.1610115,1777535001.155568,,0,0,6.450414657592773,,1,0,7,0,1,0,1,0,0,0.0,0.0,0.0,0.0,0.0,0.0,0.0,0.0,0.0,0.0,0.0,0.0,0.0,0.0,0.0,0.0,0.0,0.0,0.0,0.0,0.0,0.0,0.0,0.0,0.0,0.0,0.0,37.71473123241872,640.7067175123902,848.288194841119,113.64988543667374,601.3929771672731,863.2137462994838,-50.7915457175427,446.715439350372,939.5005764408445,27.597035593090805,418.4637128644359,953.5052521451801,-131.3976979228183,599.870395039578,706.9788859316612,-84.28929355213941,602.6994743292722,412.97065214948384,-114.81505161004335,532.807792470158,195.6630079526814,-89.4600603864667,477.7712821990901,70.88743522297045,-49.31612011515554,400.38425730103586,46.55518116445818,-5.446592287245876,668.9047283661266,53.61209995029775,208.90794650719593,443.45656390971567,740.4874878335721,225.64342193799558,406.79038206456124,448.81926170969535,220.6782984285749,306.71114834239256,273.63805052866684,193.25223976709023,270.2112971060957,116.33720229669667,130.56760011048829,210.723541715107,102.01085232985702,213.28629805086914,454.54983847281414,48.16141570951157,1,0,0,1777535001.154561,6.450414657592773,-2.3064,8.6994,-3.5362,0.9155,0.5493,-0.4883,112.5,13.3813,-4.9988,0.8222,0.1007,0.0727,0.5555,1,0,0,1777535001.154561,6.450414657592773,-0.402,9.4842,-1.9715,0.7324,0.0,0.061,101.618,1.7413,-31.8439,0.7426,0.2218,-0.162,0.6108,1,0,0,1777535001.155568,5.443572998046875,-1.2537,9.1971,-2.7515,-1.2207,0.061,0.5493,106.5729,7.1906,-25.9003,0.7713,0.2158,-0.0847,0.5927,1,0,0,1777535001.155568,5.443572998046875,-1.0527,0.5934,9.9579,-1.1597,-0.3052,0.2441,4.0485,6.5588,-121.3934,-0.0326,0.0587,-0.8691,0.4901,1,0,0,1777535001.155568,5.443572998046875,-1.9141,9.2497,-2.3447,0.1221,2.1362,-1.1597,104.502,10.7886,-59.0625,0.6566,0.4381,-0.2357,0.5669,1,0,0,1777535001.154561,6.450414657592773,-1.1532,8.642,-4.1344,0.6714,1.2207,-0.1831,115.7684,6.3721,176.9897,0.0518,-0.8446,0.5319,-0.0331,1,0,0,1777535001.155568,5.443572998046875,0.9618,3.7946,9.1492,0.7324,0.0,0.7324,23.1207,-5.5316,158.8568,-0.0097,-0.2054,0.9602,0.189,0,0,0,1,,,0,0,0,0,0,0,0,0,0,0,0,0,0,0,0,0,0,0,0,0,0,1,,,0,0,0,0,0,0,0,0,0,0,0,0,0,0,0,0,0,0
1777535004.890023,365731,1777535001.171954,1777535001.155568,,0,0,17.392873764038086,,1,0,7,0,1,0,1,0,0,0.0,0.0,0.0,0.0,0.0,0.0,0.0,0.0,0.0,0.0,0.0,0.0,0.0,0.0,0.0,0.0,0.0,0.0,0.0,0.0,0.0,0.0,0.0,0.0,0.0,0.0,0.0,37.72170515585008,640.6651772540297,848.3093294508409,113.6483405092951,601.3164042917338,863.2199576948728,-50.741930713697336,446.62708277180946,939.5292398931496,27.588506699783498,418.3782012361186,953.4669971668063,-131.38849281754003,599.8286937888205,706.9681866556297,-84.22806857432742,602.7141121530377,412.9619025737876,-114.80413169031777,532.8290441609845,195.66896514773865,-89.48364600043197,477.77099048563264,70.87458267431658,-49.310409148593955,400.3841637810423,46.57231961908286,-5.454004938405748,668.9397913787797,53.621669631694324,208.92110705146013,443.3916190957269,740.484614156262,225.66508826006637,406.7389960793458,448.83604586308337,220.72408240465464,306.65466597580627,273.65528776543084,193.2794826034796,270.21032459673677,116.33250714218644,130.64081744855713,210.70810707263334,102.02749294681693,213.2841178516075,454.55398277890276,48.1587909736107,1,0,0,1777535001.154561,17.392873764038086,-2.3064,8.6994,-3.5362,0.9155,0.5493,-0.4883,112.5,13.3813,-4.9988,0.8222,0.1007,0.0727,0.5555,1,0,0,1777535001.154561,17.392873764038086,-0.402,9.4842,-1.9715,0.7324,0.0,0.061,101.618,1.7413,-31.8439,0.7426,0.2218,-0.162,0.6108,1,0,0,1777535001.155568,16.386032104492188,-1.2537,9.1971,-2.7515,-1.2207,0.061,0.5493,106.5729,7.1906,-25.9003,0.7713,0.2158,-0.0847,0.5927,1,0,0,1777535001.155568,16.386032104492188,-1.0527,0.5934,9.9579,-1.1597,-0.3052,0.2441,4.0485,6.5588,-121.3934,-0.0326,0.0587,-0.8691,0.4901,1,0,0,1777535001.155568,16.386032104492188,-1.9141,9.2497,-2.3447,0.1221,2.1362,-1.1597,104.502,10.7886,-59.0625,0.6566,0.4381,-0.2357,0.5669,1,0,0,1777535001.154561,17.392873764038086,-1.1532,8.642,-4.1344,0.6714,1.2207,-0.1831,115.7684,6.3721,176.9897,0.0518,-0.8446,0.5319,-0.0331,1,0,0,1777535001.155568,16.386032104492188,0.9618,3.7946,9.1492,0.7324,0.0,0.7324,23.1207,-5.5316,158.8568,-0.0097,-0.2054,0.9602,0.189,0,0,0,1,,,0,0,0,0,0,0,0,0,0,0,0,0,0,0,0,0,0,0,0,0,0,1,,,0,0,0,0,0,0,0,0,0,0,0,0,0,0,0,0,0,0
1777535004.890023,365732,1777535001.1815405,1777535001.155568,,0,0,26.979446411132812,,0,0,0,0,0,0,1,0,0,0.0,0.0,0.0,0.0,0.0,0.0,0.0,0.0,0.0,0.0,0.0,0.0,0.0,0.0,0.0,0.0,0.0,0.0,0.0,0.0,0.0,0.0,0.0,0.0,0.0,0.0,0.0,37.7255502345076,640.5811753800542,848.2981139535405,113.64671936467352,601.2522847900258,863.2195543070271,-50.801220358390445,446.56105224215025,939.5258141933069,27.638340336554492,418.27257628016895,953.4967396258199,-131.36756840617628,599.7747035124521,706.955161688566,-84.1932439398529,602.7276019807638,412.99202171777944,-114.78614954159937,532.8769173858785,195.66612318436398,-89.47236994758626,477.77113172062417,70.85358658110106,-49.314444459506,400.41960863914693,46.55774447350618,-5.44329193876481,668.9478711326564,53.604642358338616,208.94284742982234,443.34954989357766,740.5041179776978,225.68492582256147,406.6853285024478,448.8390320990807,220.7502801693233,306.6339060233155,273.64837083866985,193.3368515196838,270.22194335778977,116.32371996874588,130.67175902674143,210.70493051679333,101.99444511378351,213.29189748834426,454.54311351381193,48.179413782769146,0,1,0,1777535001.154561,26.979446411132812,-2.3064,8.6994,-3.5362,0.9155,0.5493,-0.4883,112.5,13.3813,-4.9988,0.8222,0.1007,0.0727,0.5555,0,1,0,1777535001.154561,26.979446411132812,-0.402,9.4842,-1.9715,0.7324,0.0,0.061,101.618,1.7413,-31.8439,0.7426,0.2218,-0.162,0.6108,0,1,0,1777535001.155568,25.972604751586914,-1.2537,9.1971,-2.7515,-1.2207,0.061,0.5493,106.5729,7.1906,-25.9003,0.7713,0.2158,-0.0847,0.5927,0,1,0,1777535001.155568,25.972604751586914,-1.0527,0.5934,9.9579,-1.1597,-0.3052,0.2441,4.0485,6.5588,-121.3934,-0.0326,0.0587,-0.8691,0.4901,0,1,0,1777535001.155568,25.972604751586914,-1.9141,9.2497,-2.3447,0.1221,2.1362,-1.1597,104.502,10.7886,-59.0625,0.6566,0.4381,-0.2357,0.5669,0,1,0,1777535001.154561,26.979446411132812,-1.1532,8.642,-4.1344,0.6714,1.2207,-0.1831,115.7684,6.3721,176.9897,0.0518,-0.8446,0.5319,-0.0331,0,1,0,1777535001.155568,25.972604751586914,0.9618,3.7946,9.1492,0.7324,0.0,0.7324,23.1207,-5.5316,158.8568,-0.0097,-0.2054,0.9602,0.189,0,0,0,1,,,0,0,0,0,0,0,0,0,0,0,0,0,0,0,0,0,0,0,0,0,0,1,,,0,0,0,0,0,0,0,0,0,0,0,0,0,0,0,0,0,0
1777535004.890023,365733,1777535001.191076,1777535001.155568,,0,0,36.514997482299805,,0,0,0,0,0,0,1,0,0,0.0,0.0,0.0,0.0,0.0,0.0,0.0,0.0,0.0,0.0,0.0,0.0,0.0,0.0,0.0,0.0,0.0,0.0,0.0,0.0,0.0,0.0,0.0,0.0,0.0,0.0,0.0,37.74114962587995,640.5276730179718,848.3220035638195,113.63718530132327,601.1874593182966,863.2238234288228,-50.79280971463515,446.491168210409,939.5559136034835,27.652847567555384,418.1799138285859,953.4506410455862,-131.3458095678574,599.7174070244594,706.9307110152903,-84.15043171729319,602.7211644496956,412.98237250683115,-114.7620547841681,532.9261039701314,195.67570904176014,-89.46093185988606,477.7668010993062,70.8574310968554,-49.336029627253524,400.397002932463,46.560305455074065,-5.413065520923568,668.9339794528819,53.58725532030688,208.9510640469893,443.2843737645638,740.5002977799338,225.7054104806275,406.6495908020284,448.83305713473084,220.80635703122178,306.60304797761347,273.65067027707886,193.39198060166245,270.20109040770024,116.31299974200363,130.7121465523787,210.66402733556697,101.97488406457454,213.28309822459008,454.53955620646053,48.180934411978136,0,1,0,1777535001.154561,36.514997482299805,-2.3064,8.6994,-3.5362,0.9155,0.5493,-0.4883,112.5,13.3813,-4.9988,0.8222,0.1007,0.0727,0.5555,0,1,0,1777535001.154561,36.514997482299805,-0.402,9.4842,-1.9715,0.7324,0.0,0.061,101.618,1.7413,-31.8439,0.7426,0.2218,-0.162,0.6108,0,1,0,1777535001.155568,35.508155822753906,-1.2537,9.1971,-2.7515,-1.2207,0.061,0.5493,106.5729,7.1906,-25.9003,0.7713,0.2158,-0.0847,0.5927,0,1,0,1777535001.155568,35.508155822753906,-1.0527,0.5934,9.9579,-1.1597,-0.3052,0.2441,4.0485,6.5588,-121.3934,-0.0326,0.0587,-0.8691,0.4901,0,1,0,1777535001.155568,35.508155822753906,-1.9141,9.2497,-2.3447,0.1221,2.1362,-1.1597,104.502,10.7886,-59.0625,0.6566,0.4381,-0.2357,0.5669,0,1,0,1777535001.154561,36.514997482299805,-1.1532,8.642,-4.1344,0.6714,1.2207,-0.1831,115.7684,6.3721,176.9897,0.0518,-0.8446,0.5319,-0.0331,0,1,0,1777535001.155568,35.508155822753906,0.9618,3.7946,9.1492,0.7324,0.0,0.7324,23.1207,-5.5316,158.8568,-0.0097,-0.2054,0.9602,0.189,0,0,0,1,,,0,0,0,0,0,0,0,0,0,0,0,0,0,0,0,0,0,0,0,0,0,1,,,0,0,0,0,0,0,0,0,0,0,0,0,0,0,0,0,0,0
1777535004.9338107,365734,1777535001.2010767,1777535001.155568,,0,0,46.515703201293945,,0,0,0,0,0,0,1,0,0,0.0,0.0,0.0,0.0,0.0,0.0,0.0,0.0,0.0,0.0,0.0,0.0,0.0,0.0,0.0,0.0,0.0,0.0,0.0,0.0,0.0,0.0,0.0,0.0,0.0,0.0,0.0,37.747177701178686,640.4803643213577,848.3203029740821,113.64900145037168,601.1200741839815,863.2354122076083,-50.78377941970913,446.40393856521774,939.5394902844683,27.697433110632723,418.12109376464895,953.4616268317384,-131.31579401005752,599.6984451648157,706.9269731038197,-84.05943115812543,602.7305855781958,413.0137339138727,-114.75597470990337,532.9903867225049,195.68063185719987,-89.46716070452808,477.77032190468094,70.88604561622984,-49.32682767854721,400.40780519710654,46.56178936982592,-5.40887046495666,668.9292653870549,53.54808381183303,208.95446979896926,443.22859739482334,740.4988499687228,225.71459457698188,406.6436609651322,448.7993000856599,220.82804601670048,306.5648783862423,273.63475643489693,193.4461604867392,270.1793917655849,116.30539133124668,130.74780523866116,210.66142881922354,101.98461992312296,213.2849644178299,454.5363009211044,48.192582367653195,0,1,0,1777535001.154561,46.515703201293945,-2.3064,8.6994,-3.5362,0.9155,0.5493,-0.4883,112.5,13.3813,-4.9988,0.8222,0.1007,0.0727,0.5555,0,1,0,1777535001.154561,46.515703201293945,-0.402,9.4842,-1.9715,0.7324,0.0,0.061,101.618,1.7413,-31.8439,0.7426,0.2218,-0.162,0.6108,0,1,0,1777535001.155568,45.50886154174805,-1.2537,9.1971,-2.7515,-1.2207,0.061,0.5493,106.5729,7.1906,-25.9003,0.7713,0.2158,-0.0847,0.5927,0,1,0,1777535001.155568,45.50886154174805,-1.0527,0.5934,9.9579,-1.1597,-0.3052,0.2441,4.0485,6.5588,-121.3934,-0.0326,0.0587,-0.8691,0.4901,0,1,0,1777535001.155568,45.50886154174805,-1.9141,9.2497,-2.3447,0.1221,2.1362,-1.1597,104.502,10.7886,-59.0625,0.6566,0.4381,-0.2357,0.5669,0,1,0,1777535001.154561,46.515703201293945,-1.1532,8.642,-4.1344,0.6714,1.2207,-0.1831,115.7684,6.3721,176.9897,0.0518,-0.8446,0.5319,-0.0331,0,1,0,1777535001.155568,45.50886154174805,0.9618,3.7946,9.1492,0.7324,0.0,0.7324,23.1207,-5.5316,158.8568,-0.0097,-0.2054,0.9602,0.189,0,0,0,1,,,0,0,0,0,0,0,0,0,0,0,0,0,0,0,0,0,0,0,0,0,0,1,,,0,0,0,0,0,0,0,0,0,0,0,0,0,0,0,0,0,0
1777535004.9338107,365735,1777535001.2115862,1777535001.155568,,0,0,57.02519416809082,,0,0,0,0,0,0,1,0,0,0.0,0.0,0.0,0.0,0.0,0.0,0.0,0.0,0.0,0.0,0.0,0.0,0.0,0.0,0.0,0.0,0.0,0.0,0.0,0.0,0.0,0.0,0.0,0.0,0.0,0.0,0.0,37.7815803767761,640.377011950441,848.3022575492577,113.67762409428524,601.0487334303833,863.2532824060786,-50.71831606537093,446.27606580913874,939.5148749805843,27.694197117930603,418.07811341770866,953.4408365843638,-131.28027649750123,599.6677789733541,706.9290045478007,-84.00775245025388,602.8230967453596,413.0189559613874,-114.68865182657028,533.0654874015432,195.68372940671355,-89.47015489170724,477.7914644534822,70.89056682271728,-49.3526017136753,400.3945436216115,46.60307168380738,-5.385199674430548,668.9416760931589,53.528142498897544,208.950915279981,443.18407066367337,740.5005914037731,225.7405893069402,406.6349167212958,448.7871678211802,220.81134963813565,306.50996781353734,273.6082963853946,193.48119725399593,270.1040415345879,116.29325143287967,130.72361585134888,210.6610246969148,102.02492421696763,213.2810492599703,454.56603983426135,48.17896654875909,0,1,0,1777535001.154561,57.02519416809082,-2.3064,8.6994,-3.5362,0.9155,0.5493,-0.4883,112.5,13.3813,-4.9988,0.8222,0.1007,0.0727,0.5555,0,1,0,1777535001.154561,57.02519416809082,-0.402,9.4842,-1.9715,0.7324,0.0,0.061,101.618,1.7413,-31.8439,0.7426,0.2218,-0.162,0.6108,0,1,0,1777535001.155568,56.01835250854492,-1.2537,9.1971,-2.7515,-1.2207,0.061,0.5493,106.5729,7.1906,-25.9003,0.7713,0.2158,-0.0847,0.5927,0,1,0,1777535001.155568,56.01835250854492,-1.0527,0.5934,9.9579,-1.1597,-0.3052,0.2441,4.0485,6.5588,-121.3934,-0.0326,0.0587,-0.8691,0.4901,0,1,0,1777535001.155568,56.01835250854492,-1.9141,9.2497,-2.3447,0.1221,2.1362,-1.1597,104.502,10.7886,-59.0625,0.6566,0.4381,-0.2357,0.5669,0,1,0,1777535001.154561,57.02519416809082,-1.1532,8.642,-4.1344,0.6714,1.2207,-0.1831,115.7684,6.3721,176.9897,0.0518,-0.8446,0.5319,-0.0331,0,1,0,1777535001.155568,56.01835250854492,0.9618,3.7946,9.1492,0.7324,0.0,0.7324,23.1207,-5.5316,158.8568,-0.0097,-0.2054,0.9602,0.189,0,0,0,1,,,0,0,0,0,0,0,0,0,0,0,0,0,0,0,0,0,0,0,0,0,0,1,,,0,0,0,0,0,0,0,0,0,0,0,0,0,0,0,0,0,0
1777535004.9348183,365736,1777535001.2215862,1777535001.155568,,0,0,67.02518463134766,,0,0,0,0,0,0,1,0,0,0.0,0.0,0.0,0.0,0.0,0.0,0.0,0.0,0.0,0.0,0.0,0.0,0.0,0.0,0.0,0.0,0.0,0.0,0.0,0.0,0.0,0.0,0.0,0.0,0.0,0.0,0.0,37.823407048106084,640.2994370914106,848.3209936946002,113.71534791472926,600.9771918090627,863.2533354539113,-50.66501456239941,446.1928596492391,939.5029916269822,27.737324851043986,418.01133483650335,953.4475982479237,-131.2492259740028,599.5894553170705,706.9612950957596,-83.95640062911124,602.9224977925037,413.0461206538217,-114.72129402582657,533.1232598546145,195.69821412107945,-89.48160849806047,477.8362326555843,70.89907906828854,-49.34365867604299,400.4103479727126,46.61739351453835,-5.338948122665774,668.9699284133627,53.53531835532996,208.96493412134413,443.15030904016925,740.482672773981,225.75193252317808,406.6201615249022,448.7451596868077,220.81868471590732,306.4932769813098,273.5633567758403,193.49994966348837,270.02148225706213,116.28652140664424,130.720607186213,210.7708463935853,102.27417660403097,213.30055907516015,454.59602208863134,48.17758392516339,0,1,0,1777535001.154561,67.02518463134766,-2.3064,8.6994,-3.5362,0.9155,0.5493,-0.4883,112.5,13.3813,-4.9988,0.8222,0.1007,0.0727,0.5555,0,1,0,1777535001.154561,67.02518463134766,-0.402,9.4842,-1.9715,0.7324,0.0,0.061,101.618,1.7413,-31.8439,0.7426,0.2218,-0.162,0.6108,0,1,0,1777535001.155568,66.01834297180176,-1.2537,9.1971,-2.7515,-1.2207,0.061,0.5493,106.5729,7.1906,-25.9003,0.7713,0.2158,-0.0847,0.5927,0,1,0,1777535001.155568,66.01834297180176,-1.0527,0.5934,9.9579,-1.1597,-0.3052,0.2441,4.0485,6.5588,-121.3934,-0.0326,0.0587,-0.8691,0.4901,0,1,0,1777535001.155568,66.01834297180176,-1.9141,9.2497,-2.3447,0.1221,2.1362,-1.1597,104.502,10.7886,-59.0625,0.6566,0.4381,-0.2357,0.5669,0,1,0,1777535001.154561,67.02518463134766,-1.1532,8.642,-4.1344,0.6714,1.2207,-0.1831,115.7684,6.3721,176.9897,0.0518,-0.8446,0.5319,-0.0331,0,1,0,1777535001.155568,66.01834297180176,0.9618,3.7946,9.1492,0.7324,0.0,0.7324,23.1207,-5.5316,158.8568,-0.0097,-0.2054,0.9602,0.189,0,0,0,1,,,0,0,0,0,0,0,0,0,0,0,0,0,0,0,0,0,0,0,0,0,0,1,,,0,0,0,0,0,0,0,0,0,0,0,0,0,0,0,0,0,0
1777535004.9348183,365737,1777535001.2315874,1777535001.155568,,0,0,77.0263671875,,0,0,0,0,0,0,1,0,0,0.0,0.0,0.0,0.0,0.0,0.0,0.0,0.0,0.0,0.0,0.0,0.0,0.0,0.0,0.0,0.0,0.0,0.0,0.0,0.0,0.0,0.0,0.0,0.0,0.0,0.0,0.0,37.8766033302825,640.217261476315,848.3434309586868,113.76009589419456,600.8920182498133,863.2740609310503,-50.63460436358242,446.1309263883218,939.4914581721735,27.770421571243126,417.9594473042608,953.452500283006,-131.22140684454325,599.5143554133887,707.032707063908,-83.95614000127914,602.9928399674288,413.04738356836725,-114.71167538721198,533.1676318482828,195.7494629054557,-89.46622325376198,477.8517307188441,70.88273396252553,-49.3712220774858,400.41287357153436,46.673362943978255,-5.3484168246404025,668.953211522108,53.49380187368056,208.97512402158074,443.10745224211837,740.4694208002595,225.78052503148456,406.6618530993661,448.6912784736988,220.82351673802097,306.5127305450615,273.55121976086394,193.5213719716478,269.9668737403154,116.29817501533469,130.75925977547175,210.91952673512472,102.56528761806182,213.3878528066653,454.6976953280166,48.262813699173165,0,1,0,1777535001.154561,77.0263671875,-2.3064,8.6994,-3.5362,0.9155,0.5493,-0.4883,112.5,13.3813,-4.9988,0.8222,0.1007,0.0727,0.5555,0,1,0,1777535001.154561,77.0263671875,-0.402,9.4842,-1.9715,0.7324,0.0,0.061,101.618,1.7413,-31.8439,0.7426,0.2218,-0.162,0.6108,0,1,0,1777535001.155568,76.0195255279541,-1.2537,9.1971,-2.7515,-1.2207,0.061,0.5493,106.5729,7.1906,-25.9003,0.7713,0.2158,-0.0847,0.5927,0,1,0,1777535001.155568,76.0195255279541,-1.0527,0.5934,9.9579,-1.1597,-0.3052,0.2441,4.0485,6.5588,-121.3934,-0.0326,0.0587,-0.8691,0.4901,0,1,0,1777535001.155568,76.0195255279541,-1.9141,9.2497,-2.3447,0.1221,2.1362,-1.1597,104.502,10.7886,-59.0625,0.6566,0.4381,-0.2357,0.5669,0,1,0,1777535001.154561,77.0263671875,-1.1532,8.642,-4.1344,0.6714,1.2207,-0.1831,115.7684,6.3721,176.9897,0.0518,-0.8446,0.5319,-0.0331,0,1,0,1777535001.155568,76.0195255279541,0.9618,3.7946,9.1492,0.7324,0.0,0.7324,23.1207,-5.5316,158.8568,-0.0097,-0.2054,0.9602,0.189,0,0,0,1,,,0,0,0,0,0,0,0,0,0,0,0,0,0,0,0,0,0,0,0,0,0,1,,,0,0,0,0,0,0,0,0,0,0,0,0,0,0,0,0,0,0
1777535004.9358165,365738,1777535001.241586,,,0,0,,,0,0,0,0,0,0,1,0,0,0.0,0.0,0.0,0.0,0.0,0.0,0.0,0.0,0.0,0.0,0.0,0.0,0.0,0.0,0.0,0.0,0.0,0.0,0.0,0.0,0.0,0.0,0.0,0.0,0.0,0.0,0.0,37.92346367403073,640.1640098837664,848.3556980170684,113.81582814601582,600.8332884693924,863.2867976408813,-50.5844758631702,446.0646052439817,939.4711515366043,27.82643625368191,417.8822606140094,953.4504928311644,-131.2102919817829,599.4887687783562,707.0715906366204,-83.96013290822731,603.0302956229802,413.06312701833934,-114.74316417573624,533.177232325213,195.7524216775537,-89.49763057082346,477.8587776723717,70.87360483929639,-49.3734183440398,400.4139072933687,46.67624836208599,-5.3638237319974165,668.9755697159602,53.46853772085655,208.99415673715384,443.08191193972493,740.4292825345237,225.83256551879026,406.75568639317754,448.63133284033535,220.81411012161055,306.5014304185061,273.5105159923579,193.52028014647095,269.93569389368486,116.2744270212377,130.79196226462204,211.10461903889015,102.97292622031607,213.34074274970948,454.73285276605316,48.13690249554542,0,0,1,,,0.0,0.0,0.0,0.0,0.0,0.0,0.0,0.0,0.0,0.0,0.0,0.0,1.0,0,0,1,,,0.0,0.0,0.0,0.0,0.0,0.0,0.0,0.0,0.0,0.0,0.0,0.0,1.0,0,0,1,,,0.0,0.0,0.0,0.0,0.0,0.0,0.0,0.0,0.0,0.0,0.0,0.0,1.0,0,0,1,,,0.0,0.0,0.0,0.0,0.0,0.0,0.0,0.0,0.0,0.0,0.0,0.0,1.0,0,0,1,,,0.0,0.0,0.0,0.0,0.0,0.0,0.0,0.0,0.0,0.0,0.0,0.0,1.0,0,0,1,,,0.0,0.0,0.0,0.0,0.0,0.0,0.0,0.0,0.0,0.0,0.0,0.0,1.0,0,0,1,,,0.0,0.0,0.0,0.0,0.0,0.0,0.0,0.0,0.0,0.0,0.0,0.0,1.0,0,0,0,1,,,0,0,0,0,0,0,0,0,0,0,0,0,0,0,0,0,0,0,0,0,0,1,,,0,0,0,0,0,0,0,0,0,0,0,0,0,0,0,0,0,0
1777535004.9358165,365739,1777535001.2515872,,,0,0,,,0,0,0,0,0,0,1,0,0,0.0,0.0,0.0,0.0,0.0,0.0,0.0,0.0,0.0,0.0,0.0,0.0,0.0,0.0,0.0,0.0,0.0,0.0,0.0,0.0,0.0,0.0,0.0,0.0,0.0,0.0,0.0,37.97753171872655,640.0985694335259,848.373523774568,113.8867711484443,600.7809686131355,863.3036568157291,-50.53754491760478,446.0084073092635,939.4639316862131,27.87640780982897,417.82123871099185,953.421087872788,-131.21178107841723,599.4869130458698,707.0928852866514,-83.99422920172483,603.0546914604213,413.1023388029289,-114.76295493000649,533.186820627099,195.76097795396703,-89.5320795269998,477.90761005836987,70.88539722034528,-49.411748321389,400.45512682798756,46.670607652848005,-5.321040896195591,669.0152986746939,53.51526279656554,209.01916948432367,443.06581432332166,740.3878440609544,225.84589003190766,406.89815929005385,448.55444832925883,220.7915337515729,306.5312677199988,273.4919396300379,193.46600275805548,269.8742813938133,116.25363288336193,130.8489052198334,211.23797525599397,103.23640021746006,213.40452846229212,454.8572966200947,48.23719535371592,0,0,1,,,0.0,0.0,0.0,0.0,0.0,0.0,0.0,0.0,0.0,0.0,0.0,0.0,1.0,0,0,1,,,0.0,0.0,0.0,0.0,0.0,0.0,0.0,0.0,0.0,0.0,0.0,0.0,1.0,0,0,1,,,0.0,0.0,0.0,0.0,0.0,0.0,0.0,0.0,0.0,0.0,0.0,0.0,1.0,0,0,1,,,0.0,0.0,0.0,0.0,0.0,0.0,0.0,0.0,0.0,0.0,0.0,0.0,1.0,0,0,1,,,0.0,0.0,0.0,0.0,0.0,0.0,0.0,0.0,0.0,0.0,0.0,0.0,1.0,0,0,1,,,0.0,0.0,0.0,0.0,0.0,0.0,0.0,0.0,0.0,0.0,0.0,0.0,1.0,0,0,1,,,0.0,0.0,0.0,0.0,0.0,0.0,0.0,0.0,0.0,0.0,0.0,0.0,1.0,0,0,0,1,,,0,0,0,0,0,0,0,0,0,0,0,0,0,0,0,0,0,0,0,0,0,1,,,0,0,0,0,0,0,0,0,0,0,0,0,0,0,0,0,0,0
1777535004.9358165,365740,1777535001.2615948,,,0,0,,,0,0,0,0,0,0,1,0,0,0.0,0.0,0.0,0.0,0.0,0.0,0.0,0.0,0.0,0.0,0.0,0.0,0.0,0.0,0.0,0.0,0.0,0.0,0.0,0.0,0.0,0.0,0.0,0.0,0.0,0.0,0.0,38.02276783265494,640.0754939550432,848.3917248049798,113.94996495868808,600.7356289688829,863.3164921426002,-50.48002706441482,445.94517569911613,939.4695404016948,28.00655410374263,417.72435647087735,953.4475955447649,-131.16349451770063,599.444394422131,707.1149097215997,-84.01995974607578,603.0277204980252,413.1227579637696,-114.76997799080324,533.1886000748179,195.78753621981127,-89.5128253820135,477.8996300871317,70.88981872597014,-49.40785538587911,400.4249436300536,46.722216721074176,-5.348146546220478,668.9976218327196,53.48127163618894,209.053528470149,443.06763956248847,740.3186257272332,225.82440474873295,407.08018836384457,448.4610283174109,220.73466811615273,306.53944839897645,273.44733938569016,193.4049323713669,269.78446392700414,116.22792904547963,130.76193884537338,211.42521197509154,103.44522795162655,213.4436333391999,454.9883299882369,48.32797950925867,0,0,1,,,0.0,0.0,0.0,0.0,0.0,0.0,0.0,0.0,0.0,0.0,0.0,0.0,1.0,0,0,1,,,0.0,0.0,0.0,0.0,0.0,0.0,0.0,0.0,0.0,0.0,0.0,0.0,1.0,0,0,1,,,0.0,0.0,0.0,0.0,0.0,0.0,0.0,0.0,0.0,0.0,0.0,0.0,1.0,0,0,1,,,0.0,0.0,0.0,0.0,0.0,0.0,0.0,0.0,0.0,0.0,0.0,0.0,1.0,0,0,1,,,0.0,0.0,0.0,0.0,0.0,0.0,0.0,0.0,0.0,0.0,0.0,0.0,1.0,0,0,1,,,0.0,0.0,0.0,0.0,0.0,0.0,0.0,0.0,0.0,0.0,0.0,0.0,1.0,0,0,1,,,0.0,0.0,0.0,0.0,0.0,0.0,0.0,0.0,0.0,0.0,0.0,0.0,1.0,0,0,0,1,,,0,0,0,0,0,0,0,0,0,0,0,0,0,0,0,0,0,0,0,0,0,1,,,0,0,0,0,0,0,0,0,0,0,0,0,0,0,0,0,0,0
1777535004.9358165,365741,1777535001.2770326,1777535001.2766147,,0,0,1.4178752899169922,,1,0,7,0,1,0,1,0,0,0.0,0.0,0.0,0.0,0.0,0.0,0.0,0.0,0.0,0.0,0.0,0.0,0.0,0.0,0.0,0.0,0.0,0.0,0.0,0.0,0.0,0.0,0.0,0.0,0.0,0.0,0.0,38.094127614667826,640.0418967992404,848.4137906565076,113.99623995871303,600.7232498658461,863.3205866972908,-50.41829171725305,445.9067012735714,939.4429993925884,28.056240529340833,417.68540866970744,953.4001570136412,-131.1340968504738,599.3964911825585,707.1546519416511,-84.03416138391883,603.008899586226,413.17446797727627,-114.78603724940876,533.189625041617,195.7847892548475,-89.53246099580441,477.9339349474458,70.88882757917838,-49.44379010256769,400.4409223419924,46.68369022997019,-5.314277717073726,669.0129895238434,53.51427784655959,209.05813332974512,443.0866425538537,740.2424091937894,225.75811384942944,407.2206920950952,448.32246280624406,220.60943404622603,306.5402022896537,273.34839461127825,193.26555135591056,269.6492547019728,116.18582845137804,130.654088975283,211.68501648174458,103.8415935446191,213.51242169074396,455.14660812946664,48.41652689542646,1,0,0,1777535001.2766147,0.41794776916503906,-2.3734,8.7616,-3.5027,1.0376,-0.9766,-0.7935,112.3242,13.3539,-5.0208,0.8214,0.1008,0.0723,0.5568,1,0,0,1777535001.2766147,0.41794776916503906,-0.244,9.4028,-2.0528,0.4883,1.9531,-0.4883,101.5302,1.7578,-31.0364,0.7436,0.2166,-0.1578,0.6126,1,0,0,1777535001.2766147,0.41794776916503906,-1.2106,9.288,-2.6605,0.7935,-3.6621,1.8311,106.5674,7.196,-25.318,0.7724,0.2119,-0.0817,0.5932,1,0,0,1777535001.2756147,1.4178752899169922,-1.0623,0.5934,9.9579,-0.1831,-0.3662,0.3052,4.0375,6.5479,-121.4099,-0.0326,0.0586,-0.8692,0.49,1,0,0,1777535001.2766147,0.41794776916503906,-1.7418,9.1875,-2.2634,1.0986,0.9766,-0.5493,104.4965,10.7721,-59.1229,0.6564,0.4383,-0.2362,0.5668,1,0,0,1777535001.2766147,0.41794776916503906,-1.0958,8.4984,-3.7659,5.127,1.5869,0.1221,115.8289,6.3831,177.0667,0.0512,-0.8449,0.5314,-0.0336,1,0,0,1777535001.2756147,1.4178752899169922,0.9666,3.8281,9.1875,0.2441,-0.1221,1.2207,23.0988,-5.5316,158.8623,-0.0098,-0.2053,0.9602,0.189,0,0,0,1,,,0,0,0,0,0,0,0,0,0,0,0,0,0,0,0,0,0,0,0,0,0,1,,,0,0,0,0,0,0,0,0,0,0,0,0,0,0,0,0,0,0
1777535004.9368186,365742,1777535001.281043,1777535001.2766147,,0,0,5.428314208984375,,1,0,7,0,1,0,1,0,0,0.0,0.0,0.0,0.0,0.0,0.0,0.0,0.0,0.0,0.0,0.0,0.0,0.0,0.0,0.0,0.0,0.0,0.0,0.0,0.0,0.0,0.0,0.0,0.0,0.0,0.0,0.0,38.14314074795105,640.0296603542043,848.4416438641364,114.06592711989765,600.7130511879292,863.3375562127738,-50.33428814177035,445.8368006934636,939.4136062364705,28.159470821520397,417.6533920328972,953.3727741137816,-131.04778366229172,599.3550232543988,707.2258610013901,-84.00459924336198,602.9231094140657,413.1948962637169,-114.78709633361079,533.2129341458008,195.8072389161267,-89.54545789092298,477.9458265824786,70.89178022908895,-49.43940270063867,400.4104688899709,46.71031020837289,-5.355505286023164,669.0170701349168,53.448079312415935,209.07107662156116,443.13944504355203,740.1642581885886,225.67561121003524,407.382974512555,448.11667960661487,220.34182245353932,306.58294971556086,273.2171943948789,193.08928345825464,269.51635350756754,116.10737811699924,130.30997112318536,212.07875935757974,104.12119903249626,213.7318765150657,455.3420922924853,48.476177255291866,1,0,0,1777535001.2766147,4.428386688232422,-2.3734,8.7616,-3.5027,1.0376,-0.9766,-0.7935,112.3242,13.3539,-5.0208,0.8214,0.1008,0.0723,0.5568,1,0,0,1777535001.2766147,4.428386688232422,-0.244,9.4028,-2.0528,0.4883,1.9531,-0.4883,101.5302,1.7578,-31.0364,0.7436,0.2166,-0.1578,0.6126,1,0,0,1777535001.2766147,4.428386688232422,-1.2106,9.288,-2.6605,0.7935,-3.6621,1.8311,106.5674,7.196,-25.318,0.7724,0.2119,-0.0817,0.5932,1,0,0,1777535001.2756147,5.428314208984375,-1.0623,0.5934,9.9579,-0.1831,-0.3662,0.3052,4.0375,6.5479,-121.4099,-0.0326,0.0586,-0.8692,0.49,1,0,0,1777535001.2766147,4.428386688232422,-1.7418,9.1875,-2.2634,1.0986,0.9766,-0.5493,104.4965,10.7721,-59.1229,0.6564,0.4383,-0.2362,0.5668,1,0,0,1777535001.2766147,4.428386688232422,-1.0958,8.4984,-3.7659,5.127,1.5869,0.1221,115.8289,6.3831,177.0667,0.0512,-0.8449,0.5314,-0.0336,1,0,0,1777535001.2756147,5.428314208984375,0.9666,3.8281,9.1875,0.2441,-0.1221,1.2207,23.0988,-5.5316,158.8623,-0.0098,-0.2053,0.9602,0.189,0,0,0,1,,,0,0,0,0,0,0,0,0,0,0,0,0,0,0,0,0,0,0,0,0,0,1,,,0,0,0,0,0,0,0,0,0,0,0,0,0,0,0,0,0,0
1777535004.9368186,365743,1777535001.2910476,1777535001.2766147,,0,0,15.43283462524414,,1,0,7,0,1,0,1,0,0,0.0,0.0,0.0,0.0,0.0,0.0,0.0,0.0,0.0,0.0,0.0,0.0,0.0,0.0,0.0,0.0,0.0,0.0,0.0,0.0,0.0,0.0,0.0,0.0,0.0,0.0,0.0,38.209008020770675,640.0646515861241,848.4669705151645,114.14100128418794,600.7111269551722,863.3555391864893,-50.14733664578458,445.74405937046413,939.4005705095411,28.292382278609317,417.6127993371559,953.3050021816268,-130.9893325900837,599.3645164661092,707.2543224486199,-84.04214443930915,602.8368050553692,413.2385641316448,-114.80358101722099,533.199224601201,195.8145842679614,-89.56983181456289,477.95184516768734,70.91224506667227,-49.40562232916786,400.44266848268467,46.73321445008648,-5.337594020165625,669.0266531908893,53.43684205315914,209.12807278621258,443.2332986022632,740.0467690078514,225.5869484082838,407.59815753629636,447.88392556706276,220.09497839764174,306.5618742752557,273.10016713644535,192.84957735756487,269.3309637137026,115.9385075141863,129.901442539906,212.42161205001892,104.3453267660969,214.03199588666521,455.53081355673146,48.61239162645353,1,0,0,1777535001.2766147,14.432907104492188,-2.3734,8.7616,-3.5027,1.0376,-0.9766,-0.7935,112.3242,13.3539,-5.0208,0.8214,0.1008,0.0723,0.5568,1,0,0,1777535001.2766147,14.432907104492188,-0.244,9.4028,-2.0528,0.4883,1.9531,-0.4883,101.5302,1.7578,-31.0364,0.7436,0.2166,-0.1578,0.6126,1,0,0,1777535001.2766147,14.432907104492188,-1.2106,9.288,-2.6605,0.7935,-3.6621,1.8311,106.5674,7.196,-25.318,0.7724,0.2119,-0.0817,0.5932,1,0,0,1777535001.2756147,15.43283462524414,-1.0623,0.5934,9.9579,-0.1831,-0.3662,0.3052,4.0375,6.5479,-121.4099,-0.0326,0.0586,-0.8692,0.49,1,0,0,1777535001.2766147,14.432907104492188,-1.7418,9.1875,-2.2634,1.0986,0.9766,-0.5493,104.4965,10.7721,-59.1229,0.6564,0.4383,-0.2362,0.5668,1,0,0,1777535001.2766147,14.432907104492188,-1.0958,8.4984,-3.7659,5.127,1.5869,0.1221,115.8289,6.3831,177.0667,0.0512,-0.8449,0.5314,-0.0336,1,0,0,1777535001.2756147,15.43283462524414,0.9666,3.8281,9.1875,0.2441,-0.1221,1.2207,23.0988,-5.5316,158.8623,-0.0098,-0.2053,0.9602,0.189,0,0,0,1,,,0,0,0,0,0,0,0,0,0,0,0,0,0,0,0,0,0,0,0,0,0,1,,,0,0,0,0,0,0,0,0,0,0,0,0,0,0,0,0,0,0
1777535004.9378176,365744,1777535001.3020444,1777535001.2766147,,0,0,26.42965316772461,,0,0,0,0,0,0,1,0,0,0.0,0.0,0.0,0.0,0.0,0.0,0.0,0.0,0.0,0.0,0.0,0.0,0.0,0.0,0.0,0.0,0.0,0.0,0.0,0.0,0.0,0.0,0.0,0.0,0.0,0.0,0.0,38.28425598187358,640.1064281863272,848.502936978498,114.2227999934355,600.7370316954933,863.3669373750265,-50.04156244080472,445.714456542514,939.4609498062179,28.452988051299283,417.5450582880354,953.2034773459526,-130.94717527809598,599.3512701076124,707.2995365652023,-84.10657089680751,602.799978352169,413.29283388899927,-114.82203286398261,533.1792924327102,195.84654294032742,-89.5896055846525,477.9525473094281,70.9345350960639,-49.43057533316184,400.44641927917957,46.76461325842566,-5.298558090267093,669.0424244422894,53.46566002613351,209.1724665674227,443.3602622217556,739.9240556237881,225.47071347537434,407.8353017573673,447.64357603117423,219.88355950573546,306.52051962738966,272.9941586580558,192.57779412216797,269.31949557875504,115.75831073112285,129.23624212961928,213.04061467899052,104.40323651841364,214.41649116400347,455.6705041095057,48.84679668455295,0,1,0,1777535001.2766147,25.429725646972656,-2.3734,8.7616,-3.5027,1.0376,-0.9766,-0.7935,112.3242,13.3539,-5.0208,0.8214,0.1008,0.0723,0.5568,0,1,0,1777535001.2766147,25.429725646972656,-0.244,9.4028,-2.0528,0.4883,1.9531,-0.4883,101.5302,1.7578,-31.0364,0.7436,0.2166,-0.1578,0.6126,0,1,0,1777535001.2766147,25.429725646972656,-1.2106,9.288,-2.6605,0.7935,-3.6621,1.8311,106.5674,7.196,-25.318,0.7724,0.2119,-0.0817,0.5932,0,1,0,1777535001.2756147,26.42965316772461,-1.0623,0.5934,9.9579,-0.1831,-0.3662,0.3052,4.0375,6.5479,-121.4099,-0.0326,0.0586,-0.8692,0.49,0,1,0,1777535001.2766147,25.429725646972656,-1.7418,9.1875,-2.2634,1.0986,0.9766,-0.5493,104.4965,10.7721,-59.1229,0.6564,0.4383,-0.2362,0.5668,0,1,0,1777535001.2766147,25.429725646972656,-1.0958,8.4984,-3.7659,5.127,1.5869,0.1221,115.8289,6.3831,177.0667,0.0512,-0.8449,0.5314,-0.0336,0,1,0,1777535001.2756147,26.42965316772461,0.9666,3.8281,9.1875,0.2441,-0.1221,1.2207,23.0988,-5.5316,158.8623,-0.0098,-0.2053,0.9602,0.189,0,0,0,1,,,0,0,0,0,0,0,0,0,0,0,0,0,0,0,0,0,0,0,0,0,0,1,,,0,0,0,0,0,0,0,0,0,0,0,0,0,0,0,0,0,0
1777535004.9384687,365745,1777535001.311043,1777535001.2766147,,0,0,35.42828559875488,,0,0,0,0,0,0,1,0,0,0.0,0.0,0.0,0.0,0.0,0.0,0.0,0.0,0.0,0.0,0.0,0.0,0.0,0.0,0.0,0.0,0.0,0.0,0.0,0.0,0.0,0.0,0.0,0.0,0.0,0.0,0.0,38.35486198330905,640.1346046374148,848.5329776220741,114.28562492091409,600.7715696719079,863.3495187353727,-49.87178585969995,445.6493955648062,939.3966587307118,28.54730988685555,417.49042263628843,953.1425898864816,-130.93421402269414,599.329347405732,707.3387981108012,-84.1868323019111,602.6862786015492,413.3414201810255,-114.88637262478089,533.1664027139761,195.8491557039416,-89.5802550022489,477.93501738676974,70.92221787724797,-49.43550553400231,400.4681161175991,46.77512162138716,-5.34667112773216,669.053465134273,53.43181617850374,209.18331499039104,443.52393802796547,739.7127134827379,225.2883413009823,408.0988168628274,447.37444214587396,219.61723305248154,306.5104647238153,272.8330463312566,192.24129732940082,269.1744554059002,115.64866208308867,128.21180467081112,213.65180937536616,103.99508720734029,215.05851158339215,455.90556888875847,49.226468743180035,0,1,0,1777535001.2766147,34.42835807800293,-2.3734,8.7616,-3.5027,1.0376,-0.9766,-0.7935,112.3242,13.3539,-5.0208,0.8214,0.1008,0.0723,0.5568,0,1,0,1777535001.2766147,34.42835807800293,-0.244,9.4028,-2.0528,0.4883,1.9531,-0.4883,101.5302,1.7578,-31.0364,0.7436,0.2166,-0.1578,0.6126,0,1,0,1777535001.2766147,34.42835807800293,-1.2106,9.288,-2.6605,0.7935,-3.6621,1.8311,106.5674,7.196,-25.318,0.7724,0.2119,-0.0817,0.5932,0,1,0,1777535001.2756147,35.42828559875488,-1.0623,0.5934,9.9579,-0.1831,-0.3662,0.3052,4.0375,6.5479,-121.4099,-0.0326,0.0586,-0.8692,0.49,0,1,0,1777535001.2766147,34.42835807800293,-1.7418,9.1875,-2.2634,1.0986,0.9766,-0.5493,104.4965,10.7721,-59.1229,0.6564,0.4383,-0.2362,0.5668,0,1,0,1777535001.2766147,34.42835807800293,-1.0958,8.4984,-3.7659,5.127,1.5869,0.1221,115.8289,6.3831,177.0667,0.0512,-0.8449,0.5314,-0.0336,0,1,0,1777535001.2756147,35.42828559875488,0.9666,3.8281,9.1875,0.2441,-0.1221,1.2207,23.0988,-5.5316,158.8623,-0.0098,-0.2053,0.9602,0.189,0,0,0,1,,,0,0,0,0,0,0,0,0,0,0,0,0,0,0,0,0,0,0,0,0,0,1,,,0,0,0,0,0,0,0,0,0,0,0,0,0,0,0,0,0,0
1777535004.9384687,365746,1777535001.3215628,1777535001.2766147,,0,0,45.948028564453125,,0,0,0,0,0,0,1,0,0,0.0,0.0,0.0,0.0,0.0,0.0,0.0,0.0,0.0,0.0,0.0,0.0,0.0,0.0,0.0,0.0,0.0,0.0,0.0,0.0,0.0,0.0,0.0,0.0,0.0,0.0,0.0,38.41977434885465,640.1468314751834,848.5542739410178,114.37080941581321,600.825760916024,863.3240708316167,-49.63864682911867,445.6096452479475,939.3406051553366,28.756925920293614,417.3655582134175,953.0600448829892,-130.9014872707468,599.3106189094176,707.3993567433666,-84.26580274842041,602.5361901727042,413.3335437624568,-114.96117562634437,533.1347645398159,195.8536158670962,-89.65254789197894,477.9296644055747,70.90821239543976,-49.455987728501775,400.4857797998976,46.79068690843186,-5.362331405975829,669.0592845150898,53.421948111661244,209.1757603848427,443.7563105684602,739.4479621437287,225.16041496074615,408.3672173374725,447.0542412666463,219.21558845130414,306.53931103889084,272.5748280564737,191.82862444513302,269.1396649442303,115.46360064666666,126.90847002915062,214.36927682500055,103.92031708389347,215.6672763223348,456.1359385500946,49.47189322812637,0,1,0,1777535001.2766147,44.94810104370117,-2.3734,8.7616,-3.5027,1.0376,-0.9766,-0.7935,112.3242,13.3539,-5.0208,0.8214,0.1008,0.0723,0.5568,0,1,0,1777535001.2766147,44.94810104370117,-0.244,9.4028,-2.0528,0.4883,1.9531,-0.4883,101.5302,1.7578,-31.0364,0.7436,0.2166,-0.1578,0.6126,0,1,0,1777535001.2766147,44.94810104370117,-1.2106,9.288,-2.6605,0.7935,-3.6621,1.8311,106.5674,7.196,-25.318,0.7724,0.2119,-0.0817,0.5932,0,1,0,1777535001.2756147,45.948028564453125,-1.0623,0.5934,9.9579,-0.1831,-0.3662,0.3052,4.0375,6.5479,-121.4099,-0.0326,0.0586,-0.8692,0.49,0,1,0,1777535001.2766147,44.94810104370117,-1.7418,9.1875,-2.2634,1.0986,0.9766,-0.5493,104.4965,10.7721,-59.1229,0.6564,0.4383,-0.2362,0.5668,0,1,0,1777535001.2766147,44.94810104370117,-1.0958,8.4984,-3.7659,5.127,1.5869,0.1221,115.8289,6.3831,177.0667,0.0512,-0.8449,0.5314,-0.0336,0,1,0,1777535001.2756147,45.948028564453125,0.9666,3.8281,9.1875,0.2441,-0.1221,1.2207,23.0988,-5.5316,158.8623,-0.0098,-0.2053,0.9602,0.189,0,0,0,1,,,0,0,0,0,0,0,0,0,0,0,0,0,0,0,0,0,0,0,0,0,0,1,,,0,0,0,0,0,0,0,0,0,0,0,0,0,0,0,0,0,0
1777535004.9394789,365747,1777535001.331564,1777535001.2766147,,0,0,55.94921112060547,,0,0,0,0,0,0,1,0,0,0.0,0.0,0.0,0.0,0.0,0.0,0.0,0.0,0.0,0.0,0.0,0.0,0.0,0.0,0.0,0.0,0.0,0.0,0.0,0.0,0.0,0.0,0.0,0.0,0.0,0.0,0.0,38.468235193236666,640.1858864248354,848.5851531685423,114.46397743304549,600.8802640123145,863.2815678349369,-49.45053697789273,445.57350790949243,939.2406091003894,28.944120840106745,417.45243679314854,952.9517912912626,-130.89731384612273,599.2979839082886,707.4205044053232,-84.40486155506942,602.4765260645431,413.38271362211043,-115.02087404758028,533.0929848188111,195.87685720592978,-89.67274588904672,477.93651578354195,70.89230124517853,-49.43650676016808,400.4675030819024,46.780084120557696,-5.380129356087714,669.0461418053933,53.419824101756326,209.2749430940903,443.9774719319144,739.156549660886,224.95415992147133,408.6500108374972,446.7206313577585,218.91980807662154,306.64730807016883,272.4169964754132,191.29356487511092,269.2738252172066,115.16892976556898,125.26151549747237,215.30894761721285,103.40806985434538,216.29957364009414,456.3077197235065,49.825671107262785,0,1,0,1777535001.2766147,54.949283599853516,-2.3734,8.7616,-3.5027,1.0376,-0.9766,-0.7935,112.3242,13.3539,-5.0208,0.8214,0.1008,0.0723,0.5568,0,1,0,1777535001.2766147,54.949283599853516,-0.244,9.4028,-2.0528,0.4883,1.9531,-0.4883,101.5302,1.7578,-31.0364,0.7436,0.2166,-0.1578,0.6126,0,1,0,1777535001.2766147,54.949283599853516,-1.2106,9.288,-2.6605,0.7935,-3.6621,1.8311,106.5674,7.196,-25.318,0.7724,0.2119,-0.0817,0.5932,0,1,0,1777535001.2756147,55.94921112060547,-1.0623,0.5934,9.9579,-0.1831,-0.3662,0.3052,4.0375,6.5479,-121.4099,-0.0326,0.0586,-0.8692,0.49,0,1,0,1777535001.2766147,54.949283599853516,-1.7418,9.1875,-2.2634,1.0986,0.9766,-0.5493,104.4965,10.7721,-59.1229,0.6564,0.4383,-0.2362,0.5668,0,1,0,1777535001.2766147,54.949283599853516,-1.0958,8.4984,-3.7659,5.127,1.5869,0.1221,115.8289,6.3831,177.0667,0.0512,-0.8449,0.5314,-0.0336,0,1,0,1777535001.2756147,55.94921112060547,0.9666,3.8281,9.1875,0.2441,-0.1221,1.2207,23.0988,-5.5316,158.8623,-0.0098,-0.2053,0.9602,0.189,0,0,0,1,,,0,0,0,0,0,0,0,0,0,0,0,0,0,0,0,0,0,0,0,0,0,1,,,0,0,0,0,0,0,0,0,0,0,0,0,0,0,0,0,0,0
1777535004.9394789,365748,1777535001.3414023,1777535001.2766147,,0,0,65.78755378723145,,0,0,0,0,0,0,1,0,0,0.0,0.0,0.0,0.0,0.0,0.0,0.0,0.0,0.0,0.0,0.0,0.0,0.0,0.0,0.0,0.0,0.0,0.0,0.0,0.0,0.0,0.0,0.0,0.0,0.0,0.0,0.0,38.507641697067946,640.2059606865691,848.6032462205483,114.53953074345341,600.9565556013539,863.2259925302533,-49.22034044832084,445.5105822142085,939.08597262007,29.38113222114368,417.44575119722305,952.7394741380704,-130.88083369474467,599.3287096052645,707.4760889081986,-84.52359870604437,602.3573313470915,413.4128391594557,-115.10154900137661,533.0341137202206,195.88994705320187,-89.71281003335318,477.9007053585042,70.86500802671895,-49.54425667446231,400.46354374133506,46.73168722184967,-5.378690605201938,669.0283782023484,53.43693365896795,209.38609820494185,444.1703828370609,738.8332932476279,224.71747818306173,408.91594602749876,446.34630838973874,218.3540099850135,306.80255812781775,272.08389988408743,190.73486454836424,269.47822695029913,114.76624253780646,123.64087211718264,216.24315742269442,103.04139869014779,217.00503023976938,456.5871930671256,50.22457939633959,0,1,0,1777535001.2766147,64.78762626647949,-2.3734,8.7616,-3.5027,1.0376,-0.9766,-0.7935,112.3242,13.3539,-5.0208,0.8214,0.1008,0.0723,0.5568,0,1,0,1777535001.2766147,64.78762626647949,-0.244,9.4028,-2.0528,0.4883,1.9531,-0.4883,101.5302,1.7578,-31.0364,0.7436,0.2166,-0.1578,0.6126,0,1,0,1777535001.2766147,64.78762626647949,-1.2106,9.288,-2.6605,0.7935,-3.6621,1.8311,106.5674,7.196,-25.318,0.7724,0.2119,-0.0817,0.5932,0,1,0,1777535001.2756147,65.78755378723145,-1.0623,0.5934,9.9579,-0.1831,-0.3662,0.3052,4.0375,6.5479,-121.4099,-0.0326,0.0586,-0.8692,0.49,0,1,0,1777535001.2766147,64.78762626647949,-1.7418,9.1875,-2.2634,1.0986,0.9766,-0.5493,104.4965,10.7721,-59.1229,0.6564,0.4383,-0.2362,0.5668,0,1,0,1777535001.2766147,64.78762626647949,-1.0958,8.4984,-3.7659,5.127,1.5869,0.1221,115.8289,6.3831,177.0667,0.0512,-0.8449,0.5314,-0.0336,0,1,0,1777535001.2756147,65.78755378723145,0.9666,3.8281,9.1875,0.2441,-0.1221,1.2207,23.0988,-5.5316,158.8623,-0.0098,-0.2053,0.9602,0.189,0,0,0,1,,,0,0,0,0,0,0,0,0,0,0,0,0,0,0,0,0,0,0,0,0,0,1,,,0,0,0,0,0,0,0,0,0,0,0,0,0,0,0,0,0,0
1777535004.9404778,365749,1777535001.3552322,1777535001.3544073,,0,0,1.8248558044433594,,1,0,7,0,1,0,1,0,0,0.0,0.0,0.0,0.0,0.0,0.0,0.0,0.0,0.0,0.0,0.0,0.0,0.0,0.0,0.0,0.0,0.0,0.0,0.0,0.0,0.0,0.0,0.0,0.0,0.0,0.0,0.0,38.51871268599531,640.2504557378008,848.6220471106093,114.62237366645584,601.0285452206178,863.1556902730564,-48.961370324845014,445.3840270811018,938.9061168554268,29.527503259106545,417.375969550597,952.4102232276405,-130.84414011845286,599.2448743020491,707.5248146265156,-84.63804632072934,602.1914474275077,413.42979174508366,-115.14311639070488,532.9716797287884,195.8837777389524,-89.71139080901163,477.8812794651599,70.87724794728827,-49.53001812461632,400.4371121579363,46.7430331394048,-5.403358283425118,669.0371516033891,53.461510885602245,209.37845659906975,444.35500411162496,738.5047281698783,224.37270070229448,409.2612732413629,445.8812079549998,217.7230124467187,306.9658039252495,271.6515774320715,190.19326764462258,269.7218704074951,114.42818741365814,121.83419371178589,217.25112765196232,102.10569128585442,217.73156826993642,457.03910208947093,51.03906285656792,1,0,0,1777535001.3544073,0.8249282836914062,-2.316,8.8286,-3.4645,-3.2959,-0.3052,0.9766,112.2748,13.3868,-5.0262,0.8211,0.101,0.0724,0.5571,1,0,0,1777535001.3544073,0.8249282836914062,-0.4546,9.4028,-2.1438,3.1128,0.7324,1.2817,101.4972,1.6699,-31.0309,0.7436,0.216,-0.1584,0.6126,1,0,0,1777535001.3544073,0.8249282836914062,-1.1245,9.2688,-2.8376,-1.2817,-2.0752,1.0986,106.5509,7.1741,-25.4498,0.7721,0.2127,-0.0825,0.5932,1,0,0,1777535001.3544073,0.8249282836914062,-1.1054,0.6077,9.9627,0.1831,-0.2441,0.1831,4.021,6.5369,-121.4264,-0.0326,0.0584,-0.8692,0.4898,1,0,0,1777535001.3544073,0.8249282836914062,-1.4595,9.1062,-2.0433,0.6714,7.6294,1.5259,104.4965,10.6403,-58.8373,0.6579,0.4361,-0.2356,0.567,1,0,0,1777535001.3544073,0.8249282836914062,-0.8135,8.3405,-3.7516,10.9253,7.0801,-0.3052,116.3507,6.2183,177.5226,0.0469,-0.8476,0.5274,-0.0347,1,0,0,1777535001.3534074,1.8248558044433594,1.0432,3.7851,9.355,6.2866,-0.3052,-3.9062,23.3405,-5.4987,158.736,-0.0089,-0.2072,0.9596,0.19,0,0,0,1,,,0,0,0,0,0,0,0,0,0,0,0,0,0,0,0,0,0,0,0,0,0,1,,,0,0,0,0,0,0,0,0,0,0,0,0,0,0,0,0,0,0
1777535004.9404778,365750,1777535001.3617542,1777535001.3544073,,0,0,8.346796035766602,,1,0,7,0,1,0,1,0,0,0.0,0.0,0.0,0.0,0.0,0.0,0.0,0.0,0.0,0.0,0.0,0.0,0.0,0.0,0.0,0.0,0.0,0.0,0.0,0.0,0.0,0.0,0.0,0.0,0.0,0.0,0.0,38.52592831280417,640.2634686950776,848.6251670001561,114.69568963273485,601.0905383809281,863.0473401419013,-48.78718864760981,445.2527650888126,938.8015736740115,29.866289036399852,417.14955800761555,952.2142165203973,-130.8072485132015,599.2440270138742,707.5520995209698,-84.72532248249101,602.0179864631136,413.4305037958874,-115.18819873827091,532.9285961637925,195.84587823626472,-89.72683330207097,477.90448537452295,70.8605206267239,-49.52833353666747,400.4954341926238,46.74716322621205,-5.41448210389169,669.0490766730668,53.4612151891878,209.33254266295404,444.5444191367998,738.0823041826624,224.03686898638023,409.63547134167095,445.42415313367,217.2364606003986,307.16204269629975,271.2728889237218,189.37864719602203,269.9965970683566,113.96185543788178,120.53276232261464,218.28781896859124,100.8688314358315,218.1868950333596,457.75156901764046,51.92034496428897,1,0,0,1777535001.3544073,7.346868515014648,-2.316,8.8286,-3.4645,-3.2959,-0.3052,0.9766,112.2748,13.3868,-5.0262,0.8211,0.101,0.0724,0.5571,1,0,0,1777535001.3544073,7.346868515014648,-0.4546,9.4028,-2.1438,3.1128,0.7324,1.2817,101.4972,1.6699,-31.0309,0.7436,0.216,-0.1584,0.6126,1,0,0,1777535001.3544073,7.346868515014648,-1.1245,9.2688,-2.8376,-1.2817,-2.0752,1.0986,106.5509,7.1741,-25.4498,0.7721,0.2127,-0.0825,0.5932,1,0,0,1777535001.3544073,7.346868515014648,-1.1054,0.6077,9.9627,0.1831,-0.2441,0.1831,4.021,6.5369,-121.4264,-0.0326,0.0584,-0.8692,0.4898,1,0,0,1777535001.3544073,7.346868515014648,-1.4595,9.1062,-2.0433,0.6714,7.6294,1.5259,104.4965,10.6403,-58.8373,0.6579,0.4361,-0.2356,0.567,1,0,0,1777535001.3544073,7.346868515014648,-0.8135,8.3405,-3.7516,10.9253,7.0801,-0.3052,116.3507,6.2183,177.5226,0.0469,-0.8476,0.5274,-0.0347,1,0,0,1777535001.3534074,8.346796035766602,1.0432,3.7851,9.355,6.2866,-0.3052,-3.9062,23.3405,-5.4987,158.736,-0.0089,-0.2072,0.9596,0.19,0,0,0,1,,,0,0,0,0,0,0,0,0,0,0,0,0,0,0,0,0,0,0,0,0,0,1,,,0,0,0,0,0,0,0,0,0,0,0,0,0,0,0,0,0,0
1777535004.9404778,365751,1777535001.371265,1777535001.3544073,,0,0,17.85755157470703,,1,0,7,0,1,0,1,0,0,0.0,0.0,0.0,0.0,0.0,0.0,0.0,0.0,0.0,0.0,0.0,0.0,0.0,0.0,0.0,0.0,0.0,0.0,0.0,0.0,0.0,0.0,0.0,0.0,0.0,0.0,0.0,38.543091879186164,640.2967011332843,848.6379033761772,114.75520353173711,601.1092291635592,862.9468639199894,-48.520217668214215,445.0763290057192,938.645385264279,30.07699703176958,417.07122406403164,951.9443244502627,-130.8058966268508,599.1980998699001,707.5876458724729,-84.78093068250232,601.9371418760301,413.45842806177944,-115.21488527427667,532.9101279673058,195.84532842356262,-89.72760874021237,477.8855596765005,70.85524848469676,-49.56277140436722,400.4647332274208,46.71378868142478,-5.42137959019925,669.0459285161982,53.4642176298092,209.30465968172365,444.6703919986246,737.6879274507784,223.59932070533458,410.06186646601316,444.96854669703873,216.61874100859754,307.60565156485325,270.7809801540822,188.73424461969225,270.60025396646654,113.43146650572437,119.20164556344982,219.35829894681922,98.96222302600529,218.50284889485133,458.72821171125173,53.14289424085467,1,0,0,1777535001.3544073,16.857624053955078,-2.316,8.8286,-3.4645,-3.2959,-0.3052,0.9766,112.2748,13.3868,-5.0262,0.8211,0.101,0.0724,0.5571,1,0,0,1777535001.3544073,16.857624053955078,-0.4546,9.4028,-2.1438,3.1128,0.7324,1.2817,101.4972,1.6699,-31.0309,0.7436,0.216,-0.1584,0.6126,1,0,0,1777535001.3544073,16.857624053955078,-1.1245,9.2688,-2.8376,-1.2817,-2.0752,1.0986,106.5509,7.1741,-25.4498,0.7721,0.2127,-0.0825,0.5932,1,0,0,1777535001.3544073,16.857624053955078,-1.1054,0.6077,9.9627,0.1831,-0.2441,0.1831,4.021,6.5369,-121.4264,-0.0326,0.0584,-0.8692,0.4898,1,0,0,1777535001.3544073,16.857624053955078,-1.4595,9.1062,-2.0433,0.6714,7.6294,1.5259,104.4965,10.6403,-58.8373,0.6579,0.4361,-0.2356,0.567,1,0,0,1777535001.3544073,16.857624053955078,-0.8135,8.3405,-3.7516,10.9253,7.0801,-0.3052,116.3507,6.2183,177.5226,0.0469,-0.8476,0.5274,-0.0347,1,0,0,1777535001.3534074,17.85755157470703,1.0432,3.7851,9.355,6.2866,-0.3052,-3.9062,23.3405,-5.4987,158.736,-0.0089,-0.2072,0.9596,0.19,0,0,0,1,,,0,0,0,0,0,0,0,0,0,0,0,0,0,0,0,0,0,0,0,0,0,1,,,0,0,0,0,0,0,0,0,0,0,0,0,0,0,0,0,0,0
1777535004.9414792,365752,1777535001.3812647,1777535001.3544073,,0,0,27.857303619384766,,0,0,0,0,0,0,1,0,0,0.0,0.0,0.0,0.0,0.0,0.0,0.0,0.0,0.0,0.0,0.0,0.0,0.0,0.0,0.0,0.0,0.0,0.0,0.0,0.0,0.0,0.0,0.0,0.0,0.0,0.0,0.0,38.53973339226277,640.2860626334594,848.6147866238621,114.80708012007334,601.1661429453391,862.8136156504354,-48.176585221497405,444.8279184466949,938.5049401202314,30.339971010499564,416.86466611200353,951.829095408676,-130.79469397533796,599.0877265006184,707.6397840002453,-84.89670377480702,601.8681634739577,413.47399559487525,-115.28980859418122,532.8757318738395,195.827004743527,-89.73289124438082,477.8930562926138,70.8585678552665,-49.57463367592165,400.4891558245269,46.72149669453655,-5.4223600557289595,669.0490389682847,53.47905531512264,209.22167268886187,444.9251404902617,737.1734718290002,223.11151280953888,410.44185729219276,444.4306681367184,216.06657613856785,308.0743505129651,270.2732950515526,188.16430430976368,271.50077404603365,112.95791088251563,118.2104002802011,220.62068427552447,97.16816260490857,218.5384658841645,459.9790228614881,54.36529026907101,0,1,0,1777535001.3544073,26.857376098632812,-2.316,8.8286,-3.4645,-3.2959,-0.3052,0.9766,112.2748,13.3868,-5.0262,0.8211,0.101,0.0724,0.5571,0,1,0,1777535001.3544073,26.857376098632812,-0.4546,9.4028,-2.1438,3.1128,0.7324,1.2817,101.4972,1.6699,-31.0309,0.7436,0.216,-0.1584,0.6126,0,1,0,1777535001.3544073,26.857376098632812,-1.1245,9.2688,-2.8376,-1.2817,-2.0752,1.0986,106.5509,7.1741,-25.4498,0.7721,0.2127,-0.0825,0.5932,0,1,0,1777535001.3544073,26.857376098632812,-1.1054,0.6077,9.9627,0.1831,-0.2441,0.1831,4.021,6.5369,-121.4264,-0.0326,0.0584,-0.8692,0.4898,0,1,0,1777535001.3544073,26.857376098632812,-1.4595,9.1062,-2.0433,0.6714,7.6294,1.5259,104.4965,10.6403,-58.8373,0.6579,0.4361,-0.2356,0.567,0,1,0,1777535001.3544073,26.857376098632812,-0.8135,8.3405,-3.7516,10.9253,7.0801,-0.3052,116.3507,6.2183,177.5226,0.0469,-0.8476,0.5274,-0.0347,0,1,0,1777535001.3534074,27.857303619384766,1.0432,3.7851,9.355,6.2866,-0.3052,-3.9062,23.3405,-5.4987,158.736,-0.0089,-0.2072,0.9596,0.19,0,0,0,1,,,0,0,0,0,0,0,0,0,0,0,0,0,0,0,0,0,0,0,0,0,0,1,,,0,0,0,0,0,0,0,0,0,0,0,0,0,0,0,0,0,0
1777535004.9414792,365753,1777535001.3912644,1777535001.3544073,,0,0,37.8570556640625,,0,0,0,0,0,0,1,0,0,0.0,0.0,0.0,0.0,0.0,0.0,0.0,0.0,0.0,0.0,0.0,0.0,0.0,0.0,0.0,0.0,0.0,0.0,0.0,0.0,0.0,0.0,0.0,0.0,0.0,0.0,0.0,38.54500461995068,640.2307428411018,848.6019114771835,114.87013287815635,601.169059345594,862.6681258672141,-47.96508006651358,444.6665484704666,938.4106941647437,30.72715412629239,416.6703417412562,951.5940589892074,-130.80008239687072,598.9036387180934,707.6614621053216,-85.05058042433333,601.7971906961084,413.4527046512977,-115.3331351870471,532.8001484641784,195.8338966403353,-89.77334571720384,477.89013199585924,70.85559587118965,-49.585992646707155,400.44905326567607,46.69169735408835,-5.410060423842259,669.0682195980172,53.49113570120741,209.25372891178483,445.1759393403773,736.7162621444863,222.57777628583145,410.90125785954626,443.9067668784602,215.34192214697538,308.76417440464553,269.5534654414173,187.37895288386042,272.4849290734444,112.0478079669918,117.58085069747834,221.8902702475412,95.48930399421594,218.39630041986766,461.338105589973,55.406282023023465,0,1,0,1777535001.3544073,36.85712814331055,-2.316,8.8286,-3.4645,-3.2959,-0.3052,0.9766,112.2748,13.3868,-5.0262,0.8211,0.101,0.0724,0.5571,0,1,0,1777535001.3544073,36.85712814331055,-0.4546,9.4028,-2.1438,3.1128,0.7324,1.2817,101.4972,1.6699,-31.0309,0.7436,0.216,-0.1584,0.6126,0,1,0,1777535001.3544073,36.85712814331055,-1.1245,9.2688,-2.8376,-1.2817,-2.0752,1.0986,106.5509,7.1741,-25.4498,0.7721,0.2127,-0.0825,0.5932,0,1,0,1777535001.3544073,36.85712814331055,-1.1054,0.6077,9.9627,0.1831,-0.2441,0.1831,4.021,6.5369,-121.4264,-0.0326,0.0584,-0.8692,0.4898,0,1,0,1777535001.3544073,36.85712814331055,-1.4595,9.1062,-2.0433,0.6714,7.6294,1.5259,104.4965,10.6403,-58.8373,0.6579,0.4361,-0.2356,0.567,0,1,0,1777535001.3544073,36.85712814331055,-0.8135,8.3405,-3.7516,10.9253,7.0801,-0.3052,116.3507,6.2183,177.5226,0.0469,-0.8476,0.5274,-0.0347,0,1,0,1777535001.3534074,37.8570556640625,1.0432,3.7851,9.355,6.2866,-0.3052,-3.9062,23.3405,-5.4987,158.736,-0.0089,-0.2072,0.9596,0.19,0,0,0,1,,,0,0,0,0,0,0,0,0,0,0,0,0,0,0,0,0,0,0,0,0,0,1,,,0,0,0,0,0,0,0,0,0,0,0,0,0,0,0,0,0,0
1777535004.9424806,365754,1777535001.401265,1777535001.3544073,,0,0,47.85752296447754,,0,0,0,0,0,0,1,0,0,0.0,0.0,0.0,0.0,0.0,0.0,0.0,0.0,0.0,0.0,0.0,0.0,0.0,0.0,0.0,0.0,0.0,0.0,0.0,0.0,0.0,0.0,0.0,0.0,0.0,0.0,0.0,38.570644855114026,640.1680896894851,848.5904623653441,114.95243531986489,601.181615044624,862.5403443768109,-47.60568519348339,444.4261680022086,938.2125812879852,31.03989602346906,416.56675104948613,951.2085762476802,-130.78970724677234,598.6623741817256,707.7244646269021,-85.16594860738122,601.6326782834914,413.48505644115556,-115.40379746058458,532.7711291307951,195.8299183198744,-89.80056056247356,477.8750020363021,70.8464308444801,-49.57587257224598,400.45000845409766,46.667679389126725,-5.435797744162102,669.0661108182576,53.504578903451254,209.34407421901088,445.34750563356437,736.2442061328877,222.04816752242436,411.3970484968728,443.35129689673323,214.61032869427746,309.6048968518283,268.713194536819,186.8044688608768,273.7690787637572,111.37348233876774,117.34696474096114,223.10126509178173,94.05499309970078,218.27432785066605,462.92612114315676,56.211842382103384,0,1,0,1777535001.3544073,46.857595443725586,-2.316,8.8286,-3.4645,-3.2959,-0.3052,0.9766,112.2748,13.3868,-5.0262,0.8211,0.101,0.0724,0.5571,0,1,0,1777535001.3544073,46.857595443725586,-0.4546,9.4028,-2.1438,3.1128,0.7324,1.2817,101.4972,1.6699,-31.0309,0.7436,0.216,-0.1584,0.6126,0,1,0,1777535001.3544073,46.857595443725586,-1.1245,9.2688,-2.8376,-1.2817,-2.0752,1.0986,106.5509,7.1741,-25.4498,0.7721,0.2127,-0.0825,0.5932,0,1,0,1777535001.3544073,46.857595443725586,-1.1054,0.6077,9.9627,0.1831,-0.2441,0.1831,4.021,6.5369,-121.4264,-0.0326,0.0584,-0.8692,0.4898,0,1,0,1777535001.3544073,46.857595443725586,-1.4595,9.1062,-2.0433,0.6714,7.6294,1.5259,104.4965,10.6403,-58.8373,0.6579,0.4361,-0.2356,0.567,0,1,0,1777535001.3544073,46.857595443725586,-0.8135,8.3405,-3.7516,10.9253,7.0801,-0.3052,116.3507,6.2183,177.5226,0.0469,-0.8476,0.5274,-0.0347,0,1,0,1777535001.3534074,47.85752296447754,1.0432,3.7851,9.355,6.2866,-0.3052,-3.9062,23.3405,-5.4987,158.736,-0.0089,-0.2072,0.9596,0.19,0,0,0,1,,,0,0,0,0,0,0,0,0,0,0,0,0,0,0,0,0,0,0,0,0,0,1,,,0,0,0,0,0,0,0,0,0,0,0,0,0,0,0,0,0,0
1777535004.9424806,365755,1777535001.4117744,1777535001.3544073,,0,0,58.367013931274414,,0,0,0,0,0,0,1,0,0,0.0,0.0,0.0,0.0,0.0,0.0,0.0,0.0,0.0,0.0,0.0,0.0,0.0,0.0,0.0,0.0,0.0,0.0,0.0,0.0,0.0,0.0,0.0,0.0,0.0,0.0,0.0,38.60908127606543,640.0534578129746,848.5763961840512,115.03269863075168,601.1489688508011,862.4064050666094,-47.23702604840844,444.107908525288,938.1088462138299,31.4067493558652,416.31659809400486,950.927572527056,-130.84064479403,598.4839318543632,707.7499184322915,-85.30341334178623,601.4766433619749,413.518784096188,-115.4290535300241,532.6894722877526,195.79530784354603,-89.8147950794004,477.8848550696211,70.828817524543,-49.56807248979019,400.47863988145036,46.65646629032183,-5.431320897150567,669.0621337891529,53.50581863476785,209.38892489236815,445.49714531075244,735.7846391414305,221.45832804146235,411.9721702122452,442.808016914558,213.95818184380374,310.5809156460059,267.94565757663634,186.07162555567402,275.2629750337044,110.56810966529679,116.86686753191758,224.76128116146543,92.49452789237492,218.0685521271624,464.70198693448293,56.84302243135827,0,1,0,1777535001.3544073,57.36708641052246,-2.316,8.8286,-3.4645,-3.2959,-0.3052,0.9766,112.2748,13.3868,-5.0262,0.8211,0.101,0.0724,0.5571,0,1,0,1777535001.3544073,57.36708641052246,-0.4546,9.4028,-2.1438,3.1128,0.7324,1.2817,101.4972,1.6699,-31.0309,0.7436,0.216,-0.1584,0.6126,0,1,0,1777535001.3544073,57.36708641052246,-1.1245,9.2688,-2.8376,-1.2817,-2.0752,1.0986,106.5509,7.1741,-25.4498,0.7721,0.2127,-0.0825,0.5932,0,1,0,1777535001.3544073,57.36708641052246,-1.1054,0.6077,9.9627,0.1831,-0.2441,0.1831,4.021,6.5369,-121.4264,-0.0326,0.0584,-0.8692,0.4898,0,1,0,1777535001.3544073,57.36708641052246,-1.4595,9.1062,-2.0433,0.6714,7.6294,1.5259,104.4965,10.6403,-58.8373,0.6579,0.4361,-0.2356,0.567,0,1,0,1777535001.3544073,57.36708641052246,-0.8135,8.3405,-3.7516,10.9253,7.0801,-0.3052,116.3507,6.2183,177.5226,0.0469,-0.8476,0.5274,-0.0347,0,1,0,1777535001.3534074,58.367013931274414,1.0432,3.7851,9.355,6.2866,-0.3052,-3.9062,23.3405,-5.4987,158.736,-0.0089,-0.2072,0.9596,0.19,0,0,0,1,,,0,0,0,0,0,0,0,0,0,0,0,0,0,0,0,0,0,0,0,0,0,1,,,0,0,0,0,0,0,0,0,0,0,0,0,0,0,0,0,0,0
1777535004.9424806,365756,1777535001.421774,1777535001.3544073,,0,0,68.36652755737305,,0,0,0,0,0,0,1,0,0,0.0,0.0,0.0,0.0,0.0,0.0,0.0,0.0,0.0,0.0,0.0,0.0,0.0,0.0,0.0,0.0,0.0,0.0,0.0,0.0,0.0,0.0,0.0,0.0,0.0,0.0,0.0,38.64380071691448,639.9324176734367,848.5784383346052,115.13339393915881,601.0528283384575,862.3087898206172,-47.00905369797714,443.8553702398878,937.9573916390627,31.858875471048812,416.0911057177795,950.6962310618921,-130.85932626111216,598.3020617023504,707.7978434579635,-85.36983613426573,601.2919013371568,413.5418021175717,-115.5026939776999,532.6842272921954,195.80570318961102,-89.85857072695272,477.88483983154543,70.85308248624159,-49.57232560712516,400.4700855755284,46.64712849714225,-5.453686543650108,669.0443473909598,53.51110516018451,209.23471110906465,445.65280342190596,735.3152810121927,220.8701347455298,412.61782072845233,442.28497827574853,213.30764843529698,311.69192632339326,267.04969802099015,185.46289074475845,276.93572881009914,109.60812868626505,116.30942378587243,226.6338967814672,90.9202525760974,218.00424809508021,466.80689215163113,57.594525322837356,0,1,0,1777535001.3544073,67.3666000366211,-2.316,8.8286,-3.4645,-3.2959,-0.3052,0.9766,112.2748,13.3868,-5.0262,0.8211,0.101,0.0724,0.5571,0,1,0,1777535001.3544073,67.3666000366211,-0.4546,9.4028,-2.1438,3.1128,0.7324,1.2817,101.4972,1.6699,-31.0309,0.7436,0.216,-0.1584,0.6126,0,1,0,1777535001.3544073,67.3666000366211,-1.1245,9.2688,-2.8376,-1.2817,-2.0752,1.0986,106.5509,7.1741,-25.4498,0.7721,0.2127,-0.0825,0.5932,0,1,0,1777535001.3544073,67.3666000366211,-1.1054,0.6077,9.9627,0.1831,-0.2441,0.1831,4.021,6.5369,-121.4264,-0.0326,0.0584,-0.8692,0.4898,0,1,0,1777535001.3544073,67.3666000366211,-1.4595,9.1062,-2.0433,0.6714,7.6294,1.5259,104.4965,10.6403,-58.8373,0.6579,0.4361,-0.2356,0.567,0,1,0,1777535001.3544073,67.3666000366211,-0.8135,8.3405,-3.7516,10.9253,7.0801,-0.3052,116.3507,6.2183,177.5226,0.0469,-0.8476,0.5274,-0.0347,0,1,0,1777535001.3534074,68.36652755737305,1.0432,3.7851,9.355,6.2866,-0.3052,-3.9062,23.3405,-5.4987,158.736,-0.0089,-0.2072,0.9596,0.19,0,0,0,1,,,0,0,0,0,0,0,0,0,0,0,0,0,0,0,0,0,0,0,0,0,0,1,,,0,0,0,0,0,0,0,0,0,0,0,0,0,0,0,0,0,0
1777535004.9424806,365757,1777535001.4367754,1777535001.4367754,,0,0,1.0004043579101562,,1,0,7,0,1,0,1,0,0,0.0,0.0,0.0,0.0,0.0,0.0,0.0,0.0,0.0,0.0,0.0,0.0,0.0,0.0,0.0,0.0,0.0,0.0,0.0,0.0,0.0,0.0,0.0,0.0,0.0,0.0,0.0,38.69196877892124,639.7800558605106,848.6323847704647,115.21968380612178,600.9530044508858,862.2333907826232,-46.73403812939394,443.5241155028253,937.8513202238464,32.21146417098488,415.84198118249975,950.5112015256931,-130.7663760196475,598.0601908497206,707.8653014112613,-85.36115186104631,601.1496678999971,413.5770386892543,-115.51564307473451,532.6736833367726,195.80947662730736,-89.88645001811449,477.8749408913708,70.85590581457623,-49.624783268137186,400.4667296201486,46.66439079653022,-5.4689892121620165,669.0248712959012,53.49557378269422,209.2361543139176,445.75020997056373,734.9270616132441,220.28957996741389,413.33418032877034,441.75035536228785,212.65197975051652,313.0121344472285,266.11396438598575,184.8218573667913,278.7803271148244,108.63715571034126,115.80363377877745,228.64611681178837,89.19293347585625,218.11365807197978,469.07061436265116,58.34041566896312,1,0,0,1777535001.435775,1.0004043579101562,-2.2012,8.6755,-3.5554,-7.1411,5.7983,4.3945,111.9122,13.1451,-4.9548,0.8196,0.0996,0.0707,0.5597,1,0,0,1777535001.435775,1.0004043579101562,-0.134,9.4124,-1.9188,3.7231,2.3804,2.4414,101.6235,1.4886,-30.9924,0.7446,0.215,-0.1591,0.6115,1,0,0,1777535001.435775,1.0004043579101562,-1.3733,9.2114,-2.6366,-2.3193,-2.9907,0.8545,106.4191,7.1906,-25.4993,0.7713,0.213,-0.0829,0.5941,1,0,0,1777535001.435775,1.0004043579101562,-1.0958,0.5981,9.9292,-0.9766,-0.1221,0.061,4.01,6.5259,-121.4374,-0.0325,0.0583,-0.8693,0.4897,1,0,0,1777535001.4367754,0.0,-1.4547,8.9195,-2.2634,1.9531,-3.8452,8.2397,104.5569,10.1569,-58.623,0.6605,0.4329,-0.2373,0.5657,1,0,0,1777535001.435775,1.0004043579101562,-0.3637,8.4267,-3.9813,7.3853,7.3853,4.6387,117.0264,5.8502,177.984,0.0416,-0.851,0.5223,-0.0343,1,0,0,1777535001.4367754,0.0,3.2013,2.6749,11.4126,-53.2227,-28.8696,-32.0435,22.3956,-6.7072,155.2478,-0.0145,-0.2017,0.9541,0.221,0,0,0,1,,,0,0,0,0,0,0,0,0,0,0,0,0,0,0,0,0,0,0,0,0,0,1,,,0,0,0,0,0,0,0,0,0,0,0,0,0,0,0,0,0,0
1777535004.9439864,365758,1777535001.4415617,1777535001.4367754,,0,0,5.786657333374023,,1,0,7,0,1,0,1,0,0,0.0,0.0,0.0,0.0,0.0,0.0,0.0,0.0,0.0,0.0,0.0,0.0,0.0,0.0,0.0,0.0,0.0,0.0,0.0,0.0,0.0,0.0,0.0,0.0,0.0,0.0,0.0,38.7495022514636,639.5556193084127,848.6575349324579,115.2896946936538,600.8368213527654,862.1771532565075,-46.43808953258411,443.1624667707908,937.7941807634504,32.46877605439302,415.45793598612306,950.2208566477893,-130.7307298586263,597.9211180662355,707.9215855671782,-85.3702167021074,601.0625924004478,413.589610664627,-115.52088783461842,532.6582116944486,195.8085649255441,-89.88718243267934,477.8912091246381,70.84602023427952,-49.64093909146162,400.4614895027088,46.64693533939223,-5.402863861986729,669.0430374628548,53.52714806525226,209.1263514908134,445.80965790005973,734.41230493512,219.7400968874453,414.1544622920796,441.2157158973297,212.09536618628476,314.3713293591237,265.1829352758392,184.24821915210154,280.8385496292136,107.6751063503834,115.03757273002375,231.13372644716193,87.18016977458679,218.20881537553322,471.36585655483873,59.01117594727138,1,0,0,1777535001.435775,5.786657333374023,-2.2012,8.6755,-3.5554,-7.1411,5.7983,4.3945,111.9122,13.1451,-4.9548,0.8196,0.0996,0.0707,0.5597,1,0,0,1777535001.435775,5.786657333374023,-0.134,9.4124,-1.9188,3.7231,2.3804,2.4414,101.6235,1.4886,-30.9924,0.7446,0.215,-0.1591,0.6115,1,0,0,1777535001.435775,5.786657333374023,-1.3733,9.2114,-2.6366,-2.3193,-2.9907,0.8545,106.4191,7.1906,-25.4993,0.7713,0.213,-0.0829,0.5941,1,0,0,1777535001.435775,5.786657333374023,-1.0958,0.5981,9.9292,-0.9766,-0.1221,0.061,4.01,6.5259,-121.4374,-0.0325,0.0583,-0.8693,0.4897,1,0,0,1777535001.4367754,4.786252975463867,-1.4547,8.9195,-2.2634,1.9531,-3.8452,8.2397,104.5569,10.1569,-58.623,0.6605,0.4329,-0.2373,0.5657,1,0,0,1777535001.435775,5.786657333374023,-0.3637,8.4267,-3.9813,7.3853,7.3853,4.6387,117.0264,5.8502,177.984,0.0416,-0.851,0.5223,-0.0343,1,0,0,1777535001.4367754,4.786252975463867,3.2013,2.6749,11.4126,-53.2227,-28.8696,-32.0435,22.3956,-6.7072,155.2478,-0.0145,-0.2017,0.9541,0.221,0,0,0,1,,,0,0,0,0,0,0,0,0,0,0,0,0,0,0,0,0,0,0,0,0,0,1,,,0,0,0,0,0,0,0,0,0,0,0,0,0,0,0,0,0,0
1777535004.9439864,365759,1777535001.4515615,1777535001.4367754,,0,0,15.786409378051758,,1,0,7,0,1,0,1,0,0,0.0,0.0,0.0,0.0,0.0,0.0,0.0,0.0,0.0,0.0,0.0,0.0,0.0,0.0,0.0,0.0,0.0,0.0,0.0,0.0,0.0,0.0,0.0,0.0,0.0,0.0,0.0,38.833614346979225,639.3570646930675,848.7497060888695,115.41890129521774,600.6660214992914,862.1275466190398,-46.180885067510005,442.75066938673217,937.6938113360006,32.7358513495087,415.1492742289843,950.0906154593279,-130.6632719438818,597.6590667613516,708.0042452589158,-85.39297441420915,601.0147727479015,413.632421936932,-115.52096416348043,532.6520920199426,195.8369712512245,-89.90772985519372,477.8888397045362,70.83858024296694,-49.60832929680074,400.5039833584573,46.61934965127559,-5.413917025924382,669.0565749311074,53.51172197227126,209.03476339622893,445.89768949318113,733.9704396079836,219.1931104408512,414.9949582962527,440.64711352293335,211.51408167078085,315.99316741373184,264.22781176729353,183.5578218825973,283.1120024585414,106.46054475244695,114.48942722525642,233.73331100912077,85.43221206754562,218.34141964001574,473.91799604082945,59.57712128149058,1,0,0,1777535001.435775,15.786409378051758,-2.2012,8.6755,-3.5554,-7.1411,5.7983,4.3945,111.9122,13.1451,-4.9548,0.8196,0.0996,0.0707,0.5597,1,0,0,1777535001.435775,15.786409378051758,-0.134,9.4124,-1.9188,3.7231,2.3804,2.4414,101.6235,1.4886,-30.9924,0.7446,0.215,-0.1591,0.6115,1,0,0,1777535001.435775,15.786409378051758,-1.3733,9.2114,-2.6366,-2.3193,-2.9907,0.8545,106.4191,7.1906,-25.4993,0.7713,0.213,-0.0829,0.5941,1,0,0,1777535001.435775,15.786409378051758,-1.0958,0.5981,9.9292,-0.9766,-0.1221,0.061,4.01,6.5259,-121.4374,-0.0325,0.0583,-0.8693,0.4897,1,0,0,1777535001.4367754,14.786005020141602,-1.4547,8.9195,-2.2634,1.9531,-3.8452,8.2397,104.5569,10.1569,-58.623,0.6605,0.4329,-0.2373,0.5657,1,0,0,1777535001.435775,15.786409378051758,-0.3637,8.4267,-3.9813,7.3853,7.3853,4.6387,117.0264,5.8502,177.984,0.0416,-0.851,0.5223,-0.0343,1,0,0,1777535001.4367754,14.786005020141602,3.2013,2.6749,11.4126,-53.2227,-28.8696,-32.0435,22.3956,-6.7072,155.2478,-0.0145,-0.2017,0.9541,0.221,0,0,0,1,,,0,0,0,0,0,0,0,0,0,0,0,0,0,0,0,0,0,0,0,0,0,1,,,0,0,0,0,0,0,0,0,0,0,0,0,0,0,0,0,0,0
1777535004.9449966,365760,1777535001.461074,1777535001.4367754,,0,0,25.299072265625,,0,0,0,0,0,0,1,0,0,0.0,0.0,0.0,0.0,0.0,0.0,0.0,0.0,0.0,0.0,0.0,0.0,0.0,0.0,0.0,0.0,0.0,0.0,0.0,0.0,0.0,0.0,0.0,0.0,0.0,0.0,0.0,38.91296815274588,639.1973784033261,848.8317198320831,115.53885594470026,600.4911003706119,862.0863039487359,-45.93627374029825,442.44787051426886,937.5868294783344,33.04182251568922,414.836226278576,949.8417847135486,-130.57724825590583,597.4054016164505,708.0955470735565,-85.4031261929381,600.9508099493783,413.69351435067193,-115.5622085837301,532.6745821138179,195.87959672382365,-89.93682144422017,477.8995955455446,70.85227855512422,-49.65187043530311,400.4732157005304,46.647821648723806,-5.44894172526402,669.0568647286934,53.45246295116253,209.00238063678643,445.97968560825007,733.6359595564004,218.6532533618163,415.8920515925385,440.0725769202561,211.0513934318353,317.74937373011676,263.3129784883684,182.85238840338323,285.53219476100406,105.46252221194533,113.5604900718316,236.5137404320714,83.80847133574683,218.38696416932493,476.6150622883714,60.0308677488786,0,1,0,1777535001.435775,25.299072265625,-2.2012,8.6755,-3.5554,-7.1411,5.7983,4.3945,111.9122,13.1451,-4.9548,0.8196,0.0996,0.0707,0.5597,0,1,0,1777535001.435775,25.299072265625,-0.134,9.4124,-1.9188,3.7231,2.3804,2.4414,101.6235,1.4886,-30.9924,0.7446,0.215,-0.1591,0.6115,0,1,0,1777535001.435775,25.299072265625,-1.3733,9.2114,-2.6366,-2.3193,-2.9907,0.8545,106.4191,7.1906,-25.4993,0.7713,0.213,-0.0829,0.5941,0,1,0,1777535001.435775,25.299072265625,-1.0958,0.5981,9.9292,-0.9766,-0.1221,0.061,4.01,6.5259,-121.4374,-0.0325,0.0583,-0.8693,0.4897,0,1,0,1777535001.4367754,24.298667907714844,-1.4547,8.9195,-2.2634,1.9531,-3.8452,8.2397,104.5569,10.1569,-58.623,0.6605,0.4329,-0.2373,0.5657,0,1,0,1777535001.435775,25.299072265625,-0.3637,8.4267,-3.9813,7.3853,7.3853,4.6387,117.0264,5.8502,177.984,0.0416,-0.851,0.5223,-0.0343,0,1,0,1777535001.4367754,24.298667907714844,3.2013,2.6749,11.4126,-53.2227,-28.8696,-32.0435,22.3956,-6.7072,155.2478,-0.0145,-0.2017,0.9541,0.221,0,0,0,1,,,0,0,0,0,0,0,0,0,0,0,0,0,0,0,0,0,0,0,0,0,0,1,,,0,0,0,0,0,0,0,0,0,0,0,0,0,0,0,0,0,0
1777535004.9449966,365761,1777535001.4715838,1777535001.4367754,,0,0,35.80880165100098,,0,0,0,0,0,0,1,0,0,0.0,0.0,0.0,0.0,0.0,0.0,0.0,0.0,0.0,0.0,0.0,0.0,0.0,0.0,0.0,0.0,0.0,0.0,0.0,0.0,0.0,0.0,0.0,0.0,0.0,0.0,0.0,39.021862191449074,638.9233953943763,848.9146513081449,115.6839612880631,600.2966361859923,862.072433764913,-45.5359986307461,442.0504301321011,937.5258010856217,33.37755986870153,414.45858853989796,949.6367379589085,-130.44064570089517,597.198262801462,708.1788442729911,-85.40039204132447,600.7860567930986,413.789918953424,-115.59321132948486,532.646304004902,195.92563581623352,-89.94393810267442,477.9011213150985,70.84092639853144,-49.64794149871741,400.4974007071952,46.65132175201577,-5.457325910532385,669.0605881987584,53.43175273888825,208.88726058588537,446.1448656655508,733.1304379687309,218.21470943518284,416.93363542482456,439.5301012435477,210.46960298468443,319.5251493223178,262.13229524142105,182.10325435218775,288.12090351577575,104.28644291610202,112.74539897515656,239.55916350206766,81.96594709367665,218.48952278158478,479.33666709626397,60.420033963254504,0,1,0,1777535001.435775,35.80880165100098,-2.2012,8.6755,-3.5554,-7.1411,5.7983,4.3945,111.9122,13.1451,-4.9548,0.8196,0.0996,0.0707,0.5597,0,1,0,1777535001.435775,35.80880165100098,-0.134,9.4124,-1.9188,3.7231,2.3804,2.4414,101.6235,1.4886,-30.9924,0.7446,0.215,-0.1591,0.6115,0,1,0,1777535001.435775,35.80880165100098,-1.3733,9.2114,-2.6366,-2.3193,-2.9907,0.8545,106.4191,7.1906,-25.4993,0.7713,0.213,-0.0829,0.5941,0,1,0,1777535001.435775,35.80880165100098,-1.0958,0.5981,9.9292,-0.9766,-0.1221,0.061,4.01,6.5259,-121.4374,-0.0325,0.0583,-0.8693,0.4897,0,1,0,1777535001.4367754,34.80839729309082,-1.4547,8.9195,-2.2634,1.9531,-3.8452,8.2397,104.5569,10.1569,-58.623,0.6605,0.4329,-0.2373,0.5657,0,1,0,1777535001.435775,35.80880165100098,-0.3637,8.4267,-3.9813,7.3853,7.3853,4.6387,117.0264,5.8502,177.984,0.0416,-0.851,0.5223,-0.0343,0,1,0,1777535001.4367754,34.80839729309082,3.2013,2.6749,11.4126,-53.2227,-28.8696,-32.0435,22.3956,-6.7072,155.2478,-0.0145,-0.2017,0.9541,0.221,0,0,0,1,,,0,0,0,0,0,0,0,0,0,0,0,0,0,0,0,0,0,0,0,0,0,1,,,0,0,0,0,0,0,0,0,0,0,0,0,0,0,0,0,0,0
1777535004.9459934,365762,1777535001.481583,1777535001.4367754,,0,0,45.80807685852051,,0,0,0,0,0,0,1,0,0,0.0,0.0,0.0,0.0,0.0,0.0,0.0,0.0,0.0,0.0,0.0,0.0,0.0,0.0,0.0,0.0,0.0,0.0,0.0,0.0,0.0,0.0,0.0,0.0,0.0,0.0,0.0,39.144600901776215,638.7050696904427,849.0068811042405,115.83644404300965,600.0743042690856,862.0655673246562,-45.29535417153572,441.63027126252774,937.3059164279649,33.511906766554034,414.06423514383624,949.271091543912,-130.377281995384,597.0504710085853,708.2849192304325,-85.44000763966261,600.6248445386768,413.8567850811601,-115.62490605753038,532.628303105137,195.95621900228073,-89.98972404506753,477.9118197656466,70.86389356381169,-49.66011498795421,400.54399418875676,46.68972126199581,-5.429650304962462,669.0731528707952,53.4213926028804,208.93747560462552,446.2812665056331,732.7578038790883,217.8771860529286,418.0297712810392,438.9461489687106,209.9239996435266,321.45677428721916,261.0514715434549,181.3119930789988,290.8102017138317,103.07761482812967,112.12436422213118,242.7008741177399,80.35926716752313,218.50366170017847,482.2686581111957,60.970854805178924,0,1,0,1777535001.435775,45.80807685852051,-2.2012,8.6755,-3.5554,-7.1411,5.7983,4.3945,111.9122,13.1451,-4.9548,0.8196,0.0996,0.0707,0.5597,0,1,0,1777535001.435775,45.80807685852051,-0.134,9.4124,-1.9188,3.7231,2.3804,2.4414,101.6235,1.4886,-30.9924,0.7446,0.215,-0.1591,0.6115,0,1,0,1777535001.435775,45.80807685852051,-1.3733,9.2114,-2.6366,-2.3193,-2.9907,0.8545,106.4191,7.1906,-25.4993,0.7713,0.213,-0.0829,0.5941,0,1,0,1777535001.435775,45.80807685852051,-1.0958,0.5981,9.9292,-0.9766,-0.1221,0.061,4.01,6.5259,-121.4374,-0.0325,0.0583,-0.8693,0.4897,0,1,0,1777535001.4367754,44.80767250061035,-1.4547,8.9195,-2.2634,1.9531,-3.8452,8.2397,104.5569,10.1569,-58.623,0.6605,0.4329,-0.2373,0.5657,0,1,0,1777535001.435775,45.80807685852051,-0.3637,8.4267,-3.9813,7.3853,7.3853,4.6387,117.0264,5.8502,177.984,0.0416,-0.851,0.5223,-0.0343,0,1,0,1777535001.4367754,44.80767250061035,3.2013,2.6749,11.4126,-53.2227,-28.8696,-32.0435,22.3956,-6.7072,155.2478,-0.0145,-0.2017,0.9541,0.221,0,0,0,1,,,0,0,0,0,0,0,0,0,0,0,0,0,0,0,0,0,0,0,0,0,0,1,,,0,0,0,0,0,0,0,0,0,0,0,0,0,0,0,0,0,0
1777535004.9459934,365763,1777535001.491587,1777535001.4367754,,0,0,55.81188201904297,,0,0,0,0,0,0,1,0,0,0.0,0.0,0.0,0.0,0.0,0.0,0.0,0.0,0.0,0.0,0.0,0.0,0.0,0.0,0.0,0.0,0.0,0.0,0.0,0.0,0.0,0.0,0.0,0.0,0.0,0.0,0.0,39.244944587182594,638.3997698293916,849.1248269322512,115.98435065114568,599.8235843166206,862.0478850683086,-45.1344581756242,441.169999521892,937.1533513716386,33.92052181331429,413.5412944276985,949.068931442448,-130.2553647020579,596.804884780262,708.4179814822542,-85.49068008603837,600.4604074574916,413.9473786917229,-115.66417905959904,532.6316213214443,196.01180520897785,-90.05489029043633,477.9396311886331,70.86432073799268,-49.66615979823414,400.54549746343673,46.678509377621566,-5.250392466232374,669.0616372932652,53.280697864723734,209.0086060881702,446.49071152112936,732.3785885877028,217.46543915561418,419.1361627008532,438.281784547925,209.42591809348565,323.5108162319749,260.0456171669271,180.7096730945663,293.6264121388687,101.94421129683332,111.28042170731845,245.8735662863427,78.5150944587198,218.51794408644267,485.367543588941,61.517839687511994,0,1,0,1777535001.435775,55.81188201904297,-2.2012,8.6755,-3.5554,-7.1411,5.7983,4.3945,111.9122,13.1451,-4.9548,0.8196,0.0996,0.0707,0.5597,0,1,0,1777535001.435775,55.81188201904297,-0.134,9.4124,-1.9188,3.7231,2.3804,2.4414,101.6235,1.4886,-30.9924,0.7446,0.215,-0.1591,0.6115,0,1,0,1777535001.435775,55.81188201904297,-1.3733,9.2114,-2.6366,-2.3193,-2.9907,0.8545,106.4191,7.1906,-25.4993,0.7713,0.213,-0.0829,0.5941,0,1,0,1777535001.435775,55.81188201904297,-1.0958,0.5981,9.9292,-0.9766,-0.1221,0.061,4.01,6.5259,-121.4374,-0.0325,0.0583,-0.8693,0.4897,0,1,0,1777535001.4367754,54.81147766113281,-1.4547,8.9195,-2.2634,1.9531,-3.8452,8.2397,104.5569,10.1569,-58.623,0.6605,0.4329,-0.2373,0.5657,0,1,0,1777535001.435775,55.81188201904297,-0.3637,8.4267,-3.9813,7.3853,7.3853,4.6387,117.0264,5.8502,177.984,0.0416,-0.851,0.5223,-0.0343,0,1,0,1777535001.4367754,54.81147766113281,3.2013,2.6749,11.4126,-53.2227,-28.8696,-32.0435,22.3956,-6.7072,155.2478,-0.0145,-0.2017,0.9541,0.221,0,0,0,1,,,0,0,0,0,0,0,0,0,0,0,0,0,0,0,0,0,0,0,0,0,0,1,,,0,0,0,0,0,0,0,0,0,0,0,0,0,0,0,0,0,0
1777535004.9469953,365764,1777535001.5010855,1777535001.4367754,,0,0,65.31047821044922,,0,0,0,0,0,0,1,0,0,0.0,0.0,0.0,0.0,0.0,0.0,0.0,0.0,0.0,0.0,0.0,0.0,0.0,0.0,0.0,0.0,0.0,0.0,0.0,0.0,0.0,0.0,0.0,0.0,0.0,0.0,0.0,39.36181674625006,638.1289083056233,849.2727306454843,116.15313171799883,599.5634789358413,862.0748346492048,-44.83442527617534,440.6859338282738,937.062333431587,34.17748580256558,413.2138980375225,948.8638121456338,-130.14630843310633,596.55908663815,708.4908913599558,-85.46549473568807,600.1888593317353,414.0545187966949,-115.73612689085769,532.6343897500993,196.07932697698246,-90.10360823881533,477.9323237340715,70.82930229693191,-49.67993528105024,400.55866279881394,46.70585907603094,-5.268527046885685,669.1018751314273,53.247692226771896,209.2150399080039,446.7332032731392,732.0010862698234,217.13930574801543,420.36133482334805,437.72504635656827,208.9238880128018,325.6061081979224,258.8720675813597,180.11117795375426,296.58013256357475,100.75639184201084,110.667989453941,249.18392940461328,76.77430154774342,218.40898328802535,488.5966328388509,62.07481609311596,0,1,0,1777535001.435775,65.31047821044922,-2.2012,8.6755,-3.5554,-7.1411,5.7983,4.3945,111.9122,13.1451,-4.9548,0.8196,0.0996,0.0707,0.5597,0,1,0,1777535001.435775,65.31047821044922,-0.134,9.4124,-1.9188,3.7231,2.3804,2.4414,101.6235,1.4886,-30.9924,0.7446,0.215,-0.1591,0.6115,0,1,0,1777535001.435775,65.31047821044922,-1.3733,9.2114,-2.6366,-2.3193,-2.9907,0.8545,106.4191,7.1906,-25.4993,0.7713,0.213,-0.0829,0.5941,0,1,0,1777535001.435775,65.31047821044922,-1.0958,0.5981,9.9292,-0.9766,-0.1221,0.061,4.01,6.5259,-121.4374,-0.0325,0.0583,-0.8693,0.4897,0,1,0,1777535001.4367754,64.31007385253906,-1.4547,8.9195,-2.2634,1.9531,-3.8452,8.2397,104.5569,10.1569,-58.623,0.6605,0.4329,-0.2373,0.5657,0,1,0,1777535001.435775,65.31047821044922,-0.3637,8.4267,-3.9813,7.3853,7.3853,4.6387,117.0264,5.8502,177.984,0.0416,-0.851,0.5223,-0.0343,0,1,0,1777535001.4367754,64.31007385253906,3.2013,2.6749,11.4126,-53.2227,-28.8696,-32.0435,22.3956,-6.7072,155.2478,-0.0145,-0.2017,0.9541,0.221,0,0,0,1,,,0,0,0,0,0,0,0,0,0,0,0,0,0,0,0,0,0,0,0,0,0,1,,,0,0,0,0,0,0,0,0,0,0,0,0,0,0,0,0,0,0
