Recv_Timestamp,Device_Name,Acc_X,Acc_Y,Acc_Z,Gyro_X,Gyro_Y,Gyro_Z,Roll,Pitch,Yaw,Quat_x,Quat_y,Quat_z,Quat_w
1777283876.2041402,Trunk,0.0,0.0,0.0,0.0,0.0,0.0,0.0,0.0,0.0,0.0,0.0,0.0,1.0
1777283876.2041402,L_Femur,2.115,-6.7806,-6.527,0.3662,-0.4883,-0.1221,-133.9453,-12.6892,-137.3236,-0.2926,-0.8677,-0.3251,0.2362
1777283876.2041402,L_Tibia,0.0,0.0,0.0,0.0,0.0,0.0,0.0,0.0,0.0,0.0,0.0,0.0,1.0
1777283876.2041402,L_Foot,0.0,0.0,0.0,0.0,0.0,0.0,0.0,0.0,0.0,0.0,0.0,0.0,1.0
1777283876.2041402,R_Femur,0.0,0.0,0.0,0.0,0.0,0.0,0.0,0.0,0.0,0.0,0.0,0.0,1.0
1777283876.2041402,R_Tibia,0.0,0.0,0.0,0.0,0.0,0.0,0.0,0.0,0.0,0.0,0.0,0.0,1.0
1777283876.2041402,R_Foot,0.0,0.0,0.0,0.0,0.0,0.0,0.0,0.0,0.0,0.0,0.0,0.0,1.0
1777283876.2051406,Trunk,0.0,0.0,0.0,0.0,0.0,0.0,0.0,0.0,0.0,0.0,0.0,0.0,1.0
1777283876.2051406,L_Femur,2.115,-6.7806,-6.527,0.3662,-0.4883,-0.1221,-133.9453,-12.6892,-137.3236,-0.2926,-0.8677,-0.3251,0.2362
1777283876.2051406,L_Tibia,2.0528,-0.9905,9.6708,-0.2441,-0.2441,0.4883,-5.8337,-11.9312,147.2717,-0.1139,0.0193,0.9545,0.2748
1777283876.2051406,L_Foot,0.0,0.0,0.0,0.0,0.0,0.0,0.0,0.0,0.0,0.0,0.0,0.0,1.0
1777283876.2051406,R_Femur,0.0,0.0,0.0,0.0,0.0,0.0,0.0,0.0,0.0,0.0,0.0,0.0,1.0
1777283876.2051406,R_Tibia,0.0,0.0,0.0,0.0,0.0,0.0,0.0,0.0,0.0,0.0,0.0,0.0,1.0
1777283876.2051406,R_Foot,0.0,0.0,0.0,0.0,0.0,0.0,0.0,0.0,0.0,0.0,0.0,0.0,1.0
1777283876.2051406,Trunk,0.0,0.0,0.0,0.0,0.0,0.0,0.0,0.0,0.0,0.0,0.0,0.0,1.0
1777283876.2051406,L_Femur,2.115,-6.7806,-6.527,0.3662,-0.4883,-0.1221,-133.9453,-12.6892,-137.3236,-0.2926,-0.8677,-0.3251,0.2362
1777283876.2051406,L_Tibia,2.0528,-0.9905,9.6708,-0.2441,-0.2441,0.4883,-5.8337,-11.9312,147.2717,-0.1139,0.0193,0.9545,0.2748
1777283876.2051406,L_Foot,0.445,-0.7704,-9.4459,-0.6714,-0.3052,0.3052,-175.3143,-2.6752,-110.8136,-0.5663,-0.8228,-0.0204,0.0424
1777283876.2051406,R_Femur,0.0,0.0,0.0,0.0,0.0,0.0,0.0,0.0,0.0,0.0,0.0,0.0,1.0
1777283876.2051406,R_Tibia,0.0,0.0,0.0,0.0,0.0,0.0,0.0,0.0,0.0,0.0,0.0,0.0,1.0
1777283876.2051406,R_Foot,0.0,0.0,0.0,0.0,0.0,0.0,0.0,0.0,0.0,0.0,0.0,0.0,1.0
1777283876.2051406,Trunk,0.0,0.0,0.0,0.0,0.0,0.0,0.0,0.0,0.0,0.0,0.0,0.0,1.0
1777283876.2051406,L_Femur,2.115,-6.7806,-6.527,0.3662,-0.4883,-0.1221,-133.9453,-12.6892,-137.3236,-0.2926,-0.8677,-0.3251,0.2362
1777283876.2051406,L_Tibia,2.0528,-0.9905,9.6708,-0.2441,-0.2441,0.4883,-5.8337,-11.9312,147.2717,-0.1139,0.0193,0.9545,0.2748
1777283876.2051406,L_Foot,0.445,-0.7704,-9.4459,-0.6714,-0.3052,0.3052,-175.3143,-2.6752,-110.8136,-0.5663,-0.8228,-0.0204,0.0424
1777283876.2051406,R_Femur,-2.5313,8.7186,3.6654,0.6104,-0.5493,-0.6104,67.2253,15.0183,-157.8021,-0.0011,0.5595,-0.7963,0.2299
1777283876.2051406,R_Tibia,0.0,0.0,0.0,0.0,0.0,0.0,0.0,0.0,0.0,0.0,0.0,0.0,1.0
1777283876.2051406,R_Foot,0.0,0.0,0.0,0.0,0.0,0.0,0.0,0.0,0.0,0.0,0.0,0.0,1.0
1777283876.2051406,Trunk,0.0,0.0,0.0,0.0,0.0,0.0,0.0,0.0,0.0,0.0,0.0,0.0,1.0
1777283876.2051406,L_Femur,2.115,-6.7806,-6.527,0.3662,-0.4883,-0.1221,-133.9453,-12.6892,-137.3236,-0.2926,-0.8677,-0.3251,0.2362
1777283876.2051406,L_Tibia,2.0528,-0.9905,9.6708,-0.2441,-0.2441,0.4883,-5.8337,-11.9312,147.2717,-0.1139,0.0193,0.9545,0.2748
1777283876.2051406,L_Foot,0.445,-0.7704,-9.4459,-0.6714,-0.3052,0.3052,-175.3143,-2.6752,-110.8136,-0.5663,-0.8228,-0.0204,0.0424
1777283876.2051406,R_Femur,-2.5313,8.7186,3.6654,0.6104,-0.5493,-0.6104,67.2253,15.0183,-157.8021,-0.0011,0.5595,-0.7963,0.2299
1777283876.2051406,R_Tibia,6.6609,-6.9672,-1.225,0.1831,-0.1831,0.3662,-99.9536,-43.2806,158.8403,-0.3638,0.6562,0.6395,-0.1678
1777283876.2051406,R_Foot,0.0,0.0,0.0,0.0,0.0,0.0,0.0,0.0,0.0,0.0,0.0,0.0,1.0
1777283876.2061405,Trunk,-1.2633,6.2686,-7.1969,0.9766,-0.1221,-0.6104,138.9386,7.5531,35.6616,0.8966,-0.2641,0.1659,0.3143
1777283876.2061405,L_Femur,2.115,-6.7806,-6.527,0.3662,-0.4883,-0.1221,-133.9453,-12.6892,-137.3236,-0.2926,-0.8677,-0.3251,0.2362
1777283876.2061405,L_Tibia,2.0528,-0.9905,9.6708,-0.2441,-0.2441,0.4883,-5.8337,-11.9312,147.2717,-0.1139,0.0193,0.9545,0.2748
1777283876.2061405,L_Foot,0.445,-0.7704,-9.4459,-0.6714,-0.3052,0.3052,-175.3143,-2.6752,-110.8136,-0.5663,-0.8228,-0.0204,0.0424
1777283876.2061405,R_Femur,-2.5313,8.7186,3.6654,0.6104,-0.5493,-0.6104,67.2253,15.0183,-157.8021,-0.0011,0.5595,-0.7963,0.2299
1777283876.2061405,R_Tibia,6.6609,-6.9672,-1.225,0.1831,-0.1831,0.3662,-99.9536,-43.2806,158.8403,-0.3638,0.6562,0.6395,-0.1678
1777283876.2061405,R_Foot,0.0,0.0,0.0,0.0,0.0,0.0,0.0,0.0,0.0,0.0,0.0,0.0,1.0
1777283876.2061405,Trunk,-1.2633,6.2686,-7.1969,0.9766,-0.1221,-0.6104,138.9386,7.5531,35.6616,0.8966,-0.2641,0.1659,0.3143
1777283876.2061405,L_Femur,2.1198,-6.7854,-6.527,0.3052,-0.4883,-0.1831,-133.9453,-12.6892,-137.3236,-0.2926,-0.8677,-0.3251,0.2362
1777283876.2061405,L_Tibia,2.0528,-0.9905,9.6708,-0.2441,-0.2441,0.4883,-5.8337,-11.9312,147.2717,-0.1139,0.0193,0.9545,0.2748
1777283876.2061405,L_Foot,0.445,-0.7704,-9.4459,-0.6714,-0.3052,0.3052,-175.3143,-2.6752,-110.8136,-0.5663,-0.8228,-0.0204,0.0424
1777283876.2061405,R_Femur,-2.5313,8.7186,3.6654,0.6104,-0.5493,-0.6104,67.2253,15.0183,-157.8021,-0.0011,0.5595,-0.7963,0.2299
1777283876.2061405,R_Tibia,6.6609,-6.9672,-1.225,0.1831,-0.1831,0.3662,-99.9536,-43.2806,158.8403,-0.3638,0.6562,0.6395,-0.1678
1777283876.2061405,R_Foot,0.0,0.0,0.0,0.0,0.0,0.0,0.0,0.0,0.0,0.0,0.0,0.0,1.0
1777283876.2061405,Trunk,-1.2633,6.2686,-7.1969,0.9766,-0.1221,-0.6104,138.9386,7.5531,35.6616,0.8966,-0.2641,0.1659,0.3143
1777283876.2061405,L_Femur,2.1198,-6.7854,-6.527,0.3052,-0.4883,-0.1831,-133.9453,-12.6892,-137.3236,-0.2926,-0.8677,-0.3251,0.2362
1777283876.2061405,L_Tibia,2.0528,-0.9857,9.6708,-0.2441,-0.2441,0.4272,-5.8337,-11.9312,147.2717,-0.1139,0.0193,0.9545,0.2748
1777283876.2061405,L_Foot,0.445,-0.7704,-9.4459,-0.6714,-0.3052,0.3052,-175.3143,-2.6752,-110.8136,-0.5663,-0.8228,-0.0204,0.0424
1777283876.2061405,R_Femur,-2.5313,8.7186,3.6654,0.6104,-0.5493,-0.6104,67.2253,15.0183,-157.8021,-0.0011,0.5595,-0.7963,0.2299
1777283876.2061405,R_Tibia,6.6609,-6.9672,-1.225,0.1831,-0.1831,0.3662,-99.9536,-43.2806,158.8403,-0.3638,0.6562,0.6395,-0.1678
1777283876.2061405,R_Foot,0.0,0.0,0.0,0.0,0.0,0.0,0.0,0.0,0.0,0.0,0.0,0.0,1.0
1777283876.2061405,Trunk,-1.2633,6.2686,-7.1969,0.9766,-0.1221,-0.6104,138.9386,7.5531,35.6616,0.8966,-0.2641,0.1659,0.3143
1777283876.2061405,L_Femur,2.1198,-6.7854,-6.527,0.3052,-0.4883,-0.1831,-133.9453,-12.6892,-137.3236,-0.2926,-0.8677,-0.3251,0.2362
1777283876.2061405,L_Tibia,2.0528,-0.9857,9.6708,-0.2441,-0.2441,0.4272,-5.8337,-11.9312,147.2717,-0.1139,0.0193,0.9545,0.2748
1777283876.2061405,L_Foot,0.445,-0.7752,-9.4459,-0.6104,-0.3662,0.3052,-175.3143,-2.6752,-110.8136,-0.5663,-0.8228,-0.0204,0.0424
1777283876.2061405,R_Femur,-2.5313,8.7186,3.6654,0.6104,-0.5493,-0.6104,67.2253,15.0183,-157.8021,-0.0011,0.5595,-0.7963,0.2299
1777283876.2061405,R_Tibia,6.6609,-6.9672,-1.225,0.1831,-0.1831,0.3662,-99.9536,-43.2806,158.8403,-0.3638,0.6562,0.6395,-0.1678
1777283876.2061405,R_Foot,0.0,0.0,0.0,0.0,0.0,0.0,0.0,0.0,0.0,0.0,0.0,0.0,1.0
1777283876.2061405,Trunk,-1.2633,6.2686,-7.1969,0.9766,-0.1221,-0.6104,138.9386,7.5531,35.6616,0.8966,-0.2641,0.1659,0.3143
1777283876.2061405,L_Femur,2.1198,-6.7854,-6.527,0.3052,-0.4883,-0.1831,-133.9453,-12.6892,-137.3236,-0.2926,-0.8677,-0.3251,0.2362
1777283876.2061405,L_Tibia,2.0528,-0.9857,9.6708,-0.2441,-0.2441,0.4272,-5.8337,-11.9312,147.2717,-0.1139,0.0193,0.9545,0.2748
1777283876.2061405,L_Foot,0.445,-0.7752,-9.4459,-0.6104,-0.3662,0.3052,-175.3143,-2.6752,-110.8136,-0.5663,-0.8228,-0.0204,0.0424
1777283876.2061405,R_Femur,-2.5409,8.7233,3.6559,0.5493,-0.6104,-0.6104,67.2253,15.0183,-157.8021,-0.0011,0.5595,-0.7963,0.2299
1777283876.2061405,R_Tibia,6.6609,-6.9672,-1.225,0.1831,-0.1831,0.3662,-99.9536,-43.2806,158.8403,-0.3638,0.6562,0.6395,-0.1678
1777283876.2061405,R_Foot,0.0,0.0,0.0,0.0,0.0,0.0,0.0,0.0,0.0,0.0,0.0,0.0,1.0
1777283876.2070997,Trunk,-1.2633,6.2686,-7.1969,0.9766,-0.1221,-0.6104,138.9386,7.5531,35.6616,0.8966,-0.2641,0.1659,0.3143
1777283876.2070997,L_Femur,2.1198,-6.7854,-6.527,0.3052,-0.4883,-0.1831,-133.9453,-12.6892,-137.3236,-0.2926,-0.8677,-0.3251,0.2362
1777283876.2070997,L_Tibia,2.0528,-0.9857,9.6708,-0.2441,-0.2441,0.4272,-5.8337,-11.9312,147.2717,-0.1139,0.0193,0.9545,0.2748
1777283876.2070997,L_Foot,0.445,-0.7752,-9.4459,-0.6104,-0.3662,0.3052,-175.3143,-2.6752,-110.8136,-0.5663,-0.8228,-0.0204,0.0424
1777283876.2070997,R_Femur,-2.5409,8.7233,3.6559,0.5493,-0.6104,-0.6104,67.2253,15.0183,-157.8021,-0.0011,0.5595,-0.7963,0.2299
1777283876.2070997,R_Tibia,6.6609,-6.9672,-1.225,0.1831,-0.1831,0.3662,-99.9536,-43.2806,158.8403,-0.3638,0.6562,0.6395,-0.1678
1777283876.2070997,R_Foot,-9.5368,-0.0239,-1.9667,0.4272,0.0,-0.061,-179.2365,78.3545,66.0992,-0.6475,0.4263,-0.5267,0.3488
1777283876.2070997,Trunk,-1.2824,6.2733,-7.1969,1.0376,-0.061,-0.5493,138.9386,7.5531,35.6616,0.8966,-0.2641,0.1659,0.3143
1777283876.2070997,L_Femur,2.1198,-6.7854,-6.527,0.3052,-0.4883,-0.1831,-133.9453,-12.6892,-137.3236,-0.2926,-0.8677,-0.3251,0.2362
1777283876.2070997,L_Tibia,2.0528,-0.9857,9.6708,-0.2441,-0.2441,0.4272,-5.8337,-11.9312,147.2717,-0.1139,0.0193,0.9545,0.2748
1777283876.2070997,L_Foot,0.445,-0.7752,-9.4459,-0.6104,-0.3662,0.3052,-175.3143,-2.6752,-110.8136,-0.5663,-0.8228,-0.0204,0.0424
1777283876.2070997,R_Femur,-2.5409,8.7233,3.6559,0.5493,-0.6104,-0.6104,67.2253,15.0183,-157.8021,-0.0011,0.5595,-0.7963,0.2299
1777283876.2070997,R_Tibia,6.6609,-6.9672,-1.225,0.1831,-0.1831,0.3662,-99.9536,-43.2806,158.8403,-0.3638,0.6562,0.6395,-0.1678
1777283876.2070997,R_Foot,-9.5368,-0.0239,-1.9667,0.4272,0.0,-0.061,-179.2365,78.3545,66.0992,-0.6475,0.4263,-0.5267,0.3488
1777283876.2070997,Trunk,-1.2824,6.2733,-7.1969,1.0376,-0.061,-0.5493,138.9386,7.5531,35.6616,0.8966,-0.2641,0.1659,0.3143
1777283876.2070997,L_Femur,2.115,-6.7854,-6.5317,0.3052,-0.4883,-0.1221,-133.9453,-12.6892,-137.3236,-0.2926,-0.8677,-0.3251,0.2362
1777283876.2070997,L_Tibia,2.0528,-0.9857,9.6708,-0.2441,-0.2441,0.4272,-5.8337,-11.9312,147.2717,-0.1139,0.0193,0.9545,0.2748
1777283876.2070997,L_Foot,0.445,-0.7752,-9.4459,-0.6104,-0.3662,0.3052,-175.3143,-2.6752,-110.8136,-0.5663,-0.8228,-0.0204,0.0424
1777283876.2070997,R_Femur,-2.5409,8.7233,3.6559,0.5493,-0.6104,-0.6104,67.2253,15.0183,-157.8021,-0.0011,0.5595,-0.7963,0.2299
1777283876.2070997,R_Tibia,6.6609,-6.9672,-1.225,0.1831,-0.1831,0.3662,-99.9536,-43.2806,158.8403,-0.3638,0.6562,0.6395,-0.1678
1777283876.2070997,R_Foot,-9.5368,-0.0239,-1.9667,0.4272,0.0,-0.061,-179.2365,78.3545,66.0992,-0.6475,0.4263,-0.5267,0.3488
1777283876.2070997,Trunk,-1.2824,6.2733,-7.1969,1.0376,-0.061,-0.5493,138.9386,7.5531,35.6616,0.8966,-0.2641,0.1659,0.3143
1777283876.2070997,L_Femur,2.115,-6.7854,-6.5317,0.3052,-0.4883,-0.1221,-133.9453,-12.6892,-137.3236,-0.2926,-0.8677,-0.3251,0.2362
1777283876.2070997,L_Tibia,2.0528,-0.9857,9.6708,-0.2441,-0.2441,0.4272,-5.8337,-11.9312,147.2717,-0.1139,0.0193,0.9545,0.2748
1777283876.2070997,L_Foot,0.445,-0.7752,-9.4459,-0.6714,-0.3662,0.3052,-175.3143,-2.6752,-110.8136,-0.5663,-0.8228,-0.0204,0.0424
1777283876.2070997,R_Femur,-2.5409,8.7233,3.6559,0.5493,-0.6104,-0.6104,67.2253,15.0183,-157.8021,-0.0011,0.5595,-0.7963,0.2299
1777283876.2070997,R_Tibia,6.6609,-6.9672,-1.225,0.1831,-0.1831,0.3662,-99.9536,-43.2806,158.8403,-0.3638,0.6562,0.6395,-0.1678
1777283876.2070997,R_Foot,-9.5368,-0.0239,-1.9667,0.4272,0.0,-0.061,-179.2365,78.3545,66.0992,-0.6475,0.4263,-0.5267,0.3488
1777283876.208042,Trunk,-1.2824,6.2733,-7.1969,1.0376,-0.061,-0.5493,138.9386,7.5531,35.6616,0.8966,-0.2641,0.1659,0.3143
1777283876.208042,L_Femur,2.115,-6.7854,-6.5317,0.3052,-0.4883,-0.1221,-133.9453,-12.6892,-137.3236,-0.2926,-0.8677,-0.3251,0.2362
1777283876.208042,L_Tibia,2.0528,-0.9857,9.6708,-0.2441,-0.2441,0.4272,-5.8337,-11.9312,147.2717,-0.1139,0.0193,0.9545,0.2748
1777283876.208042,L_Foot,0.445,-0.7752,-9.4459,-0.6714,-0.3662,0.3052,-175.3143,-2.6752,-110.8136,-0.5663,-0.8228,-0.0204,0.0424
1777283876.208042,R_Femur,-2.5409,8.7186,3.6559,0.5493,-0.4883,-0.6104,67.2253,15.0183,-157.7966,-0.0011,0.5595,-0.7963,0.23
1777283876.208042,R_Tibia,6.6609,-6.9672,-1.225,0.1831,-0.1831,0.3662,-99.9536,-43.2806,158.8403,-0.3638,0.6562,0.6395,-0.1678
1777283876.208042,R_Foot,-9.5368,-0.0239,-1.9667,0.4272,0.0,-0.061,-179.2365,78.3545,66.0992,-0.6475,0.4263,-0.5267,0.3488
1777283876.208042,Trunk,-1.2824,6.2733,-7.1969,1.0376,-0.061,-0.5493,138.9386,7.5531,35.6616,0.8966,-0.2641,0.1659,0.3143
1777283876.208042,L_Femur,2.115,-6.7854,-6.5317,0.3052,-0.4883,-0.1221,-133.9453,-12.6892,-137.3236,-0.2926,-0.8677,-0.3251,0.2362
1777283876.208042,L_Tibia,2.0528,-0.9857,9.6708,-0.2441,-0.2441,0.4272,-5.8337,-11.9312,147.2717,-0.1139,0.0193,0.9545,0.2748
1777283876.208042,L_Foot,0.445,-0.7752,-9.4459,-0.6714,-0.3662,0.3052,-175.3143,-2.6752,-110.8136,-0.5663,-0.8228,-0.0204,0.0424
1777283876.208042,R_Femur,-2.5409,8.7186,3.6559,0.5493,-0.4883,-0.6104,67.2253,15.0183,-157.7966,-0.0011,0.5595,-0.7963,0.23
1777283876.208042,R_Tibia,6.6609,-6.972,-1.2298,0.1831,-0.1831,0.4272,-99.9536,-43.2806,158.8403,-0.3638,0.6562,0.6395,-0.1678
1777283876.208042,R_Foot,-9.5368,-0.0239,-1.9667,0.4272,0.0,-0.061,-179.2365,78.3545,66.0992,-0.6475,0.4263,-0.5267,0.3488
1777283876.2560513,Trunk,-1.292,6.2733,-7.1969,0.9155,0.0,-0.5493,138.9386,7.5531,35.6616,0.8966,-0.2641,0.1659,0.3143
1777283876.2560513,L_Femur,2.115,-6.7854,-6.5317,0.3052,-0.4883,-0.1221,-133.9453,-12.6892,-137.3236,-0.2926,-0.8677,-0.3251,0.2362
1777283876.2560513,L_Tibia,2.0528,-0.9857,9.6708,-0.2441,-0.2441,0.4272,-5.8337,-11.9312,147.2717,-0.1139,0.0193,0.9545,0.2748
1777283876.2560513,L_Foot,0.445,-0.7752,-9.4459,-0.6714,-0.3662,0.3052,-175.3143,-2.6752,-110.8136,-0.5663,-0.8228,-0.0204,0.0424
1777283876.2560513,R_Femur,-2.5409,8.7186,3.6559,0.5493,-0.4883,-0.6104,67.2253,15.0183,-157.7966,-0.0011,0.5595,-0.7963,0.23
1777283876.2560513,R_Tibia,6.6609,-6.972,-1.2298,0.1831,-0.1831,0.4272,-99.9536,-43.2806,158.8403,-0.3638,0.6562,0.6395,-0.1678
1777283876.2560513,R_Foot,-9.5368,-0.0239,-1.9667,0.4272,0.0,-0.061,-179.2365,78.3545,66.0992,-0.6475,0.4263,-0.5267,0.3488
1777283876.2566366,Trunk,-1.292,6.2733,-7.1969,0.9155,0.0,-0.5493,138.9386,7.5531,35.6616,0.8966,-0.2641,0.1659,0.3143
1777283876.2566366,L_Femur,2.115,-6.7758,-6.527,0.3052,-0.4883,-0.1221,-133.9453,-12.6892,-137.3236,-0.2926,-0.8677,-0.3251,0.2362
1777283876.2566366,L_Tibia,2.0528,-0.9857,9.6708,-0.2441,-0.2441,0.4272,-5.8337,-11.9312,147.2717,-0.1139,0.0193,0.9545,0.2748
1777283876.2566366,L_Foot,0.445,-0.7752,-9.4459,-0.6714,-0.3662,0.3052,-175.3143,-2.6752,-110.8136,-0.5663,-0.8228,-0.0204,0.0424
1777283876.2566366,R_Femur,-2.5409,8.7186,3.6559,0.5493,-0.4883,-0.6104,67.2253,15.0183,-157.7966,-0.0011,0.5595,-0.7963,0.23
1777283876.2566366,R_Tibia,6.6609,-6.972,-1.2298,0.1831,-0.1831,0.4272,-99.9536,-43.2806,158.8403,-0.3638,0.6562,0.6395,-0.1678
1777283876.2566366,R_Foot,-9.5368,-0.0239,-1.9667,0.4272,0.0,-0.061,-179.2365,78.3545,66.0992,-0.6475,0.4263,-0.5267,0.3488
1777283876.2566366,Trunk,-1.292,6.2733,-7.1969,0.9155,0.0,-0.5493,138.9386,7.5531,35.6616,0.8966,-0.2641,0.1659,0.3143
1777283876.2566366,L_Femur,2.115,-6.7758,-6.527,0.3052,-0.4883,-0.1221,-133.9453,-12.6892,-137.3236,-0.2926,-0.8677,-0.3251,0.2362
1777283876.2566366,L_Tibia,2.0528,-0.981,9.6708,-0.2441,-0.2441,0.5493,-5.8337,-11.9312,147.2717,-0.1139,0.0193,0.9545,0.2748
1777283876.2566366,L_Foot,0.445,-0.7752,-9.4459,-0.6714,-0.3662,0.3052,-175.3143,-2.6752,-110.8136,-0.5663,-0.8228,-0.0204,0.0424
1777283876.2566366,R_Femur,-2.5409,8.7186,3.6559,0.5493,-0.4883,-0.6104,67.2253,15.0183,-157.7966,-0.0011,0.5595,-0.7963,0.23
1777283876.2566366,R_Tibia,6.6609,-6.972,-1.2298,0.1831,-0.1831,0.4272,-99.9536,-43.2806,158.8403,-0.3638,0.6562,0.6395,-0.1678
1777283876.2566366,R_Foot,-9.5368,-0.0239,-1.9667,0.4272,0.0,-0.061,-179.2365,78.3545,66.0992,-0.6475,0.4263,-0.5267,0.3488
1777283876.2566366,Trunk,-1.292,6.2733,-7.1969,0.9155,0.0,-0.5493,138.9386,7.5531,35.6616,0.8966,-0.2641,0.1659,0.3143
1777283876.2566366,L_Femur,2.115,-6.7758,-6.527,0.3052,-0.4883,-0.1221,-133.9453,-12.6892,-137.3236,-0.2926,-0.8677,-0.3251,0.2362
1777283876.2566366,L_Tibia,2.0528,-0.981,9.6708,-0.2441,-0.2441,0.5493,-5.8337,-11.9312,147.2717,-0.1139,0.0193,0.9545,0.2748
1777283876.2566366,L_Foot,0.445,-0.7752,-9.4507,-0.6104,-0.3662,0.3052,-175.3143,-2.6752,-110.8136,-0.5663,-0.8228,-0.0204,0.0424
1777283876.2566366,R_Femur,-2.5409,8.7186,3.6559,0.5493,-0.4883,-0.6104,67.2253,15.0183,-157.7966,-0.0011,0.5595,-0.7963,0.23
1777283876.2566366,R_Tibia,6.6609,-6.972,-1.2298,0.1831,-0.1831,0.4272,-99.9536,-43.2806,158.8403,-0.3638,0.6562,0.6395,-0.1678
1777283876.2566366,R_Foot,-9.5368,-0.0239,-1.9667,0.4272,0.0,-0.061,-179.2365,78.3545,66.0992,-0.6475,0.4263,-0.5267,0.3488
1777283876.2566366,Trunk,-1.292,6.2733,-7.1969,0.9155,0.0,-0.5493,138.9386,7.5531,35.6616,0.8966,-0.2641,0.1659,0.3143
1777283876.2566366,L_Femur,2.115,-6.7758,-6.527,0.3052,-0.4883,-0.1221,-133.9453,-12.6892,-137.3236,-0.2926,-0.8677,-0.3251,0.2362
1777283876.2566366,L_Tibia,2.0528,-0.981,9.6708,-0.2441,-0.2441,0.5493,-5.8337,-11.9312,147.2717,-0.1139,0.0193,0.9545,0.2748
1777283876.2566366,L_Foot,0.445,-0.7752,-9.4507,-0.6104,-0.3662,0.3052,-175.3143,-2.6752,-110.8136,-0.5663,-0.8228,-0.0204,0.0424
1777283876.2566366,R_Femur,-2.5409,8.7186,3.6606,0.6104,-0.4883,-0.5493,67.2253,15.0183,-157.7966,-0.0011,0.5595,-0.7963,0.23
1777283876.2566366,R_Tibia,6.6609,-6.972,-1.2298,0.1831,-0.1831,0.4272,-99.9536,-43.2806,158.8403,-0.3638,0.6562,0.6395,-0.1678
1777283876.2566366,R_Foot,-9.5368,-0.0239,-1.9667,0.4272,0.0,-0.061,-179.2365,78.3545,66.0992,-0.6475,0.4263,-0.5267,0.3488
1777283876.2566366,Trunk,-1.292,6.2638,-7.1921,0.9766,-0.061,-0.6104,138.9386,7.5531,35.6616,0.8966,-0.2641,0.1659,0.3143
1777283876.2566366,L_Femur,2.115,-6.7758,-6.527,0.3052,-0.4883,-0.1221,-133.9453,-12.6892,-137.3236,-0.2926,-0.8677,-0.3251,0.2362
1777283876.2566366,L_Tibia,2.0528,-0.981,9.6708,-0.2441,-0.2441,0.5493,-5.8337,-11.9312,147.2717,-0.1139,0.0193,0.9545,0.2748
1777283876.2566366,L_Foot,0.445,-0.7752,-9.4507,-0.6104,-0.3662,0.3052,-175.3143,-2.6752,-110.8136,-0.5663,-0.8228,-0.0204,0.0424
1777283876.2566366,R_Femur,-2.5409,8.7186,3.6606,0.6104,-0.4883,-0.5493,67.2253,15.0183,-157.7966,-0.0011,0.5595,-0.7963,0.23
1777283876.2566366,R_Tibia,6.6609,-6.972,-1.2298,0.1831,-0.1831,0.4272,-99.9536,-43.2806,158.8403,-0.3638,0.6562,0.6395,-0.1678
1777283876.2566366,R_Foot,-9.5368,-0.0239,-1.9667,0.4272,0.0,-0.061,-179.2365,78.3545,66.0992,-0.6475,0.4263,-0.5267,0.3488
1777283876.2581413,Trunk,-1.292,6.2638,-7.1921,0.9766,-0.061,-0.6104,138.9386,7.5531,35.6616,0.8966,-0.2641,0.1659,0.3143
1777283876.2581413,L_Femur,2.115,-6.7806,-6.527,0.3052,-0.4272,-0.061,-133.9453,-12.6892,-137.3236,-0.2926,-0.8677,-0.3251,0.2362
1777283876.2581413,L_Tibia,2.0528,-0.981,9.6708,-0.2441,-0.2441,0.5493,-5.8337,-11.9312,147.2717,-0.1139,0.0193,0.9545,0.2748
1777283876.2581413,L_Foot,0.445,-0.7752,-9.4507,-0.6104,-0.3662,0.3052,-175.3143,-2.6752,-110.8136,-0.5663,-0.8228,-0.0204,0.0424
1777283876.2581413,R_Femur,-2.5409,8.7186,3.6606,0.6104,-0.4883,-0.5493,67.2253,15.0183,-157.7966,-0.0011,0.5595,-0.7963,0.23
1777283876.2581413,R_Tibia,6.6609,-6.972,-1.2298,0.1831,-0.1831,0.4272,-99.9536,-43.2806,158.8403,-0.3638,0.6562,0.6395,-0.1678
1777283876.2581413,R_Foot,-9.5368,-0.0239,-1.9667,0.4272,0.0,-0.061,-179.2365,78.3545,66.0992,-0.6475,0.4263,-0.5267,0.3488
1777283876.2581413,Trunk,-1.292,6.2638,-7.1921,0.9766,-0.061,-0.6104,138.9386,7.5531,35.6616,0.8966,-0.2641,0.1659,0.3143
1777283876.2581413,L_Femur,2.115,-6.7806,-6.527,0.3052,-0.4272,-0.061,-133.9453,-12.6892,-137.3236,-0.2926,-0.8677,-0.3251,0.2362
1777283876.2581413,L_Tibia,2.0576,-0.9857,9.6708,-0.2441,-0.2441,0.4883,-5.8337,-11.9312,147.2717,-0.1139,0.0193,0.9545,0.2748
1777283876.2581413,L_Foot,0.445,-0.7752,-9.4507,-0.6104,-0.3662,0.3052,-175.3143,-2.6752,-110.8136,-0.5663,-0.8228,-0.0204,0.0424
1777283876.2581413,R_Femur,-2.5409,8.7186,3.6606,0.6104,-0.4883,-0.5493,67.2253,15.0183,-157.7966,-0.0011,0.5595,-0.7963,0.23
1777283876.2581413,R_Tibia,6.6609,-6.972,-1.2298,0.1831,-0.1831,0.4272,-99.9536,-43.2806,158.8403,-0.3638,0.6562,0.6395,-0.1678
1777283876.2581413,R_Foot,-9.5368,-0.0239,-1.9667,0.4272,0.0,-0.061,-179.2365,78.3545,66.0992,-0.6475,0.4263,-0.5267,0.3488
1777283876.2581413,Trunk,-1.292,6.2638,-7.1921,0.9766,-0.061,-0.6104,138.9386,7.5531,35.6616,0.8966,-0.2641,0.1659,0.3143
1777283876.2581413,L_Femur,2.115,-6.7806,-6.527,0.3052,-0.4272,-0.061,-133.9453,-12.6892,-137.3236,-0.2926,-0.8677,-0.3251,0.2362
1777283876.2581413,L_Tibia,2.0576,-0.9857,9.6708,-0.2441,-0.2441,0.4883,-5.8337,-11.9312,147.2717,-0.1139,0.0193,0.9545,0.2748
1777283876.2581413,L_Foot,0.4402,-0.7704,-9.4459,-0.6104,-0.3052,0.3052,-175.3143,-2.6752,-110.8081,-0.5664,-0.8228,-0.0204,0.0424
1777283876.2581413,R_Femur,-2.5409,8.7186,3.6606,0.6104,-0.4883,-0.5493,67.2253,15.0183,-157.7966,-0.0011,0.5595,-0.7963,0.23
1777283876.2581413,R_Tibia,6.6609,-6.972,-1.2298,0.1831,-0.1831,0.4272,-99.9536,-43.2806,158.8403,-0.3638,0.6562,0.6395,-0.1678
1777283876.2581413,R_Foot,-9.5368,-0.0239,-1.9667,0.4272,0.0,-0.061,-179.2365,78.3545,66.0992,-0.6475,0.4263,-0.5267,0.3488
1777283876.2581413,Trunk,-1.292,6.2638,-7.1921,0.9766,-0.061,-0.6104,138.9386,7.5531,35.6616,0.8966,-0.2641,0.1659,0.3143
1777283876.2581413,L_Femur,2.115,-6.7806,-6.527,0.3052,-0.4272,-0.061,-133.9453,-12.6892,-137.3236,-0.2926,-0.8677,-0.3251,0.2362
1777283876.2581413,L_Tibia,2.0576,-0.9857,9.6708,-0.2441,-0.2441,0.4883,-5.8337,-11.9312,147.2717,-0.1139,0.0193,0.9545,0.2748
1777283876.2581413,L_Foot,0.4402,-0.7704,-9.4459,-0.6104,-0.3052,0.3052,-175.3143,-2.6752,-110.8081,-0.5664,-0.8228,-0.0204,0.0424
1777283876.2581413,R_Femur,-2.5409,8.7186,3.6606,0.5493,-0.5493,-0.6104,67.2253,15.0183,-157.7966,-0.0011,0.5595,-0.7963,0.23
1777283876.2581413,R_Tibia,6.6609,-6.972,-1.2298,0.1831,-0.1831,0.4272,-99.9536,-43.2806,158.8403,-0.3638,0.6562,0.6395,-0.1678
1777283876.2581413,R_Foot,-9.5368,-0.0239,-1.9667,0.4272,0.0,-0.061,-179.2365,78.3545,66.0992,-0.6475,0.4263,-0.5267,0.3488
1777283876.2591472,Trunk,-1.292,6.2638,-7.1921,0.9766,-0.061,-0.6104,138.9386,7.5531,35.6616,0.8966,-0.2641,0.1659,0.3143
1777283876.2591472,L_Femur,2.115,-6.7806,-6.527,0.3052,-0.4272,-0.061,-133.9453,-12.6892,-137.3236,-0.2926,-0.8677,-0.3251,0.2362
1777283876.2591472,L_Tibia,2.0576,-0.9857,9.6708,-0.2441,-0.2441,0.4883,-5.8337,-11.9312,147.2717,-0.1139,0.0193,0.9545,0.2748
1777283876.2591472,L_Foot,0.4402,-0.7704,-9.4459,-0.6104,-0.3052,0.3052,-175.3143,-2.6752,-110.8081,-0.5664,-0.8228,-0.0204,0.0424
1777283876.2591472,R_Femur,-2.5409,8.7186,3.6606,0.5493,-0.5493,-0.6104,67.2253,15.0183,-157.7966,-0.0011,0.5595,-0.7963,0.23
1777283876.2591472,R_Tibia,6.6657,-6.972,-1.225,0.1831,-0.1831,0.3662,-99.9536,-43.2806,158.8403,-0.3638,0.6562,0.6395,-0.1678
1777283876.2591472,R_Foot,-9.5368,-0.0239,-1.9667,0.4272,0.0,-0.061,-179.2365,78.3545,66.0992,-0.6475,0.4263,-0.5267,0.3488
1777283876.2591472,Trunk,-1.2681,6.2686,-7.1969,0.9155,-0.061,-0.6104,138.9386,7.5531,35.6671,0.8966,-0.2642,0.1659,0.3142
1777283876.2591472,L_Femur,2.115,-6.7806,-6.527,0.3052,-0.4272,-0.061,-133.9453,-12.6892,-137.3236,-0.2926,-0.8677,-0.3251,0.2362
1777283876.2591472,L_Tibia,2.0576,-0.9857,9.6708,-0.2441,-0.2441,0.4883,-5.8337,-11.9312,147.2717,-0.1139,0.0193,0.9545,0.2748
1777283876.2591472,L_Foot,0.4402,-0.7704,-9.4459,-0.6104,-0.3052,0.3052,-175.3143,-2.6752,-110.8081,-0.5664,-0.8228,-0.0204,0.0424
1777283876.2591472,R_Femur,-2.5409,8.7186,3.6606,0.5493,-0.5493,-0.6104,67.2253,15.0183,-157.7966,-0.0011,0.5595,-0.7963,0.23
1777283876.2591472,R_Tibia,6.6657,-6.972,-1.225,0.1831,-0.1831,0.3662,-99.9536,-43.2806,158.8403,-0.3638,0.6562,0.6395,-0.1678
1777283876.2591472,R_Foot,-9.5368,-0.0239,-1.9667,0.4272,0.0,-0.061,-179.2365,78.3545,66.0992,-0.6475,0.4263,-0.5267,0.3488
1777283876.2591472,Trunk,-1.2681,6.2686,-7.1969,0.9155,-0.061,-0.6104,138.9386,7.5531,35.6671,0.8966,-0.2642,0.1659,0.3142
1777283876.2591472,L_Femur,2.115,-6.7806,-6.5365,0.3052,-0.4883,-0.1221,-133.9453,-12.6892,-137.3236,-0.2926,-0.8677,-0.3251,0.2362
1777283876.2591472,L_Tibia,2.0576,-0.9857,9.6708,-0.2441,-0.2441,0.4883,-5.8337,-11.9312,147.2717,-0.1139,0.0193,0.9545,0.2748
1777283876.2591472,L_Foot,0.4402,-0.7704,-9.4459,-0.6104,-0.3052,0.3052,-175.3143,-2.6752,-110.8081,-0.5664,-0.8228,-0.0204,0.0424
1777283876.2591472,R_Femur,-2.5409,8.7186,3.6606,0.5493,-0.5493,-0.6104,67.2253,15.0183,-157.7966,-0.0011,0.5595,-0.7963,0.23
1777283876.2591472,R_Tibia,6.6657,-6.972,-1.225,0.1831,-0.1831,0.3662,-99.9536,-43.2806,158.8403,-0.3638,0.6562,0.6395,-0.1678
1777283876.2591472,R_Foot,-9.5368,-0.0239,-1.9667,0.4272,0.0,-0.061,-179.2365,78.3545,66.0992,-0.6475,0.4263,-0.5267,0.3488
1777283876.2591472,Trunk,-1.2681,6.2686,-7.1969,0.9155,-0.061,-0.6104,138.9386,7.5531,35.6671,0.8966,-0.2642,0.1659,0.3142
1777283876.2591472,L_Femur,2.115,-6.7806,-6.5365,0.3052,-0.4883,-0.1221,-133.9453,-12.6892,-137.3236,-0.2926,-0.8677,-0.3251,0.2362
1777283876.2591472,L_Tibia,2.0528,-0.9857,9.6708,-0.2441,-0.2441,0.4272,-5.8337,-11.9312,147.2717,-0.1139,0.0193,0.9545,0.2748
1777283876.2591472,L_Foot,0.4402,-0.7704,-9.4459,-0.6104,-0.3052,0.3052,-175.3143,-2.6752,-110.8081,-0.5664,-0.8228,-0.0204,0.0424
1777283876.2591472,R_Femur,-2.5409,8.7186,3.6606,0.5493,-0.5493,-0.6104,67.2253,15.0183,-157.7966,-0.0011,0.5595,-0.7963,0.23
1777283876.2591472,R_Tibia,6.6657,-6.972,-1.225,0.1831,-0.1831,0.3662,-99.9536,-43.2806,158.8403,-0.3638,0.6562,0.6395,-0.1678
1777283876.2591472,R_Foot,-9.5368,-0.0239,-1.9667,0.4272,0.0,-0.061,-179.2365,78.3545,66.0992,-0.6475,0.4263,-0.5267,0.3488
1777283876.2591472,Trunk,-1.2681,6.2686,-7.1969,0.9155,-0.061,-0.6104,138.9386,7.5531,35.6671,0.8966,-0.2642,0.1659,0.3142
1777283876.2591472,L_Femur,2.115,-6.7806,-6.5365,0.3052,-0.4883,-0.1221,-133.9453,-12.6892,-137.3236,-0.2926,-0.8677,-0.3251,0.2362
1777283876.2591472,L_Tibia,2.0528,-0.9857,9.6708,-0.2441,-0.2441,0.4272,-5.8337,-11.9312,147.2717,-0.1139,0.0193,0.9545,0.2748
1777283876.2591472,L_Foot,0.445,-0.7704,-9.4459,-0.6104,-0.3052,0.3052,-175.3143,-2.6752,-110.8081,-0.5664,-0.8228,-0.0204,0.0424
1777283876.2591472,R_Femur,-2.5409,8.7186,3.6606,0.5493,-0.5493,-0.6104,67.2253,15.0183,-157.7966,-0.0011,0.5595,-0.7963,0.23
1777283876.2591472,R_Tibia,6.6657,-6.972,-1.225,0.1831,-0.1831,0.3662,-99.9536,-43.2806,158.8403,-0.3638,0.6562,0.6395,-0.1678
1777283876.2591472,R_Foot,-9.5368,-0.0239,-1.9667,0.4272,0.0,-0.061,-179.2365,78.3545,66.0992,-0.6475,0.4263,-0.5267,0.3488
1777283876.2601469,Trunk,-1.2681,6.2686,-7.1969,0.9155,-0.061,-0.6104,138.9386,7.5531,35.6671,0.8966,-0.2642,0.1659,0.3142
1777283876.2601469,L_Femur,2.115,-6.7806,-6.5365,0.3052,-0.4883,-0.1221,-133.9453,-12.6892,-137.3236,-0.2926,-0.8677,-0.3251,0.2362
1777283876.2601469,L_Tibia,2.0528,-0.9857,9.6708,-0.2441,-0.2441,0.4272,-5.8337,-11.9312,147.2717,-0.1139,0.0193,0.9545,0.2748
1777283876.2601469,L_Foot,0.445,-0.7704,-9.4459,-0.6104,-0.3052,0.3052,-175.3143,-2.6752,-110.8081,-0.5664,-0.8228,-0.0204,0.0424
1777283876.2601469,R_Femur,-2.5361,8.7186,3.6606,0.6104,-0.4883,-0.6104,67.2253,15.0183,-157.7966,-0.0011,0.5595,-0.7963,0.23
1777283876.2601469,R_Tibia,6.6657,-6.972,-1.225,0.1831,-0.1831,0.3662,-99.9536,-43.2806,158.8403,-0.3638,0.6562,0.6395,-0.1678
1777283876.2601469,R_Foot,-9.5368,-0.0239,-1.9667,0.4272,0.0,-0.061,-179.2365,78.3545,66.0992,-0.6475,0.4263,-0.5267,0.3488
1777283876.2601469,Trunk,-1.2681,6.2686,-7.1969,0.9155,-0.061,-0.6104,138.9386,7.5531,35.6671,0.8966,-0.2642,0.1659,0.3142
1777283876.2601469,L_Femur,2.115,-6.7806,-6.5365,0.3052,-0.4883,-0.1221,-133.9453,-12.6892,-137.3236,-0.2926,-0.8677,-0.3251,0.2362
1777283876.2601469,L_Tibia,2.0528,-0.9857,9.6708,-0.2441,-0.2441,0.4272,-5.8337,-11.9312,147.2717,-0.1139,0.0193,0.9545,0.2748
1777283876.2601469,L_Foot,0.445,-0.7704,-9.4459,-0.6104,-0.3052,0.3052,-175.3143,-2.6752,-110.8081,-0.5664,-0.8228,-0.0204,0.0424
1777283876.2601469,R_Femur,-2.5361,8.7186,3.6606,0.6104,-0.4883,-0.6104,67.2253,15.0183,-157.7966,-0.0011,0.5595,-0.7963,0.23
1777283876.2601469,R_Tibia,6.6657,-6.972,-1.225,0.1831,-0.1831,0.3662,-99.9536,-43.2806,158.8403,-0.3638,0.6562,0.6395,-0.1678
1777283876.2601469,R_Foot,-9.5368,-0.0287,-1.9667,0.4272,-0.061,0.0,-179.2365,78.3545,66.0938,-0.6475,0.4263,-0.5267,0.3488
1777283876.2601469,Trunk,-1.2537,6.2733,-7.1969,0.9155,-0.061,-0.6104,138.9386,7.5531,35.6671,0.8966,-0.2642,0.1659,0.3142
1777283876.2601469,L_Femur,2.115,-6.7806,-6.5365,0.3052,-0.4883,-0.1221,-133.9453,-12.6892,-137.3236,-0.2926,-0.8677,-0.3251,0.2362
1777283876.2601469,L_Tibia,2.0528,-0.9857,9.6708,-0.2441,-0.2441,0.4272,-5.8337,-11.9312,147.2717,-0.1139,0.0193,0.9545,0.2748
1777283876.2601469,L_Foot,0.445,-0.7704,-9.4459,-0.6104,-0.3052,0.3052,-175.3143,-2.6752,-110.8081,-0.5664,-0.8228,-0.0204,0.0424
1777283876.2601469,R_Femur,-2.5361,8.7186,3.6606,0.6104,-0.4883,-0.6104,67.2253,15.0183,-157.7966,-0.0011,0.5595,-0.7963,0.23
1777283876.2601469,R_Tibia,6.6657,-6.972,-1.225,0.1831,-0.1831,0.3662,-99.9536,-43.2806,158.8403,-0.3638,0.6562,0.6395,-0.1678
1777283876.2601469,R_Foot,-9.5368,-0.0287,-1.9667,0.4272,-0.061,0.0,-179.2365,78.3545,66.0938,-0.6475,0.4263,-0.5267,0.3488
1777283876.2601469,Trunk,-1.2537,6.2733,-7.1969,0.9155,-0.061,-0.6104,138.9386,7.5531,35.6671,0.8966,-0.2642,0.1659,0.3142
1777283876.2601469,L_Femur,2.1198,-6.7758,-6.5317,0.3052,-0.4883,-0.1221,-133.9453,-12.6892,-137.3236,-0.2926,-0.8677,-0.3251,0.2362
1777283876.2601469,L_Tibia,2.0528,-0.9857,9.6708,-0.2441,-0.2441,0.4272,-5.8337,-11.9312,147.2717,-0.1139,0.0193,0.9545,0.2748
1777283876.2601469,L_Foot,0.445,-0.7704,-9.4459,-0.6104,-0.3052,0.3052,-175.3143,-2.6752,-110.8081,-0.5664,-0.8228,-0.0204,0.0424
1777283876.2601469,R_Femur,-2.5361,8.7186,3.6606,0.6104,-0.4883,-0.6104,67.2253,15.0183,-157.7966,-0.0011,0.5595,-0.7963,0.23
1777283876.2601469,R_Tibia,6.6657,-6.972,-1.225,0.1831,-0.1831,0.3662,-99.9536,-43.2806,158.8403,-0.3638,0.6562,0.6395,-0.1678
1777283876.2601469,R_Foot,-9.5368,-0.0287,-1.9667,0.4272,-0.061,0.0,-179.2365,78.3545,66.0938,-0.6475,0.4263,-0.5267,0.3488
1777283876.2611501,Trunk,-1.2537,6.2733,-7.1969,0.9155,-0.061,-0.6104,138.9386,7.5531,35.6671,0.8966,-0.2642,0.1659,0.3142
1777283876.2611501,L_Femur,2.1198,-6.7758,-6.5317,0.3052,-0.4883,-0.1221,-133.9453,-12.6892,-137.3236,-0.2926,-0.8677,-0.3251,0.2362
1777283876.2611501,L_Tibia,2.0528,-0.9905,9.6756,-0.2441,-0.2441,0.5493,-5.8337,-11.9312,147.2717,-0.1139,0.0193,0.9545,0.2748
1777283876.2611501,L_Foot,0.445,-0.7704,-9.4459,-0.6104,-0.3052,0.3052,-175.3143,-2.6752,-110.8081,-0.5664,-0.8228,-0.0204,0.0424
1777283876.2611501,R_Femur,-2.5361,8.7186,3.6606,0.6104,-0.4883,-0.6104,67.2253,15.0183,-157.7966,-0.0011,0.5595,-0.7963,0.23
1777283876.2611501,R_Tibia,6.6657,-6.972,-1.225,0.1831,-0.1831,0.3662,-99.9536,-43.2806,158.8403,-0.3638,0.6562,0.6395,-0.1678
1777283876.2611501,R_Foot,-9.5368,-0.0287,-1.9667,0.4272,-0.061,0.0,-179.2365,78.3545,66.0938,-0.6475,0.4263,-0.5267,0.3488
1777283876.2611501,Trunk,-1.2537,6.2733,-7.1969,0.9155,-0.061,-0.6104,138.9386,7.5531,35.6671,0.8966,-0.2642,0.1659,0.3142
1777283876.2611501,L_Femur,2.1198,-6.7758,-6.5317,0.3052,-0.4883,-0.1221,-133.9453,-12.6892,-137.3236,-0.2926,-0.8677,-0.3251,0.2362
1777283876.2611501,L_Tibia,2.0528,-0.9905,9.6756,-0.2441,-0.2441,0.5493,-5.8337,-11.9312,147.2717,-0.1139,0.0193,0.9545,0.2748
1777283876.2611501,L_Foot,0.4498,-0.7752,-9.4459,-0.6714,-0.3052,0.3052,-175.3143,-2.6752,-110.8081,-0.5664,-0.8228,-0.0204,0.0424
1777283876.2611501,R_Femur,-2.5361,8.7186,3.6606,0.6104,-0.4883,-0.6104,67.2253,15.0183,-157.7966,-0.0011,0.5595,-0.7963,0.23
1777283876.2611501,R_Tibia,6.6657,-6.972,-1.225,0.1831,-0.1831,0.3662,-99.9536,-43.2806,158.8403,-0.3638,0.6562,0.6395,-0.1678
1777283876.2611501,R_Foot,-9.5368,-0.0287,-1.9667,0.4272,-0.061,0.0,-179.2365,78.3545,66.0938,-0.6475,0.4263,-0.5267,0.3488
1777283876.2611501,Trunk,-1.2537,6.2733,-7.1969,0.9155,-0.061,-0.6104,138.9386,7.5531,35.6671,0.8966,-0.2642,0.1659,0.3142
1777283876.2611501,L_Femur,2.1198,-6.7758,-6.5317,0.3052,-0.4883,-0.1221,-133.9453,-12.6892,-137.3236,-0.2926,-0.8677,-0.3251,0.2362
1777283876.2611501,L_Tibia,2.0528,-0.9905,9.6756,-0.2441,-0.2441,0.5493,-5.8337,-11.9312,147.2717,-0.1139,0.0193,0.9545,0.2748
1777283876.2611501,L_Foot,0.4498,-0.7752,-9.4459,-0.6714,-0.3052,0.3052,-175.3143,-2.6752,-110.8081,-0.5664,-0.8228,-0.0204,0.0424
1777283876.2611501,R_Femur,-2.5361,8.7186,3.6606,0.5493,-0.5493,-0.6104,67.2253,15.0183,-157.7966,-0.0011,0.5595,-0.7963,0.23
1777283876.2611501,R_Tibia,6.6657,-6.972,-1.225,0.1831,-0.1831,0.3662,-99.9536,-43.2806,158.8403,-0.3638,0.6562,0.6395,-0.1678
1777283876.2611501,R_Foot,-9.5368,-0.0287,-1.9667,0.4272,-0.061,0.0,-179.2365,78.3545,66.0938,-0.6475,0.4263,-0.5267,0.3488
1777283876.2611501,Trunk,-1.2537,6.2733,-7.1969,0.9155,-0.061,-0.6104,138.9386,7.5531,35.6671,0.8966,-0.2642,0.1659,0.3142
1777283876.2611501,L_Femur,2.1198,-6.7758,-6.5317,0.3052,-0.4883,-0.1221,-133.9453,-12.6892,-137.3236,-0.2926,-0.8677,-0.3251,0.2362
1777283876.2611501,L_Tibia,2.0528,-0.9905,9.6756,-0.2441,-0.2441,0.5493,-5.8337,-11.9312,147.2717,-0.1139,0.0193,0.9545,0.2748
1777283876.2611501,L_Foot,0.4498,-0.7752,-9.4459,-0.6714,-0.3052,0.3052,-175.3143,-2.6752,-110.8081,-0.5664,-0.8228,-0.0204,0.0424
1777283876.2611501,R_Femur,-2.5361,8.7186,3.6606,0.5493,-0.5493,-0.6104,67.2253,15.0183,-157.7966,-0.0011,0.5595,-0.7963,0.23
1777283876.2611501,R_Tibia,6.6609,-6.9624,-1.225,0.1831,-0.2441,0.4272,-99.9536,-43.2806,158.8403,-0.3638,0.6562,0.6395,-0.1678
1777283876.2611501,R_Foot,-9.5368,-0.0287,-1.9667,0.4272,-0.061,0.0,-179.2365,78.3545,66.0938,-0.6475,0.4263,-0.5267,0.3488
1777283876.2611501,Trunk,-1.2489,6.2733,-7.1969,1.0376,-0.1221,-0.6104,138.9386,7.5531,35.6671,0.8966,-0.2642,0.1659,0.3142
1777283876.2611501,L_Femur,2.1198,-6.7758,-6.5317,0.3052,-0.4883,-0.1221,-133.9453,-12.6892,-137.3236,-0.2926,-0.8677,-0.3251,0.2362
1777283876.2611501,L_Tibia,2.0528,-0.9905,9.6756,-0.2441,-0.2441,0.5493,-5.8337,-11.9312,147.2717,-0.1139,0.0193,0.9545,0.2748
1777283876.2611501,L_Foot,0.4498,-0.7752,-9.4459,-0.6714,-0.3052,0.3052,-175.3143,-2.6752,-110.8081,-0.5664,-0.8228,-0.0204,0.0424
1777283876.2611501,R_Femur,-2.5361,8.7186,3.6606,0.5493,-0.5493,-0.6104,67.2253,15.0183,-157.7966,-0.0011,0.5595,-0.7963,0.23
1777283876.2611501,R_Tibia,6.6609,-6.9624,-1.225,0.1831,-0.2441,0.4272,-99.9536,-43.2806,158.8403,-0.3638,0.6562,0.6395,-0.1678
1777283876.2611501,R_Foot,-9.5368,-0.0287,-1.9667,0.4272,-0.061,0.0,-179.2365,78.3545,66.0938,-0.6475,0.4263,-0.5267,0.3488
1777283876.2621467,Trunk,-1.2489,6.2733,-7.1969,1.0376,-0.1221,-0.6104,138.9386,7.5531,35.6671,0.8966,-0.2642,0.1659,0.3142
1777283876.2621467,L_Femur,2.1103,-6.7758,-6.5317,0.3052,-0.4883,-0.1221,-133.9453,-12.6892,-137.3181,-0.2926,-0.8677,-0.3251,0.2362
1777283876.2621467,L_Tibia,2.0528,-0.9905,9.6756,-0.2441,-0.2441,0.5493,-5.8337,-11.9312,147.2717,-0.1139,0.0193,0.9545,0.2748
1777283876.2621467,L_Foot,0.4498,-0.7752,-9.4459,-0.6714,-0.3052,0.3052,-175.3143,-2.6752,-110.8081,-0.5664,-0.8228,-0.0204,0.0424
1777283876.2621467,R_Femur,-2.5361,8.7186,3.6606,0.5493,-0.5493,-0.6104,67.2253,15.0183,-157.7966,-0.0011,0.5595,-0.7963,0.23
1777283876.2621467,R_Tibia,6.6609,-6.9624,-1.225,0.1831,-0.2441,0.4272,-99.9536,-43.2806,158.8403,-0.3638,0.6562,0.6395,-0.1678
1777283876.2621467,R_Foot,-9.5368,-0.0287,-1.9667,0.4272,-0.061,0.0,-179.2365,78.3545,66.0938,-0.6475,0.4263,-0.5267,0.3488
1777283876.2621467,Trunk,-1.2489,6.2733,-7.1969,1.0376,-0.1221,-0.6104,138.9386,7.5531,35.6671,0.8966,-0.2642,0.1659,0.3142
1777283876.2621467,L_Femur,2.1103,-6.7758,-6.5317,0.3052,-0.4883,-0.1221,-133.9453,-12.6892,-137.3181,-0.2926,-0.8677,-0.3251,0.2362
1777283876.2621467,L_Tibia,2.0576,-0.9905,9.6708,-0.2441,-0.2441,0.4883,-5.8337,-11.9312,147.2717,-0.1139,0.0193,0.9545,0.2748
1777283876.2621467,L_Foot,0.4498,-0.7752,-9.4459,-0.6714,-0.3052,0.3052,-175.3143,-2.6752,-110.8081,-0.5664,-0.8228,-0.0204,0.0424
1777283876.2621467,R_Femur,-2.5361,8.7186,3.6606,0.5493,-0.5493,-0.6104,67.2253,15.0183,-157.7966,-0.0011,0.5595,-0.7963,0.23
1777283876.2621467,R_Tibia,6.6609,-6.9624,-1.225,0.1831,-0.2441,0.4272,-99.9536,-43.2806,158.8403,-0.3638,0.6562,0.6395,-0.1678
1777283876.2621467,R_Foot,-9.5368,-0.0287,-1.9667,0.4272,-0.061,0.0,-179.2365,78.3545,66.0938,-0.6475,0.4263,-0.5267,0.3488
1777283876.2621467,Trunk,-1.2489,6.2733,-7.1969,1.0376,-0.1221,-0.6104,138.9386,7.5531,35.6671,0.8966,-0.2642,0.1659,0.3142
1777283876.2621467,L_Femur,2.1103,-6.7758,-6.5317,0.3052,-0.4883,-0.1221,-133.9453,-12.6892,-137.3181,-0.2926,-0.8677,-0.3251,0.2362
1777283876.2621467,L_Tibia,2.0576,-0.9905,9.6708,-0.2441,-0.2441,0.4883,-5.8337,-11.9312,147.2717,-0.1139,0.0193,0.9545,0.2748
1777283876.2621467,L_Foot,0.445,-0.7752,-9.4459,-0.6104,-0.3662,0.3052,-175.3143,-2.6752,-110.8081,-0.5664,-0.8228,-0.0204,0.0424
1777283876.2621467,R_Femur,-2.5361,8.7186,3.6606,0.5493,-0.5493,-0.6104,67.2253,15.0183,-157.7966,-0.0011,0.5595,-0.7963,0.23
1777283876.2621467,R_Tibia,6.6609,-6.9624,-1.225,0.1831,-0.2441,0.4272,-99.9536,-43.2806,158.8403,-0.3638,0.6562,0.6395,-0.1678
1777283876.2621467,R_Foot,-9.5368,-0.0287,-1.9667,0.4272,-0.061,0.0,-179.2365,78.3545,66.0938,-0.6475,0.4263,-0.5267,0.3488
1777283876.2621467,Trunk,-1.2489,6.2733,-7.1969,1.0376,-0.1221,-0.6104,138.9386,7.5531,35.6671,0.8966,-0.2642,0.1659,0.3142
1777283876.2621467,L_Femur,2.1103,-6.7758,-6.5317,0.3052,-0.4883,-0.1221,-133.9453,-12.6892,-137.3181,-0.2926,-0.8677,-0.3251,0.2362
1777283876.2621467,L_Tibia,2.0576,-0.9905,9.6708,-0.2441,-0.2441,0.4883,-5.8337,-11.9312,147.2717,-0.1139,0.0193,0.9545,0.2748
1777283876.2621467,L_Foot,0.445,-0.7752,-9.4459,-0.6104,-0.3662,0.3052,-175.3143,-2.6752,-110.8081,-0.5664,-0.8228,-0.0204,0.0424
1777283876.2621467,R_Femur,-2.5409,8.7233,3.6606,0.5493,-0.5493,-0.6104,67.2253,15.0183,-157.7966,-0.0011,0.5595,-0.7963,0.23
1777283876.2621467,R_Tibia,6.6609,-6.9624,-1.225,0.1831,-0.2441,0.4272,-99.9536,-43.2806,158.8403,-0.3638,0.6562,0.6395,-0.1678
1777283876.2621467,R_Foot,-9.5368,-0.0287,-1.9667,0.4272,-0.061,0.0,-179.2365,78.3545,66.0938,-0.6475,0.4263,-0.5267,0.3488
1777283876.263148,Trunk,-1.2489,6.2733,-7.1969,1.0376,-0.1221,-0.6104,138.9386,7.5531,35.6671,0.8966,-0.2642,0.1659,0.3142
1777283876.263148,L_Femur,2.1103,-6.7758,-6.5317,0.3052,-0.4883,-0.1221,-133.9453,-12.6892,-137.3181,-0.2926,-0.8677,-0.3251,0.2362
1777283876.263148,L_Tibia,2.0576,-0.9905,9.6708,-0.2441,-0.2441,0.4883,-5.8337,-11.9312,147.2717,-0.1139,0.0193,0.9545,0.2748
1777283876.263148,L_Foot,0.445,-0.7752,-9.4459,-0.6104,-0.3662,0.3052,-175.3143,-2.6752,-110.8081,-0.5664,-0.8228,-0.0204,0.0424
1777283876.263148,R_Femur,-2.5409,8.7233,3.6606,0.5493,-0.5493,-0.6104,67.2253,15.0183,-157.7966,-0.0011,0.5595,-0.7963,0.23
1777283876.263148,R_Tibia,6.6609,-6.9624,-1.225,0.1831,-0.2441,0.4272,-99.9536,-43.2806,158.8403,-0.3638,0.6562,0.6395,-0.1678
1777283876.263148,R_Foot,-9.532,-0.0287,-1.9619,0.4883,0.061,-0.061,-179.2365,78.3545,66.0938,-0.6475,0.4263,-0.5267,0.3488
1777283876.263148,Trunk,-1.2537,6.2733,-7.1969,0.9155,-0.061,-0.6104,138.9386,7.5531,35.6671,0.8966,-0.2642,0.1659,0.3142
1777283876.263148,L_Femur,2.1103,-6.7758,-6.5317,0.3052,-0.4883,-0.1221,-133.9453,-12.6892,-137.3181,-0.2926,-0.8677,-0.3251,0.2362
1777283876.263148,L_Tibia,2.0576,-0.9905,9.6708,-0.2441,-0.2441,0.4883,-5.8337,-11.9312,147.2717,-0.1139,0.0193,0.9545,0.2748
1777283876.263148,L_Foot,0.445,-0.7752,-9.4459,-0.6104,-0.3662,0.3052,-175.3143,-2.6752,-110.8081,-0.5664,-0.8228,-0.0204,0.0424
1777283876.263148,R_Femur,-2.5409,8.7233,3.6606,0.5493,-0.5493,-0.6104,67.2253,15.0183,-157.7966,-0.0011,0.5595,-0.7963,0.23
1777283876.263148,R_Tibia,6.6609,-6.9624,-1.225,0.1831,-0.2441,0.4272,-99.9536,-43.2806,158.8403,-0.3638,0.6562,0.6395,-0.1678
1777283876.263148,R_Foot,-9.532,-0.0287,-1.9619,0.4883,0.061,-0.061,-179.2365,78.3545,66.0938,-0.6475,0.4263,-0.5267,0.3488
1777283876.263148,Trunk,-1.2537,6.2733,-7.1969,0.9155,-0.061,-0.6104,138.9386,7.5531,35.6671,0.8966,-0.2642,0.1659,0.3142
1777283876.263148,L_Femur,2.115,-6.7806,-6.527,0.3052,-0.4883,-0.1221,-133.9453,-12.6892,-137.3181,-0.2926,-0.8677,-0.3251,0.2362
1777283876.263148,L_Tibia,2.0576,-0.9905,9.6708,-0.2441,-0.2441,0.4883,-5.8337,-11.9312,147.2717,-0.1139,0.0193,0.9545,0.2748
1777283876.263148,L_Foot,0.445,-0.7752,-9.4459,-0.6104,-0.3662,0.3052,-175.3143,-2.6752,-110.8081,-0.5664,-0.8228,-0.0204,0.0424
1777283876.263148,R_Femur,-2.5409,8.7233,3.6606,0.5493,-0.5493,-0.6104,67.2253,15.0183,-157.7966,-0.0011,0.5595,-0.7963,0.23
1777283876.263148,R_Tibia,6.6609,-6.9624,-1.225,0.1831,-0.2441,0.4272,-99.9536,-43.2806,158.8403,-0.3638,0.6562,0.6395,-0.1678
1777283876.263148,R_Foot,-9.532,-0.0287,-1.9619,0.4883,0.061,-0.061,-179.2365,78.3545,66.0938,-0.6475,0.4263,-0.5267,0.3488
1777283876.2641468,Trunk,-1.2537,6.2733,-7.1969,0.9155,-0.061,-0.6104,138.9386,7.5531,35.6671,0.8966,-0.2642,0.1659,0.3142
1777283876.2641468,L_Femur,2.115,-6.7806,-6.527,0.3052,-0.4883,-0.1221,-133.9453,-12.6892,-137.3181,-0.2926,-0.8677,-0.3251,0.2362
1777283876.2641468,L_Tibia,2.0528,-0.9905,9.666,-0.2441,-0.2441,0.5493,-5.8337,-11.9312,147.2717,-0.1139,0.0193,0.9545,0.2748
1777283876.2641468,L_Foot,0.445,-0.7752,-9.4459,-0.6104,-0.3662,0.3052,-175.3143,-2.6752,-110.8081,-0.5664,-0.8228,-0.0204,0.0424
1777283876.2641468,R_Femur,-2.5409,8.7233,3.6606,0.5493,-0.5493,-0.6104,67.2253,15.0183,-157.7966,-0.0011,0.5595,-0.7963,0.23
1777283876.2641468,R_Tibia,6.6609,-6.9624,-1.225,0.1831,-0.2441,0.4272,-99.9536,-43.2806,158.8403,-0.3638,0.6562,0.6395,-0.1678
1777283876.2641468,R_Foot,-9.532,-0.0287,-1.9619,0.4883,0.061,-0.061,-179.2365,78.3545,66.0938,-0.6475,0.4263,-0.5267,0.3488
1777283876.2641468,Trunk,-1.2537,6.2733,-7.1969,0.9155,-0.061,-0.6104,138.9386,7.5531,35.6671,0.8966,-0.2642,0.1659,0.3142
1777283876.2641468,L_Femur,2.115,-6.7806,-6.527,0.3052,-0.4883,-0.1221,-133.9453,-12.6892,-137.3181,-0.2926,-0.8677,-0.3251,0.2362
1777283876.2641468,L_Tibia,2.0528,-0.9905,9.666,-0.2441,-0.2441,0.5493,-5.8337,-11.9312,147.2717,-0.1139,0.0193,0.9545,0.2748
1777283876.2641468,L_Foot,0.445,-0.7752,-9.4459,-0.6104,-0.3052,0.3052,-175.3143,-2.6752,-110.8081,-0.5664,-0.8228,-0.0204,0.0424
1777283876.2641468,R_Femur,-2.5409,8.7233,3.6606,0.5493,-0.5493,-0.6104,67.2253,15.0183,-157.7966,-0.0011,0.5595,-0.7963,0.23
1777283876.2641468,R_Tibia,6.6609,-6.9624,-1.225,0.1831,-0.2441,0.4272,-99.9536,-43.2806,158.8403,-0.3638,0.6562,0.6395,-0.1678
1777283876.2641468,R_Foot,-9.532,-0.0287,-1.9619,0.4883,0.061,-0.061,-179.2365,78.3545,66.0938,-0.6475,0.4263,-0.5267,0.3488
1777283876.2651477,Trunk,-1.2537,6.2733,-7.1969,0.9155,-0.061,-0.6104,138.9386,7.5531,35.6671,0.8966,-0.2642,0.1659,0.3142
1777283876.2651477,L_Femur,2.115,-6.7806,-6.527,0.3052,-0.4883,-0.1221,-133.9453,-12.6892,-137.3181,-0.2926,-0.8677,-0.3251,0.2362
1777283876.2651477,L_Tibia,2.0528,-0.9905,9.666,-0.2441,-0.2441,0.5493,-5.8337,-11.9312,147.2717,-0.1139,0.0193,0.9545,0.2748
1777283876.2651477,L_Foot,0.445,-0.7752,-9.4459,-0.6104,-0.3052,0.3052,-175.3143,-2.6752,-110.8081,-0.5664,-0.8228,-0.0204,0.0424
1777283876.2651477,R_Femur,-2.5409,8.7186,3.6606,0.6104,-0.5493,-0.6104,67.2253,15.0183,-157.7966,-0.0011,0.5595,-0.7963,0.23
1777283876.2651477,R_Tibia,6.6609,-6.9624,-1.225,0.1831,-0.2441,0.4272,-99.9536,-43.2806,158.8403,-0.3638,0.6562,0.6395,-0.1678
1777283876.2651477,R_Foot,-9.532,-0.0287,-1.9619,0.4883,0.061,-0.061,-179.2365,78.3545,66.0938,-0.6475,0.4263,-0.5267,0.3488
1777283876.2651477,Trunk,-1.2537,6.2733,-7.1969,0.9155,-0.061,-0.6104,138.9386,7.5531,35.6671,0.8966,-0.2642,0.1659,0.3142
1777283876.2651477,L_Femur,2.115,-6.7806,-6.527,0.3052,-0.4883,-0.1221,-133.9453,-12.6892,-137.3181,-0.2926,-0.8677,-0.3251,0.2362
1777283876.2651477,L_Tibia,2.0528,-0.9905,9.666,-0.2441,-0.2441,0.5493,-5.8337,-11.9312,147.2717,-0.1139,0.0193,0.9545,0.2748
1777283876.2651477,L_Foot,0.445,-0.7752,-9.4459,-0.6104,-0.3052,0.3052,-175.3143,-2.6752,-110.8081,-0.5664,-0.8228,-0.0204,0.0424
1777283876.2651477,R_Femur,-2.5409,8.7186,3.6606,0.6104,-0.5493,-0.6104,67.2253,15.0183,-157.7966,-0.0011,0.5595,-0.7963,0.23
1777283876.2651477,R_Tibia,6.6562,-6.9672,-1.225,0.1221,-0.1831,0.3662,-99.9536,-43.2806,158.8403,-0.3638,0.6562,0.6395,-0.1678
1777283876.2651477,R_Foot,-9.532,-0.0287,-1.9619,0.4883,0.061,-0.061,-179.2365,78.3545,66.0938,-0.6475,0.4263,-0.5267,0.3488
1777283876.2651477,Trunk,-1.2681,6.2733,-7.1921,0.9766,-0.061,-0.6104,138.9386,7.5531,35.6671,0.8966,-0.2642,0.1659,0.3142
1777283876.2651477,L_Femur,2.115,-6.7806,-6.527,0.3052,-0.4883,-0.1221,-133.9453,-12.6892,-137.3181,-0.2926,-0.8677,-0.3251,0.2362
1777283876.2651477,L_Tibia,2.0528,-0.9905,9.666,-0.2441,-0.2441,0.5493,-5.8337,-11.9312,147.2717,-0.1139,0.0193,0.9545,0.2748
1777283876.2651477,L_Foot,0.445,-0.7752,-9.4459,-0.6104,-0.3052,0.3052,-175.3143,-2.6752,-110.8081,-0.5664,-0.8228,-0.0204,0.0424
1777283876.2651477,R_Femur,-2.5409,8.7186,3.6606,0.6104,-0.5493,-0.6104,67.2253,15.0183,-157.7966,-0.0011,0.5595,-0.7963,0.23
1777283876.2651477,R_Tibia,6.6562,-6.9672,-1.225,0.1221,-0.1831,0.3662,-99.9536,-43.2806,158.8403,-0.3638,0.6562,0.6395,-0.1678
1777283876.2651477,R_Foot,-9.532,-0.0287,-1.9619,0.4883,0.061,-0.061,-179.2365,78.3545,66.0938,-0.6475,0.4263,-0.5267,0.3488
1777283876.2651477,Trunk,-1.2681,6.2733,-7.1921,0.9766,-0.061,-0.6104,138.9386,7.5531,35.6671,0.8966,-0.2642,0.1659,0.3142
1777283876.2651477,L_Femur,2.115,-6.7854,-6.5317,0.3662,-0.4883,-0.1221,-133.9453,-12.6892,-137.3181,-0.2926,-0.8677,-0.3251,0.2362
1777283876.2651477,L_Tibia,2.0528,-0.9905,9.666,-0.2441,-0.2441,0.5493,-5.8337,-11.9312,147.2717,-0.1139,0.0193,0.9545,0.2748
1777283876.2651477,L_Foot,0.445,-0.7752,-9.4459,-0.6104,-0.3052,0.3052,-175.3143,-2.6752,-110.8081,-0.5664,-0.8228,-0.0204,0.0424
1777283876.2651477,R_Femur,-2.5409,8.7186,3.6606,0.6104,-0.5493,-0.6104,67.2253,15.0183,-157.7966,-0.0011,0.5595,-0.7963,0.23
1777283876.2651477,R_Tibia,6.6562,-6.9672,-1.225,0.1221,-0.1831,0.3662,-99.9536,-43.2806,158.8403,-0.3638,0.6562,0.6395,-0.1678
1777283876.2651477,R_Foot,-9.532,-0.0287,-1.9619,0.4883,0.061,-0.061,-179.2365,78.3545,66.0938,-0.6475,0.4263,-0.5267,0.3488
1777283876.2651477,Trunk,-1.2681,6.2733,-7.1921,0.9766,-0.061,-0.6104,138.9386,7.5531,35.6671,0.8966,-0.2642,0.1659,0.3142
1777283876.2651477,L_Femur,2.115,-6.7854,-6.5317,0.3662,-0.4883,-0.1221,-133.9453,-12.6892,-137.3181,-0.2926,-0.8677,-0.3251,0.2362
1777283876.2651477,L_Tibia,2.0528,-0.9953,9.666,-0.2441,-0.2441,0.4883,-5.8337,-11.9312,147.2717,-0.1139,0.0193,0.9545,0.2748
1777283876.2651477,L_Foot,0.445,-0.7752,-9.4459,-0.6104,-0.3052,0.3052,-175.3143,-2.6752,-110.8081,-0.5664,-0.8228,-0.0204,0.0424
1777283876.2651477,R_Femur,-2.5409,8.7186,3.6606,0.6104,-0.5493,-0.6104,67.2253,15.0183,-157.7966,-0.0011,0.5595,-0.7963,0.23
1777283876.2651477,R_Tibia,6.6562,-6.9672,-1.225,0.1221,-0.1831,0.3662,-99.9536,-43.2806,158.8403,-0.3638,0.6562,0.6395,-0.1678
1777283876.2651477,R_Foot,-9.532,-0.0287,-1.9619,0.4883,0.061,-0.061,-179.2365,78.3545,66.0938,-0.6475,0.4263,-0.5267,0.3488
1777283876.2661474,Trunk,-1.2681,6.2733,-7.1921,0.9766,-0.061,-0.6104,138.9386,7.5531,35.6671,0.8966,-0.2642,0.1659,0.3142
1777283876.2661474,L_Femur,2.115,-6.7854,-6.5317,0.3662,-0.4883,-0.1221,-133.9453,-12.6892,-137.3181,-0.2926,-0.8677,-0.3251,0.2362
1777283876.2661474,L_Tibia,2.0528,-0.9953,9.666,-0.2441,-0.2441,0.4883,-5.8337,-11.9312,147.2717,-0.1139,0.0193,0.9545,0.2748
1777283876.2661474,L_Foot,0.4402,-0.7752,-9.4411,-0.6104,-0.3662,0.3052,-175.3143,-2.6752,-110.8081,-0.5664,-0.8228,-0.0204,0.0424
1777283876.2661474,R_Femur,-2.5409,8.7186,3.6606,0.6104,-0.5493,-0.6104,67.2253,15.0183,-157.7966,-0.0011,0.5595,-0.7963,0.23
1777283876.2661474,R_Tibia,6.6562,-6.9672,-1.225,0.1221,-0.1831,0.3662,-99.9536,-43.2806,158.8403,-0.3638,0.6562,0.6395,-0.1678
1777283876.2661474,R_Foot,-9.532,-0.0287,-1.9619,0.4883,0.061,-0.061,-179.2365,78.3545,66.0938,-0.6475,0.4263,-0.5267,0.3488
1777283876.2661474,Trunk,-1.2681,6.2733,-7.1921,0.9766,-0.061,-0.6104,138.9386,7.5531,35.6671,0.8966,-0.2642,0.1659,0.3142
1777283876.2661474,L_Femur,2.115,-6.7854,-6.5317,0.3662,-0.4883,-0.1221,-133.9453,-12.6892,-137.3181,-0.2926,-0.8677,-0.3251,0.2362
1777283876.2661474,L_Tibia,2.0528,-0.9953,9.666,-0.2441,-0.2441,0.4883,-5.8337,-11.9312,147.2717,-0.1139,0.0193,0.9545,0.2748
1777283876.2661474,L_Foot,0.4402,-0.7752,-9.4411,-0.6104,-0.3662,0.3052,-175.3143,-2.6752,-110.8081,-0.5664,-0.8228,-0.0204,0.0424
1777283876.2661474,R_Femur,-2.5409,8.7186,3.6606,0.6104,-0.5493,-0.6104,67.2253,15.0183,-157.7966,-0.0011,0.5595,-0.7963,0.23
1777283876.2661474,R_Tibia,6.6562,-6.9672,-1.225,0.1221,-0.1831,0.3662,-99.9536,-43.2806,158.8403,-0.3638,0.6562,0.6395,-0.1678
1777283876.2661474,R_Foot,-9.532,-0.0239,-1.9619,0.4883,0.0,-0.061,-179.2365,78.3545,66.0883,-0.6475,0.4262,-0.5267,0.3488
1777283876.360598,Trunk,-1.2729,6.2733,-7.1921,0.9766,-0.1221,-0.5493,138.9386,7.5531,35.6671,0.8966,-0.2642,0.1659,0.3142
1777283876.360598,L_Femur,2.115,-6.7854,-6.5317,0.3662,-0.4883,-0.1221,-133.9453,-12.6892,-137.3181,-0.2926,-0.8677,-0.3251,0.2362
1777283876.360598,L_Tibia,2.0528,-0.9953,9.666,-0.2441,-0.2441,0.4883,-5.8337,-11.9312,147.2717,-0.1139,0.0193,0.9545,0.2748
1777283876.360598,L_Foot,0.4402,-0.7752,-9.4411,-0.6104,-0.3662,0.3052,-175.3143,-2.6752,-110.8081,-0.5664,-0.8228,-0.0204,0.0424
1777283876.360598,R_Femur,-2.5409,8.7186,3.6606,0.6104,-0.5493,-0.6104,67.2253,15.0183,-157.7966,-0.0011,0.5595,-0.7963,0.23
1777283876.360598,R_Tibia,6.6562,-6.9672,-1.225,0.1221,-0.1831,0.3662,-99.9536,-43.2806,158.8403,-0.3638,0.6562,0.6395,-0.1678
1777283876.360598,R_Foot,-9.532,-0.0239,-1.9619,0.4883,0.0,-0.061,-179.2365,78.3545,66.0883,-0.6475,0.4262,-0.5267,0.3488
1777283876.3615983,Trunk,-1.2729,6.2733,-7.1921,0.9766,-0.1221,-0.5493,138.9386,7.5531,35.6671,0.8966,-0.2642,0.1659,0.3142
1777283876.3615983,L_Femur,2.1246,-6.7806,-6.527,0.3052,-0.4883,-0.1221,-133.9453,-12.6892,-137.3181,-0.2926,-0.8677,-0.3251,0.2362
1777283876.3615983,L_Tibia,2.0528,-0.9953,9.666,-0.2441,-0.2441,0.4883,-5.8337,-11.9312,147.2717,-0.1139,0.0193,0.9545,0.2748
1777283876.3615983,L_Foot,0.4402,-0.7752,-9.4411,-0.6104,-0.3662,0.3052,-175.3143,-2.6752,-110.8081,-0.5664,-0.8228,-0.0204,0.0424
1777283876.3615983,R_Femur,-2.5409,8.7186,3.6606,0.6104,-0.5493,-0.6104,67.2253,15.0183,-157.7966,-0.0011,0.5595,-0.7963,0.23
1777283876.3615983,R_Tibia,6.6562,-6.9672,-1.225,0.1221,-0.1831,0.3662,-99.9536,-43.2806,158.8403,-0.3638,0.6562,0.6395,-0.1678
1777283876.3615983,R_Foot,-9.532,-0.0239,-1.9619,0.4883,0.0,-0.061,-179.2365,78.3545,66.0883,-0.6475,0.4262,-0.5267,0.3488
1777283876.3615983,Trunk,-1.2729,6.2733,-7.1921,0.9766,-0.1221,-0.5493,138.9386,7.5531,35.6671,0.8966,-0.2642,0.1659,0.3142
1777283876.3615983,L_Femur,2.1246,-6.7806,-6.527,0.3052,-0.4883,-0.1221,-133.9453,-12.6892,-137.3181,-0.2926,-0.8677,-0.3251,0.2362
1777283876.3615983,L_Tibia,2.0576,-0.9905,9.6708,-0.2441,-0.2441,0.4883,-5.8337,-11.9312,147.2717,-0.1139,0.0193,0.9545,0.2748
1777283876.3615983,L_Foot,0.4402,-0.7752,-9.4411,-0.6104,-0.3662,0.3052,-175.3143,-2.6752,-110.8081,-0.5664,-0.8228,-0.0204,0.0424
1777283876.3615983,R_Femur,-2.5409,8.7186,3.6606,0.6104,-0.5493,-0.6104,67.2253,15.0183,-157.7966,-0.0011,0.5595,-0.7963,0.23
1777283876.3615983,R_Tibia,6.6562,-6.9672,-1.225,0.1221,-0.1831,0.3662,-99.9536,-43.2806,158.8403,-0.3638,0.6562,0.6395,-0.1678
1777283876.3615983,R_Foot,-9.532,-0.0239,-1.9619,0.4883,0.0,-0.061,-179.2365,78.3545,66.0883,-0.6475,0.4262,-0.5267,0.3488
1777283876.3625975,Trunk,-1.2729,6.2733,-7.1921,0.9766,-0.1221,-0.5493,138.9386,7.5531,35.6671,0.8966,-0.2642,0.1659,0.3142
1777283876.3625975,L_Femur,2.1246,-6.7806,-6.527,0.3052,-0.4883,-0.1221,-133.9453,-12.6892,-137.3181,-0.2926,-0.8677,-0.3251,0.2362
1777283876.3625975,L_Tibia,2.0576,-0.9905,9.6708,-0.2441,-0.2441,0.4883,-5.8337,-11.9312,147.2717,-0.1139,0.0193,0.9545,0.2748
1777283876.3625975,L_Foot,0.4354,-0.7752,-9.4459,-0.6104,-0.3662,0.3052,-175.3143,-2.6752,-110.8081,-0.5664,-0.8228,-0.0204,0.0424
1777283876.3625975,R_Femur,-2.5409,8.7186,3.6606,0.6104,-0.5493,-0.6104,67.2253,15.0183,-157.7966,-0.0011,0.5595,-0.7963,0.23
1777283876.3625975,R_Tibia,6.6562,-6.9672,-1.225,0.1221,-0.1831,0.3662,-99.9536,-43.2806,158.8403,-0.3638,0.6562,0.6395,-0.1678
1777283876.3625975,R_Foot,-9.532,-0.0239,-1.9619,0.4883,0.0,-0.061,-179.2365,78.3545,66.0883,-0.6475,0.4262,-0.5267,0.3488
1777283876.3625975,Trunk,-1.2729,6.2733,-7.1921,0.9766,-0.1221,-0.5493,138.9386,7.5531,35.6671,0.8966,-0.2642,0.1659,0.3142
1777283876.3625975,L_Femur,2.1246,-6.7806,-6.527,0.3052,-0.4883,-0.1221,-133.9453,-12.6892,-137.3181,-0.2926,-0.8677,-0.3251,0.2362
1777283876.3625975,L_Tibia,2.0576,-0.9905,9.6708,-0.2441,-0.2441,0.4883,-5.8337,-11.9312,147.2717,-0.1139,0.0193,0.9545,0.2748
1777283876.3625975,L_Foot,0.4354,-0.7752,-9.4459,-0.6104,-0.3662,0.3052,-175.3143,-2.6752,-110.8081,-0.5664,-0.8228,-0.0204,0.0424
1777283876.3625975,R_Femur,-2.5361,8.7233,3.6606,0.5493,-0.4883,-0.6104,67.2253,15.0183,-157.7966,-0.0011,0.5595,-0.7963,0.23
1777283876.3625975,R_Tibia,6.6562,-6.9672,-1.225,0.1221,-0.1831,0.3662,-99.9536,-43.2806,158.8403,-0.3638,0.6562,0.6395,-0.1678
1777283876.3625975,R_Foot,-9.532,-0.0239,-1.9619,0.4883,0.0,-0.061,-179.2365,78.3545,66.0883,-0.6475,0.4262,-0.5267,0.3488
1777283876.3625975,Trunk,-1.2729,6.2733,-7.1921,0.9766,-0.1221,-0.5493,138.9386,7.5531,35.6671,0.8966,-0.2642,0.1659,0.3142
1777283876.3625975,L_Femur,2.1246,-6.7806,-6.527,0.3052,-0.4883,-0.1221,-133.9453,-12.6892,-137.3181,-0.2926,-0.8677,-0.3251,0.2362
1777283876.3625975,L_Tibia,2.0576,-0.9905,9.6708,-0.2441,-0.2441,0.4883,-5.8337,-11.9312,147.2717,-0.1139,0.0193,0.9545,0.2748
1777283876.3625975,L_Foot,0.4354,-0.7752,-9.4459,-0.6104,-0.3662,0.3052,-175.3143,-2.6752,-110.8081,-0.5664,-0.8228,-0.0204,0.0424
1777283876.3625975,R_Femur,-2.5361,8.7233,3.6606,0.5493,-0.4883,-0.6104,67.2253,15.0183,-157.7966,-0.0011,0.5595,-0.7963,0.23
1777283876.3625975,R_Tibia,6.6657,-6.9624,-1.225,0.1831,-0.1831,0.3662,-99.9536,-43.2806,158.8403,-0.3638,0.6562,0.6395,-0.1678
1777283876.3625975,R_Foot,-9.532,-0.0239,-1.9619,0.4883,0.0,-0.061,-179.2365,78.3545,66.0883,-0.6475,0.4262,-0.5267,0.3488
1777283876.3635986,Trunk,-1.2729,6.2781,-7.1921,0.9766,-0.061,-0.6104,138.9386,7.5531,35.6671,0.8966,-0.2642,0.1659,0.3142
1777283876.3635986,L_Femur,2.1246,-6.7806,-6.527,0.3052,-0.4883,-0.1221,-133.9453,-12.6892,-137.3181,-0.2926,-0.8677,-0.3251,0.2362
1777283876.3635986,L_Tibia,2.0576,-0.9905,9.6708,-0.2441,-0.2441,0.4883,-5.8337,-11.9312,147.2717,-0.1139,0.0193,0.9545,0.2748
1777283876.3635986,L_Foot,0.4354,-0.7752,-9.4459,-0.6104,-0.3662,0.3052,-175.3143,-2.6752,-110.8081,-0.5664,-0.8228,-0.0204,0.0424
1777283876.3635986,R_Femur,-2.5361,8.7233,3.6606,0.5493,-0.4883,-0.6104,67.2253,15.0183,-157.7966,-0.0011,0.5595,-0.7963,0.23
1777283876.3635986,R_Tibia,6.6657,-6.9624,-1.225,0.1831,-0.1831,0.3662,-99.9536,-43.2806,158.8403,-0.3638,0.6562,0.6395,-0.1678
1777283876.3635986,R_Foot,-9.532,-0.0239,-1.9619,0.4883,0.0,-0.061,-179.2365,78.3545,66.0883,-0.6475,0.4262,-0.5267,0.3488
1777283876.3635986,Trunk,-1.2729,6.2781,-7.1921,0.9766,-0.061,-0.6104,138.9386,7.5531,35.6671,0.8966,-0.2642,0.1659,0.3142
1777283876.3635986,L_Femur,2.1198,-6.7758,-6.5317,0.3052,-0.4883,-0.1221,-133.9453,-12.6892,-137.3181,-0.2926,-0.8677,-0.3251,0.2362
1777283876.3635986,L_Tibia,2.0576,-0.9905,9.6708,-0.2441,-0.2441,0.4883,-5.8337,-11.9312,147.2717,-0.1139,0.0193,0.9545,0.2748
1777283876.3635986,L_Foot,0.4354,-0.7752,-9.4459,-0.6104,-0.3662,0.3052,-175.3143,-2.6752,-110.8081,-0.5664,-0.8228,-0.0204,0.0424
1777283876.3635986,R_Femur,-2.5361,8.7233,3.6606,0.5493,-0.4883,-0.6104,67.2253,15.0183,-157.7966,-0.0011,0.5595,-0.7963,0.23
1777283876.3635986,R_Tibia,6.6657,-6.9624,-1.225,0.1831,-0.1831,0.3662,-99.9536,-43.2806,158.8403,-0.3638,0.6562,0.6395,-0.1678
1777283876.3635986,R_Foot,-9.532,-0.0239,-1.9619,0.4883,0.0,-0.061,-179.2365,78.3545,66.0883,-0.6475,0.4262,-0.5267,0.3488
1777283876.3635986,Trunk,-1.2729,6.2781,-7.1921,0.9766,-0.061,-0.6104,138.9386,7.5531,35.6671,0.8966,-0.2642,0.1659,0.3142
1777283876.3635986,L_Femur,2.1198,-6.7758,-6.5317,0.3052,-0.4883,-0.1221,-133.9453,-12.6892,-137.3181,-0.2926,-0.8677,-0.3251,0.2362
1777283876.3635986,L_Tibia,2.0528,-0.9905,9.6708,-0.2441,-0.2441,0.4883,-5.8337,-11.9312,147.2717,-0.1139,0.0193,0.9545,0.2748
1777283876.3635986,L_Foot,0.4354,-0.7752,-9.4459,-0.6104,-0.3662,0.3052,-175.3143,-2.6752,-110.8081,-0.5664,-0.8228,-0.0204,0.0424
1777283876.3635986,R_Femur,-2.5361,8.7233,3.6606,0.5493,-0.4883,-0.6104,67.2253,15.0183,-157.7966,-0.0011,0.5595,-0.7963,0.23
1777283876.3635986,R_Tibia,6.6657,-6.9624,-1.225,0.1831,-0.1831,0.3662,-99.9536,-43.2806,158.8403,-0.3638,0.6562,0.6395,-0.1678
1777283876.3635986,R_Foot,-9.532,-0.0239,-1.9619,0.4883,0.0,-0.061,-179.2365,78.3545,66.0883,-0.6475,0.4262,-0.5267,0.3488
1777283876.3645985,Trunk,-1.2729,6.2781,-7.1921,0.9766,-0.061,-0.6104,138.9386,7.5531,35.6671,0.8966,-0.2642,0.1659,0.3142
1777283876.3645985,L_Femur,2.1198,-6.7758,-6.5317,0.3052,-0.4883,-0.1221,-133.9453,-12.6892,-137.3181,-0.2926,-0.8677,-0.3251,0.2362
1777283876.3645985,L_Tibia,2.0528,-0.9905,9.6708,-0.2441,-0.2441,0.4883,-5.8337,-11.9312,147.2717,-0.1139,0.0193,0.9545,0.2748
1777283876.3645985,L_Foot,0.4354,-0.7752,-9.4459,-0.6104,-0.3662,0.3052,-175.3143,-2.6752,-110.8081,-0.5664,-0.8228,-0.0204,0.0424
1777283876.3645985,R_Femur,-2.5361,8.7233,3.6606,0.5493,-0.5493,-0.6104,67.2253,15.0183,-157.7966,-0.0011,0.5595,-0.7963,0.23
1777283876.3645985,R_Tibia,6.6657,-6.9624,-1.225,0.1831,-0.1831,0.3662,-99.9536,-43.2806,158.8403,-0.3638,0.6562,0.6395,-0.1678
1777283876.3645985,R_Foot,-9.532,-0.0239,-1.9619,0.4883,0.0,-0.061,-179.2365,78.3545,66.0883,-0.6475,0.4262,-0.5267,0.3488
1777283876.3645985,Trunk,-1.2729,6.2781,-7.1921,0.9766,-0.061,-0.6104,138.9386,7.5531,35.6671,0.8966,-0.2642,0.1659,0.3142
1777283876.3645985,L_Femur,2.1198,-6.7758,-6.5317,0.3052,-0.4883,-0.1221,-133.9453,-12.6892,-137.3181,-0.2926,-0.8677,-0.3251,0.2362
1777283876.3645985,L_Tibia,2.0528,-0.9905,9.6708,-0.2441,-0.2441,0.4883,-5.8337,-11.9312,147.2717,-0.1139,0.0193,0.9545,0.2748
1777283876.3645985,L_Foot,0.4354,-0.7752,-9.4459,-0.6104,-0.3662,0.3052,-175.3143,-2.6752,-110.8081,-0.5664,-0.8228,-0.0204,0.0424
1777283876.3645985,R_Femur,-2.5361,8.7233,3.6606,0.5493,-0.5493,-0.6104,67.2253,15.0183,-157.7966,-0.0011,0.5595,-0.7963,0.23
1777283876.3645985,R_Tibia,6.6657,-6.9624,-1.225,0.1831,-0.1831,0.3662,-99.9536,-43.2806,158.8403,-0.3638,0.6562,0.6395,-0.1678
1777283876.3645985,R_Foot,-9.5368,-0.0191,-1.9667,0.4883,0.0,-0.061,-179.2365,78.3545,66.0883,-0.6475,0.4262,-0.5267,0.3488
1777283876.3655992,Trunk,-1.2681,6.2733,-7.1921,0.9766,-0.1221,-0.6104,138.9386,7.5531,35.6671,0.8966,-0.2642,0.1659,0.3142
1777283876.3655992,L_Femur,2.1198,-6.7758,-6.5317,0.3052,-0.4883,-0.1221,-133.9453,-12.6892,-137.3181,-0.2926,-0.8677,-0.3251,0.2362
1777283876.3655992,L_Tibia,2.0528,-0.9905,9.6708,-0.2441,-0.2441,0.4883,-5.8337,-11.9312,147.2717,-0.1139,0.0193,0.9545,0.2748
1777283876.3655992,L_Foot,0.4354,-0.7752,-9.4459,-0.6104,-0.3662,0.3052,-175.3143,-2.6752,-110.8081,-0.5664,-0.8228,-0.0204,0.0424
1777283876.3655992,R_Femur,-2.5361,8.7233,3.6606,0.5493,-0.5493,-0.6104,67.2253,15.0183,-157.7966,-0.0011,0.5595,-0.7963,0.23
1777283876.3655992,R_Tibia,6.6657,-6.9624,-1.225,0.1831,-0.1831,0.3662,-99.9536,-43.2806,158.8403,-0.3638,0.6562,0.6395,-0.1678
1777283876.3655992,R_Foot,-9.5368,-0.0191,-1.9667,0.4883,0.0,-0.061,-179.2365,78.3545,66.0883,-0.6475,0.4262,-0.5267,0.3488
1777283876.3655992,Trunk,-1.2681,6.2733,-7.1921,0.9766,-0.1221,-0.6104,138.9386,7.5531,35.6671,0.8966,-0.2642,0.1659,0.3142
1777283876.3655992,L_Femur,2.115,-6.7758,-6.527,0.3052,-0.4883,-0.1221,-133.9453,-12.6892,-137.3181,-0.2926,-0.8677,-0.3251,0.2362
1777283876.3655992,L_Tibia,2.0528,-0.9905,9.6708,-0.2441,-0.2441,0.4883,-5.8337,-11.9312,147.2717,-0.1139,0.0193,0.9545,0.2748
1777283876.3655992,L_Foot,0.4354,-0.7752,-9.4459,-0.6104,-0.3662,0.3052,-175.3143,-2.6752,-110.8081,-0.5664,-0.8228,-0.0204,0.0424
1777283876.3655992,R_Femur,-2.5361,8.7233,3.6606,0.5493,-0.5493,-0.6104,67.2253,15.0183,-157.7966,-0.0011,0.5595,-0.7963,0.23
1777283876.3655992,R_Tibia,6.6657,-6.9624,-1.225,0.1831,-0.1831,0.3662,-99.9536,-43.2806,158.8403,-0.3638,0.6562,0.6395,-0.1678
1777283876.3655992,R_Foot,-9.5368,-0.0191,-1.9667,0.4883,0.0,-0.061,-179.2365,78.3545,66.0883,-0.6475,0.4262,-0.5267,0.3488
1777283876.3655992,Trunk,-1.2681,6.2733,-7.1921,0.9766,-0.1221,-0.6104,138.9386,7.5531,35.6671,0.8966,-0.2642,0.1659,0.3142
1777283876.3655992,L_Femur,2.115,-6.7758,-6.527,0.3052,-0.4883,-0.1221,-133.9453,-12.6892,-137.3181,-0.2926,-0.8677,-0.3251,0.2362
1777283876.3655992,L_Tibia,2.0528,-0.9857,9.6708,-0.2441,-0.2441,0.4883,-5.8337,-11.9312,147.2717,-0.1139,0.0193,0.9545,0.2748
1777283876.3655992,L_Foot,0.4354,-0.7752,-9.4459,-0.6104,-0.3662,0.3052,-175.3143,-2.6752,-110.8081,-0.5664,-0.8228,-0.0204,0.0424
1777283876.3655992,R_Femur,-2.5361,8.7233,3.6606,0.5493,-0.5493,-0.6104,67.2253,15.0183,-157.7966,-0.0011,0.5595,-0.7963,0.23
1777283876.3655992,R_Tibia,6.6657,-6.9624,-1.225,0.1831,-0.1831,0.3662,-99.9536,-43.2806,158.8403,-0.3638,0.6562,0.6395,-0.1678
1777283876.3655992,R_Foot,-9.5368,-0.0191,-1.9667,0.4883,0.0,-0.061,-179.2365,78.3545,66.0883,-0.6475,0.4262,-0.5267,0.3488
1777283876.366599,Trunk,-1.2681,6.2733,-7.1921,0.9766,-0.1221,-0.6104,138.9386,7.5531,35.6671,0.8966,-0.2642,0.1659,0.3142
1777283876.366599,L_Femur,2.115,-6.7758,-6.527,0.3052,-0.4883,-0.1221,-133.9453,-12.6892,-137.3181,-0.2926,-0.8677,-0.3251,0.2362
1777283876.366599,L_Tibia,2.0528,-0.9857,9.6708,-0.2441,-0.2441,0.4883,-5.8337,-11.9312,147.2717,-0.1139,0.0193,0.9545,0.2748
1777283876.366599,L_Foot,0.445,-0.7752,-9.4459,-0.6104,-0.3052,0.3052,-175.3143,-2.6752,-110.8081,-0.5664,-0.8228,-0.0204,0.0424
1777283876.366599,R_Femur,-2.5361,8.7233,3.6606,0.5493,-0.5493,-0.6104,67.2253,15.0183,-157.7966,-0.0011,0.5595,-0.7963,0.23
1777283876.366599,R_Tibia,6.6657,-6.9624,-1.225,0.1831,-0.1831,0.3662,-99.9536,-43.2806,158.8403,-0.3638,0.6562,0.6395,-0.1678
1777283876.366599,R_Foot,-9.5368,-0.0191,-1.9667,0.4883,0.0,-0.061,-179.2365,78.3545,66.0883,-0.6475,0.4262,-0.5267,0.3488
1777283876.366599,Trunk,-1.2681,6.2733,-7.1921,0.9766,-0.1221,-0.6104,138.9386,7.5531,35.6671,0.8966,-0.2642,0.1659,0.3142
1777283876.366599,L_Femur,2.115,-6.7758,-6.527,0.3052,-0.4883,-0.1221,-133.9453,-12.6892,-137.3181,-0.2926,-0.8677,-0.3251,0.2362
1777283876.366599,L_Tibia,2.0528,-0.9857,9.6708,-0.2441,-0.2441,0.4883,-5.8337,-11.9312,147.2717,-0.1139,0.0193,0.9545,0.2748
1777283876.366599,L_Foot,0.445,-0.7752,-9.4459,-0.6104,-0.3052,0.3052,-175.3143,-2.6752,-110.8081,-0.5664,-0.8228,-0.0204,0.0424
1777283876.366599,R_Femur,-2.5361,8.7138,3.6654,0.5493,-0.5493,-0.6104,67.2253,15.0183,-157.7966,-0.0011,0.5595,-0.7963,0.23
1777283876.366599,R_Tibia,6.6657,-6.9624,-1.225,0.1831,-0.1831,0.3662,-99.9536,-43.2806,158.8403,-0.3638,0.6562,0.6395,-0.1678
1777283876.366599,R_Foot,-9.5368,-0.0191,-1.9667,0.4883,0.0,-0.061,-179.2365,78.3545,66.0883,-0.6475,0.4262,-0.5267,0.3488
1777283876.3675976,Trunk,-1.2681,6.2733,-7.1921,0.9766,-0.1221,-0.6104,138.9386,7.5531,35.6671,0.8966,-0.2642,0.1659,0.3142
1777283876.3675976,L_Femur,2.115,-6.7758,-6.527,0.3052,-0.4883,-0.1221,-133.9453,-12.6892,-137.3181,-0.2926,-0.8677,-0.3251,0.2362
1777283876.3675976,L_Tibia,2.0528,-0.9857,9.6708,-0.2441,-0.2441,0.4883,-5.8337,-11.9312,147.2717,-0.1139,0.0193,0.9545,0.2748
1777283876.3675976,L_Foot,0.445,-0.7752,-9.4459,-0.6104,-0.3052,0.3052,-175.3143,-2.6752,-110.8081,-0.5664,-0.8228,-0.0204,0.0424
1777283876.3675976,R_Femur,-2.5361,8.7138,3.6654,0.5493,-0.5493,-0.6104,67.2253,15.0183,-157.7966,-0.0011,0.5595,-0.7963,0.23
1777283876.3675976,R_Tibia,6.6609,-6.9672,-1.2202,0.1831,-0.2441,0.4272,-99.9536,-43.2806,158.8403,-0.3638,0.6562,0.6395,-0.1678
1777283876.3675976,R_Foot,-9.5368,-0.0191,-1.9667,0.4883,0.0,-0.061,-179.2365,78.3545,66.0883,-0.6475,0.4262,-0.5267,0.3488
1777283876.3675976,Trunk,-1.2633,6.2781,-7.1969,0.9155,-0.061,-0.6104,138.9386,7.5531,35.6726,0.8966,-0.2642,0.1659,0.3142
1777283876.3675976,L_Femur,2.115,-6.7758,-6.527,0.3052,-0.4883,-0.1221,-133.9453,-12.6892,-137.3181,-0.2926,-0.8677,-0.3251,0.2362
1777283876.3675976,L_Tibia,2.0528,-0.9857,9.6708,-0.2441,-0.2441,0.4883,-5.8337,-11.9312,147.2717,-0.1139,0.0193,0.9545,0.2748
1777283876.3675976,L_Foot,0.445,-0.7752,-9.4459,-0.6104,-0.3052,0.3052,-175.3143,-2.6752,-110.8081,-0.5664,-0.8228,-0.0204,0.0424
1777283876.3675976,R_Femur,-2.5361,8.7138,3.6654,0.5493,-0.5493,-0.6104,67.2253,15.0183,-157.7966,-0.0011,0.5595,-0.7963,0.23
1777283876.3675976,R_Tibia,6.6609,-6.9672,-1.2202,0.1831,-0.2441,0.4272,-99.9536,-43.2806,158.8403,-0.3638,0.6562,0.6395,-0.1678
1777283876.3675976,R_Foot,-9.5368,-0.0191,-1.9667,0.4883,0.0,-0.061,-179.2365,78.3545,66.0883,-0.6475,0.4262,-0.5267,0.3488
1777283876.3675976,Trunk,-1.2633,6.2781,-7.1969,0.9155,-0.061,-0.6104,138.9386,7.5531,35.6726,0.8966,-0.2642,0.1659,0.3142
1777283876.3675976,L_Femur,2.115,-6.7806,-6.5317,0.3052,-0.4272,-0.1221,-133.9453,-12.6892,-137.3181,-0.2926,-0.8677,-0.3251,0.2362
1777283876.3675976,L_Tibia,2.0528,-0.9857,9.6708,-0.2441,-0.2441,0.4883,-5.8337,-11.9312,147.2717,-0.1139,0.0193,0.9545,0.2748
1777283876.3675976,L_Foot,0.445,-0.7752,-9.4459,-0.6104,-0.3052,0.3052,-175.3143,-2.6752,-110.8081,-0.5664,-0.8228,-0.0204,0.0424
1777283876.3675976,R_Femur,-2.5361,8.7138,3.6654,0.5493,-0.5493,-0.6104,67.2253,15.0183,-157.7966,-0.0011,0.5595,-0.7963,0.23
1777283876.3675976,R_Tibia,6.6609,-6.9672,-1.2202,0.1831,-0.2441,0.4272,-99.9536,-43.2806,158.8403,-0.3638,0.6562,0.6395,-0.1678
1777283876.3675976,R_Foot,-9.5368,-0.0191,-1.9667,0.4883,0.0,-0.061,-179.2365,78.3545,66.0883,-0.6475,0.4262,-0.5267,0.3488
1777283876.3685977,Trunk,-1.2633,6.2781,-7.1969,0.9155,-0.061,-0.6104,138.9386,7.5531,35.6726,0.8966,-0.2642,0.1659,0.3142
1777283876.3685977,L_Femur,2.115,-6.7806,-6.5317,0.3052,-0.4272,-0.1221,-133.9453,-12.6892,-137.3181,-0.2926,-0.8677,-0.3251,0.2362
1777283876.3685977,L_Tibia,2.0576,-0.9857,9.6708,-0.2441,-0.2441,0.5493,-5.8337,-11.9312,147.2717,-0.1139,0.0193,0.9545,0.2748
1777283876.3685977,L_Foot,0.445,-0.7752,-9.4459,-0.6104,-0.3052,0.3052,-175.3143,-2.6752,-110.8081,-0.5664,-0.8228,-0.0204,0.0424
1777283876.3685977,R_Femur,-2.5361,8.7138,3.6654,0.5493,-0.5493,-0.6104,67.2253,15.0183,-157.7966,-0.0011,0.5595,-0.7963,0.23
1777283876.3685977,R_Tibia,6.6609,-6.9672,-1.2202,0.1831,-0.2441,0.4272,-99.9536,-43.2806,158.8403,-0.3638,0.6562,0.6395,-0.1678
1777283876.3685977,R_Foot,-9.5368,-0.0191,-1.9667,0.4883,0.0,-0.061,-179.2365,78.3545,66.0883,-0.6475,0.4262,-0.5267,0.3488
1777283876.3685977,Trunk,-1.2633,6.2781,-7.1969,0.9155,-0.061,-0.6104,138.9386,7.5531,35.6726,0.8966,-0.2642,0.1659,0.3142
1777283876.3685977,L_Femur,2.115,-6.7806,-6.5317,0.3052,-0.4272,-0.1221,-133.9453,-12.6892,-137.3181,-0.2926,-0.8677,-0.3251,0.2362
1777283876.3685977,L_Tibia,2.0576,-0.9857,9.6708,-0.2441,-0.2441,0.5493,-5.8337,-11.9312,147.2717,-0.1139,0.0193,0.9545,0.2748
1777283876.3685977,L_Foot,0.445,-0.7704,-9.4459,-0.6714,-0.3052,0.3052,-175.3143,-2.6752,-110.8081,-0.5664,-0.8228,-0.0204,0.0424
1777283876.3685977,R_Femur,-2.5361,8.7138,3.6654,0.5493,-0.5493,-0.6104,67.2253,15.0183,-157.7966,-0.0011,0.5595,-0.7963,0.23
1777283876.3685977,R_Tibia,6.6609,-6.9672,-1.2202,0.1831,-0.2441,0.4272,-99.9536,-43.2806,158.8403,-0.3638,0.6562,0.6395,-0.1678
1777283876.3685977,R_Foot,-9.5368,-0.0191,-1.9667,0.4883,0.0,-0.061,-179.2365,78.3545,66.0883,-0.6475,0.4262,-0.5267,0.3488
1777283876.3685977,Trunk,-1.2633,6.2781,-7.1969,0.9155,-0.061,-0.6104,138.9386,7.5531,35.6726,0.8966,-0.2642,0.1659,0.3142
1777283876.3685977,L_Femur,2.115,-6.7806,-6.5317,0.3052,-0.4272,-0.1221,-133.9453,-12.6892,-137.3181,-0.2926,-0.8677,-0.3251,0.2362
1777283876.3685977,L_Tibia,2.0576,-0.9857,9.6708,-0.2441,-0.2441,0.5493,-5.8337,-11.9312,147.2717,-0.1139,0.0193,0.9545,0.2748
1777283876.3685977,L_Foot,0.445,-0.7704,-9.4459,-0.6714,-0.3052,0.3052,-175.3143,-2.6752,-110.8081,-0.5664,-0.8228,-0.0204,0.0424
1777283876.3685977,R_Femur,-2.5409,8.7186,3.6606,0.5493,-0.5493,-0.6104,67.2253,15.0183,-157.7966,-0.0011,0.5595,-0.7963,0.23
1777283876.3685977,R_Tibia,6.6609,-6.9672,-1.2202,0.1831,-0.2441,0.4272,-99.9536,-43.2806,158.8403,-0.3638,0.6562,0.6395,-0.1678
1777283876.3685977,R_Foot,-9.5368,-0.0191,-1.9667,0.4883,0.0,-0.061,-179.2365,78.3545,66.0883,-0.6475,0.4262,-0.5267,0.3488
1777283876.3695977,Trunk,-1.2633,6.2781,-7.1969,0.9155,-0.061,-0.6104,138.9386,7.5531,35.6726,0.8966,-0.2642,0.1659,0.3142
1777283876.3695977,L_Femur,2.115,-6.7806,-6.5317,0.3052,-0.4272,-0.1221,-133.9453,-12.6892,-137.3181,-0.2926,-0.8677,-0.3251,0.2362
1777283876.3695977,L_Tibia,2.0576,-0.9857,9.6708,-0.2441,-0.2441,0.5493,-5.8337,-11.9312,147.2717,-0.1139,0.0193,0.9545,0.2748
1777283876.3695977,L_Foot,0.445,-0.7704,-9.4459,-0.6714,-0.3052,0.3052,-175.3143,-2.6752,-110.8081,-0.5664,-0.8228,-0.0204,0.0424
1777283876.3695977,R_Femur,-2.5409,8.7186,3.6606,0.5493,-0.5493,-0.6104,67.2253,15.0183,-157.7966,-0.0011,0.5595,-0.7963,0.23
1777283876.3695977,R_Tibia,6.6609,-6.9672,-1.2202,0.1831,-0.2441,0.4272,-99.9536,-43.2806,158.8403,-0.3638,0.6562,0.6395,-0.1678
1777283876.3695977,R_Foot,-9.5368,-0.0239,-1.9667,0.4883,0.0,-0.061,-179.2365,78.3545,66.0883,-0.6475,0.4262,-0.5267,0.3488
1777283876.4740279,Trunk,-1.2681,6.2686,-7.1969,0.9766,-0.061,-0.6104,138.9386,7.5531,35.6726,0.8966,-0.2642,0.1659,0.3142
1777283876.4740279,L_Femur,2.115,-6.7806,-6.5317,0.3052,-0.4272,-0.1221,-133.9453,-12.6892,-137.3181,-0.2926,-0.8677,-0.3251,0.2362
1777283876.4740279,L_Tibia,2.0576,-0.9857,9.6708,-0.2441,-0.2441,0.5493,-5.8337,-11.9312,147.2717,-0.1139,0.0193,0.9545,0.2748
1777283876.4740279,L_Foot,0.445,-0.7704,-9.4459,-0.6714,-0.3052,0.3052,-175.3143,-2.6752,-110.8081,-0.5664,-0.8228,-0.0204,0.0424
1777283876.4740279,R_Femur,-2.5409,8.7186,3.6606,0.5493,-0.5493,-0.6104,67.2253,15.0183,-157.7966,-0.0011,0.5595,-0.7963,0.23
1777283876.4740279,R_Tibia,6.6609,-6.9672,-1.2202,0.1831,-0.2441,0.4272,-99.9536,-43.2806,158.8403,-0.3638,0.6562,0.6395,-0.1678
1777283876.4740279,R_Foot,-9.5368,-0.0239,-1.9667,0.4883,0.0,-0.061,-179.2365,78.3545,66.0883,-0.6475,0.4262,-0.5267,0.3488
1777283876.4745796,Trunk,-1.2681,6.2686,-7.1969,0.9766,-0.061,-0.6104,138.9386,7.5531,35.6726,0.8966,-0.2642,0.1659,0.3142
1777283876.4745796,L_Femur,2.115,-6.7806,-6.527,0.3052,-0.4883,-0.1221,-133.9453,-12.6892,-137.3126,-0.2926,-0.8677,-0.3251,0.2362
1777283876.4745796,L_Tibia,2.0576,-0.9857,9.6708,-0.2441,-0.2441,0.5493,-5.8337,-11.9312,147.2717,-0.1139,0.0193,0.9545,0.2748
1777283876.4745796,L_Foot,0.445,-0.7704,-9.4459,-0.6714,-0.3052,0.3052,-175.3143,-2.6752,-110.8081,-0.5664,-0.8228,-0.0204,0.0424
1777283876.4745796,R_Femur,-2.5409,8.7186,3.6606,0.5493,-0.5493,-0.6104,67.2253,15.0183,-157.7966,-0.0011,0.5595,-0.7963,0.23
1777283876.4745796,R_Tibia,6.6609,-6.9672,-1.2202,0.1831,-0.2441,0.4272,-99.9536,-43.2806,158.8403,-0.3638,0.6562,0.6395,-0.1678
1777283876.4745796,R_Foot,-9.5368,-0.0239,-1.9667,0.4883,0.0,-0.061,-179.2365,78.3545,66.0883,-0.6475,0.4262,-0.5267,0.3488
1777283876.4745796,Trunk,-1.2681,6.2686,-7.1969,0.9766,-0.061,-0.6104,138.9386,7.5531,35.6726,0.8966,-0.2642,0.1659,0.3142
1777283876.4745796,L_Femur,2.115,-6.7806,-6.527,0.3052,-0.4883,-0.1221,-133.9453,-12.6892,-137.3126,-0.2926,-0.8677,-0.3251,0.2362
1777283876.4745796,L_Tibia,2.0528,-0.9857,9.6708,-0.2441,-0.2441,0.5493,-5.8337,-11.9312,147.2717,-0.1139,0.0193,0.9545,0.2748
1777283876.4745796,L_Foot,0.445,-0.7704,-9.4459,-0.6714,-0.3052,0.3052,-175.3143,-2.6752,-110.8081,-0.5664,-0.8228,-0.0204,0.0424
1777283876.4745796,R_Femur,-2.5409,8.7186,3.6606,0.5493,-0.5493,-0.6104,67.2253,15.0183,-157.7966,-0.0011,0.5595,-0.7963,0.23
1777283876.4745796,R_Tibia,6.6609,-6.9672,-1.2202,0.1831,-0.2441,0.4272,-99.9536,-43.2806,158.8403,-0.3638,0.6562,0.6395,-0.1678
1777283876.4745796,R_Foot,-9.5368,-0.0239,-1.9667,0.4883,0.0,-0.061,-179.2365,78.3545,66.0883,-0.6475,0.4262,-0.5267,0.3488
1777283876.4745796,Trunk,-1.2681,6.2686,-7.1969,0.9766,-0.061,-0.6104,138.9386,7.5531,35.6726,0.8966,-0.2642,0.1659,0.3142
1777283876.4745796,L_Femur,2.115,-6.7806,-6.527,0.3052,-0.4883,-0.1221,-133.9453,-12.6892,-137.3126,-0.2926,-0.8677,-0.3251,0.2362
1777283876.4745796,L_Tibia,2.0528,-0.9857,9.6708,-0.2441,-0.2441,0.5493,-5.8337,-11.9312,147.2717,-0.1139,0.0193,0.9545,0.2748
1777283876.4745796,L_Foot,0.4402,-0.7752,-9.4459,-0.6714,-0.3052,0.3052,-175.3143,-2.6752,-110.8081,-0.5664,-0.8228,-0.0204,0.0424
1777283876.4745796,R_Femur,-2.5409,8.7186,3.6606,0.5493,-0.5493,-0.6104,67.2253,15.0183,-157.7966,-0.0011,0.5595,-0.7963,0.23
1777283876.4745796,R_Tibia,6.6609,-6.9672,-1.2202,0.1831,-0.2441,0.4272,-99.9536,-43.2806,158.8403,-0.3638,0.6562,0.6395,-0.1678
1777283876.4745796,R_Foot,-9.5368,-0.0239,-1.9667,0.4883,0.0,-0.061,-179.2365,78.3545,66.0883,-0.6475,0.4262,-0.5267,0.3488
1777283876.4745796,Trunk,-1.2681,6.2686,-7.1969,0.9766,-0.061,-0.6104,138.9386,7.5531,35.6726,0.8966,-0.2642,0.1659,0.3142
1777283876.4745796,L_Femur,2.115,-6.7806,-6.527,0.3052,-0.4883,-0.1221,-133.9453,-12.6892,-137.3126,-0.2926,-0.8677,-0.3251,0.2362
1777283876.4745796,L_Tibia,2.0528,-0.9857,9.6708,-0.2441,-0.2441,0.5493,-5.8337,-11.9312,147.2717,-0.1139,0.0193,0.9545,0.2748
1777283876.4745796,L_Foot,0.4402,-0.7752,-9.4459,-0.6714,-0.3052,0.3052,-175.3143,-2.6752,-110.8081,-0.5664,-0.8228,-0.0204,0.0424
1777283876.4745796,R_Femur,-2.5313,8.7186,3.6559,0.6104,-0.4883,-0.6104,67.2253,15.0183,-157.7966,-0.0011,0.5595,-0.7963,0.23
1777283876.4745796,R_Tibia,6.6609,-6.9672,-1.2202,0.1831,-0.2441,0.4272,-99.9536,-43.2806,158.8403,-0.3638,0.6562,0.6395,-0.1678
1777283876.4745796,R_Foot,-9.5368,-0.0239,-1.9667,0.4883,0.0,-0.061,-179.2365,78.3545,66.0883,-0.6475,0.4262,-0.5267,0.3488
1777283876.4745796,Trunk,-1.2681,6.2686,-7.1969,0.9766,-0.061,-0.6104,138.9386,7.5531,35.6726,0.8966,-0.2642,0.1659,0.3142
1777283876.4745796,L_Femur,2.115,-6.7806,-6.527,0.3052,-0.4883,-0.1221,-133.9453,-12.6892,-137.3126,-0.2926,-0.8677,-0.3251,0.2362
1777283876.4745796,L_Tibia,2.0528,-0.9857,9.6708,-0.2441,-0.2441,0.5493,-5.8337,-11.9312,147.2717,-0.1139,0.0193,0.9545,0.2748
1777283876.4745796,L_Foot,0.4402,-0.7752,-9.4459,-0.6714,-0.3052,0.3052,-175.3143,-2.6752,-110.8081,-0.5664,-0.8228,-0.0204,0.0424
1777283876.4745796,R_Femur,-2.5313,8.7186,3.6559,0.6104,-0.4883,-0.6104,67.2253,15.0183,-157.7966,-0.0011,0.5595,-0.7963,0.23
1777283876.4745796,R_Tibia,6.6609,-6.972,-1.225,0.1831,-0.2441,0.3662,-99.9536,-43.2806,158.8403,-0.3638,0.6562,0.6395,-0.1678
1777283876.4745796,R_Foot,-9.5368,-0.0239,-1.9667,0.4883,0.0,-0.061,-179.2365,78.3545,66.0883,-0.6475,0.4262,-0.5267,0.3488
1777283876.4745796,Trunk,-1.2633,6.2686,-7.1969,0.9766,-0.061,-0.6104,138.9386,7.5531,35.6726,0.8966,-0.2642,0.1659,0.3142
1777283876.4745796,L_Femur,2.115,-6.7806,-6.527,0.3052,-0.4883,-0.1221,-133.9453,-12.6892,-137.3126,-0.2926,-0.8677,-0.3251,0.2362
1777283876.4745796,L_Tibia,2.0528,-0.9857,9.6708,-0.2441,-0.2441,0.5493,-5.8337,-11.9312,147.2717,-0.1139,0.0193,0.9545,0.2748
1777283876.4745796,L_Foot,0.4402,-0.7752,-9.4459,-0.6714,-0.3052,0.3052,-175.3143,-2.6752,-110.8081,-0.5664,-0.8228,-0.0204,0.0424
1777283876.4745796,R_Femur,-2.5313,8.7186,3.6559,0.6104,-0.4883,-0.6104,67.2253,15.0183,-157.7966,-0.0011,0.5595,-0.7963,0.23
1777283876.4745796,R_Tibia,6.6609,-6.972,-1.225,0.1831,-0.2441,0.3662,-99.9536,-43.2806,158.8403,-0.3638,0.6562,0.6395,-0.1678
1777283876.4745796,R_Foot,-9.5368,-0.0239,-1.9667,0.4883,0.0,-0.061,-179.2365,78.3545,66.0883,-0.6475,0.4262,-0.5267,0.3488
1777283876.4745796,Trunk,-1.2633,6.2686,-7.1969,0.9766,-0.061,-0.6104,138.9386,7.5531,35.6726,0.8966,-0.2642,0.1659,0.3142
1777283876.4745796,L_Femur,2.115,-6.7854,-6.5317,0.3052,-0.4272,-0.1221,-133.9453,-12.6892,-137.3126,-0.2926,-0.8677,-0.3251,0.2362
1777283876.4745796,L_Tibia,2.0528,-0.9857,9.6708,-0.2441,-0.2441,0.5493,-5.8337,-11.9312,147.2717,-0.1139,0.0193,0.9545,0.2748
1777283876.4745796,L_Foot,0.4402,-0.7752,-9.4459,-0.6714,-0.3052,0.3052,-175.3143,-2.6752,-110.8081,-0.5664,-0.8228,-0.0204,0.0424
1777283876.4745796,R_Femur,-2.5313,8.7186,3.6559,0.6104,-0.4883,-0.6104,67.2253,15.0183,-157.7966,-0.0011,0.5595,-0.7963,0.23
1777283876.4745796,R_Tibia,6.6609,-6.972,-1.225,0.1831,-0.2441,0.3662,-99.9536,-43.2806,158.8403,-0.3638,0.6562,0.6395,-0.1678
1777283876.4745796,R_Foot,-9.5368,-0.0239,-1.9667,0.4883,0.0,-0.061,-179.2365,78.3545,66.0883,-0.6475,0.4262,-0.5267,0.3488
1777283876.4760854,Trunk,-1.2633,6.2686,-7.1969,0.9766,-0.061,-0.6104,138.9386,7.5531,35.6726,0.8966,-0.2642,0.1659,0.3142
1777283876.4760854,L_Femur,2.115,-6.7854,-6.5317,0.3052,-0.4272,-0.1221,-133.9453,-12.6892,-137.3126,-0.2926,-0.8677,-0.3251,0.2362
1777283876.4760854,L_Tibia,2.0576,-0.9857,9.6756,-0.1831,-0.2441,0.4883,-5.8337,-11.9312,147.2717,-0.1139,0.0193,0.9545,0.2748
1777283876.4760854,L_Foot,0.4402,-0.7752,-9.4459,-0.6714,-0.3052,0.3052,-175.3143,-2.6752,-110.8081,-0.5664,-0.8228,-0.0204,0.0424
1777283876.4760854,R_Femur,-2.5313,8.7186,3.6559,0.6104,-0.4883,-0.6104,67.2253,15.0183,-157.7966,-0.0011,0.5595,-0.7963,0.23
1777283876.4760854,R_Tibia,6.6609,-6.972,-1.225,0.1831,-0.2441,0.3662,-99.9536,-43.2806,158.8403,-0.3638,0.6562,0.6395,-0.1678
1777283876.4760854,R_Foot,-9.5368,-0.0239,-1.9667,0.4883,0.0,-0.061,-179.2365,78.3545,66.0883,-0.6475,0.4262,-0.5267,0.3488
1777283876.4760854,Trunk,-1.2633,6.2686,-7.1969,0.9766,-0.061,-0.6104,138.9386,7.5531,35.6726,0.8966,-0.2642,0.1659,0.3142
1777283876.4760854,L_Femur,2.115,-6.7854,-6.5317,0.3052,-0.4272,-0.1221,-133.9453,-12.6892,-137.3126,-0.2926,-0.8677,-0.3251,0.2362
1777283876.4760854,L_Tibia,2.0576,-0.9857,9.6756,-0.1831,-0.2441,0.4883,-5.8337,-11.9312,147.2717,-0.1139,0.0193,0.9545,0.2748
1777283876.4760854,L_Foot,0.445,-0.7704,-9.4459,-0.6104,-0.3662,0.3052,-175.3143,-2.6752,-110.8136,-0.5663,-0.8228,-0.0204,0.0424
1777283876.4760854,R_Femur,-2.5313,8.7186,3.6559,0.6104,-0.4883,-0.6104,67.2253,15.0183,-157.7966,-0.0011,0.5595,-0.7963,0.23
1777283876.4760854,R_Tibia,6.6609,-6.972,-1.225,0.1831,-0.2441,0.3662,-99.9536,-43.2806,158.8403,-0.3638,0.6562,0.6395,-0.1678
1777283876.4760854,R_Foot,-9.5368,-0.0239,-1.9667,0.4883,0.0,-0.061,-179.2365,78.3545,66.0883,-0.6475,0.4262,-0.5267,0.3488
1777283876.4760854,Trunk,-1.2633,6.2686,-7.1969,0.9766,-0.061,-0.6104,138.9386,7.5531,35.6726,0.8966,-0.2642,0.1659,0.3142
1777283876.4760854,L_Femur,2.115,-6.7854,-6.5317,0.3052,-0.4272,-0.1221,-133.9453,-12.6892,-137.3126,-0.2926,-0.8677,-0.3251,0.2362
1777283876.4760854,L_Tibia,2.0576,-0.9857,9.6756,-0.1831,-0.2441,0.4883,-5.8337,-11.9312,147.2717,-0.1139,0.0193,0.9545,0.2748
1777283876.4760854,L_Foot,0.445,-0.7704,-9.4459,-0.6104,-0.3662,0.3052,-175.3143,-2.6752,-110.8136,-0.5663,-0.8228,-0.0204,0.0424
1777283876.4760854,R_Femur,-2.5361,8.7233,3.6654,0.6104,-0.5493,-0.5493,67.2253,15.0183,-157.7966,-0.0011,0.5595,-0.7963,0.23
1777283876.4760854,R_Tibia,6.6609,-6.972,-1.225,0.1831,-0.2441,0.3662,-99.9536,-43.2806,158.8403,-0.3638,0.6562,0.6395,-0.1678
1777283876.4760854,R_Foot,-9.5368,-0.0239,-1.9667,0.4883,0.0,-0.061,-179.2365,78.3545,66.0883,-0.6475,0.4262,-0.5267,0.3488
1777283876.4760854,Trunk,-1.2633,6.2686,-7.1969,0.9766,-0.1221,-0.5493,138.9386,7.5531,35.6726,0.8966,-0.2642,0.1659,0.3142
1777283876.4760854,L_Femur,2.115,-6.7854,-6.5317,0.3052,-0.4272,-0.1221,-133.9453,-12.6892,-137.3126,-0.2926,-0.8677,-0.3251,0.2362
1777283876.4760854,L_Tibia,2.0576,-0.9857,9.6756,-0.1831,-0.2441,0.4883,-5.8337,-11.9312,147.2717,-0.1139,0.0193,0.9545,0.2748
1777283876.4760854,L_Foot,0.445,-0.7704,-9.4459,-0.6104,-0.3662,0.3052,-175.3143,-2.6752,-110.8136,-0.5663,-0.8228,-0.0204,0.0424
1777283876.4760854,R_Femur,-2.5361,8.7233,3.6654,0.6104,-0.5493,-0.5493,67.2253,15.0183,-157.7966,-0.0011,0.5595,-0.7963,0.23
1777283876.4760854,R_Tibia,6.6609,-6.972,-1.225,0.1831,-0.2441,0.3662,-99.9536,-43.2806,158.8403,-0.3638,0.6562,0.6395,-0.1678
1777283876.4760854,R_Foot,-9.5368,-0.0239,-1.9667,0.4883,0.0,-0.061,-179.2365,78.3545,66.0883,-0.6475,0.4262,-0.5267,0.3488
1777283876.4760854,Trunk,-1.2633,6.2686,-7.1969,0.9766,-0.1221,-0.5493,138.9386,7.5531,35.6726,0.8966,-0.2642,0.1659,0.3142
1777283876.4760854,L_Femur,2.115,-6.7806,-6.527,0.3052,-0.4883,-0.1221,-133.9453,-12.6947,-137.3126,-0.2926,-0.8677,-0.3251,0.2363
1777283876.4760854,L_Tibia,2.0576,-0.9857,9.6756,-0.1831,-0.2441,0.4883,-5.8337,-11.9312,147.2717,-0.1139,0.0193,0.9545,0.2748
1777283876.4760854,L_Foot,0.445,-0.7704,-9.4459,-0.6104,-0.3662,0.3052,-175.3143,-2.6752,-110.8136,-0.5663,-0.8228,-0.0204,0.0424
1777283876.4760854,R_Femur,-2.5361,8.7233,3.6654,0.6104,-0.5493,-0.5493,67.2253,15.0183,-157.7966,-0.0011,0.5595,-0.7963,0.23
1777283876.4760854,R_Tibia,6.6609,-6.972,-1.225,0.1831,-0.2441,0.3662,-99.9536,-43.2806,158.8403,-0.3638,0.6562,0.6395,-0.1678
1777283876.4760854,R_Foot,-9.5368,-0.0239,-1.9667,0.4883,0.0,-0.061,-179.2365,78.3545,66.0883,-0.6475,0.4262,-0.5267,0.3488
1777283876.4760854,Trunk,-1.2633,6.2686,-7.1969,0.9766,-0.1221,-0.5493,138.9386,7.5531,35.6726,0.8966,-0.2642,0.1659,0.3142
1777283876.4760854,L_Femur,2.115,-6.7806,-6.527,0.3052,-0.4883,-0.1221,-133.9453,-12.6947,-137.3126,-0.2926,-0.8677,-0.3251,0.2363
1777283876.4760854,L_Tibia,2.0576,-0.9905,9.666,-0.3052,-0.2441,0.4883,-5.8337,-11.9312,147.2717,-0.1139,0.0193,0.9545,0.2748
1777283876.4760854,L_Foot,0.445,-0.7704,-9.4459,-0.6104,-0.3662,0.3052,-175.3143,-2.6752,-110.8136,-0.5663,-0.8228,-0.0204,0.0424
1777283876.4760854,R_Femur,-2.5361,8.7233,3.6654,0.6104,-0.5493,-0.5493,67.2253,15.0183,-157.7966,-0.0011,0.5595,-0.7963,0.23
1777283876.4760854,R_Tibia,6.6609,-6.972,-1.225,0.1831,-0.2441,0.3662,-99.9536,-43.2806,158.8403,-0.3638,0.6562,0.6395,-0.1678
1777283876.4760854,R_Foot,-9.5368,-0.0239,-1.9667,0.4883,0.0,-0.061,-179.2365,78.3545,66.0883,-0.6475,0.4262,-0.5267,0.3488
1777283876.4770916,Trunk,-1.2633,6.2686,-7.1969,0.9766,-0.1221,-0.5493,138.9386,7.5531,35.6726,0.8966,-0.2642,0.1659,0.3142
1777283876.4770916,L_Femur,2.115,-6.7806,-6.527,0.3052,-0.4883,-0.1221,-133.9453,-12.6947,-137.3126,-0.2926,-0.8677,-0.3251,0.2363
1777283876.4770916,L_Tibia,2.0576,-0.9905,9.666,-0.3052,-0.2441,0.4883,-5.8337,-11.9312,147.2717,-0.1139,0.0193,0.9545,0.2748
1777283876.4770916,L_Foot,0.445,-0.7704,-9.4459,-0.6104,-0.3052,0.3662,-175.3143,-2.6752,-110.8136,-0.5663,-0.8228,-0.0204,0.0424
1777283876.4770916,R_Femur,-2.5361,8.7233,3.6654,0.6104,-0.5493,-0.5493,67.2253,15.0183,-157.7966,-0.0011,0.5595,-0.7963,0.23
1777283876.4770916,R_Tibia,6.6609,-6.972,-1.225,0.1831,-0.2441,0.3662,-99.9536,-43.2806,158.8403,-0.3638,0.6562,0.6395,-0.1678
1777283876.4770916,R_Foot,-9.5368,-0.0239,-1.9667,0.4883,0.0,-0.061,-179.2365,78.3545,66.0883,-0.6475,0.4262,-0.5267,0.3488
1777283876.4770916,Trunk,-1.2633,6.2686,-7.1969,0.9766,-0.1221,-0.5493,138.9386,7.5531,35.6726,0.8966,-0.2642,0.1659,0.3142
1777283876.4770916,L_Femur,2.115,-6.7806,-6.527,0.3052,-0.4883,-0.1221,-133.9453,-12.6947,-137.3126,-0.2926,-0.8677,-0.3251,0.2363
1777283876.4770916,L_Tibia,2.0576,-0.9905,9.666,-0.3052,-0.2441,0.4883,-5.8337,-11.9312,147.2717,-0.1139,0.0193,0.9545,0.2748
1777283876.4770916,L_Foot,0.445,-0.7704,-9.4459,-0.6104,-0.3052,0.3662,-175.3143,-2.6752,-110.8136,-0.5663,-0.8228,-0.0204,0.0424
1777283876.4770916,R_Femur,-2.5361,8.7186,3.6606,0.6104,-0.5493,-0.6104,67.2253,15.0183,-157.7966,-0.0011,0.5595,-0.7963,0.23
1777283876.4770916,R_Tibia,6.6609,-6.972,-1.225,0.1831,-0.2441,0.3662,-99.9536,-43.2806,158.8403,-0.3638,0.6562,0.6395,-0.1678
1777283876.4770916,R_Foot,-9.5368,-0.0239,-1.9667,0.4883,0.0,-0.061,-179.2365,78.3545,66.0883,-0.6475,0.4262,-0.5267,0.3488
1777283876.4770916,Trunk,-1.2633,6.2686,-7.1969,0.9766,-0.1221,-0.5493,138.9386,7.5531,35.6726,0.8966,-0.2642,0.1659,0.3142
1777283876.4770916,L_Femur,2.115,-6.7806,-6.527,0.3052,-0.4883,-0.1221,-133.9453,-12.6947,-137.3126,-0.2926,-0.8677,-0.3251,0.2363
1777283876.4770916,L_Tibia,2.0576,-0.9905,9.666,-0.3052,-0.2441,0.4883,-5.8337,-11.9312,147.2717,-0.1139,0.0193,0.9545,0.2748
1777283876.4770916,L_Foot,0.445,-0.7704,-9.4459,-0.6104,-0.3052,0.3662,-175.3143,-2.6752,-110.8136,-0.5663,-0.8228,-0.0204,0.0424
1777283876.4770916,R_Femur,-2.5361,8.7186,3.6606,0.6104,-0.5493,-0.6104,67.2253,15.0183,-157.7966,-0.0011,0.5595,-0.7963,0.23
1777283876.4770916,R_Tibia,6.6562,-6.9624,-1.2202,0.2441,-0.1831,0.3662,-99.9536,-43.2806,158.8403,-0.3638,0.6562,0.6395,-0.1678
1777283876.4770916,R_Foot,-9.5368,-0.0239,-1.9667,0.4883,0.0,-0.061,-179.2365,78.3545,66.0883,-0.6475,0.4262,-0.5267,0.3488
1777283876.4770916,Trunk,-1.2585,6.2638,-7.1969,0.9766,-0.1221,-0.6104,138.9386,7.5531,35.6726,0.8966,-0.2642,0.1659,0.3142
1777283876.4770916,L_Femur,2.115,-6.7806,-6.527,0.3052,-0.4883,-0.1221,-133.9453,-12.6947,-137.3126,-0.2926,-0.8677,-0.3251,0.2363
1777283876.4770916,L_Tibia,2.0576,-0.9905,9.666,-0.3052,-0.2441,0.4883,-5.8337,-11.9312,147.2717,-0.1139,0.0193,0.9545,0.2748
1777283876.4770916,L_Foot,0.445,-0.7704,-9.4459,-0.6104,-0.3052,0.3662,-175.3143,-2.6752,-110.8136,-0.5663,-0.8228,-0.0204,0.0424
1777283876.4770916,R_Femur,-2.5361,8.7186,3.6606,0.6104,-0.5493,-0.6104,67.2253,15.0183,-157.7966,-0.0011,0.5595,-0.7963,0.23
1777283876.4770916,R_Tibia,6.6562,-6.9624,-1.2202,0.2441,-0.1831,0.3662,-99.9536,-43.2806,158.8403,-0.3638,0.6562,0.6395,-0.1678
1777283876.4770916,R_Foot,-9.5368,-0.0239,-1.9667,0.4883,0.0,-0.061,-179.2365,78.3545,66.0883,-0.6475,0.4262,-0.5267,0.3488
1777283876.4770916,Trunk,-1.2585,6.2638,-7.1969,0.9766,-0.1221,-0.6104,138.9386,7.5531,35.6726,0.8966,-0.2642,0.1659,0.3142
1777283876.4770916,L_Femur,2.1198,-6.7806,-6.527,0.3052,-0.4883,-0.1221,-133.9453,-12.6892,-137.3126,-0.2926,-0.8677,-0.3251,0.2362
1777283876.4770916,L_Tibia,2.0576,-0.9905,9.666,-0.3052,-0.2441,0.4883,-5.8337,-11.9312,147.2717,-0.1139,0.0193,0.9545,0.2748
1777283876.4770916,L_Foot,0.445,-0.7704,-9.4459,-0.6104,-0.3052,0.3662,-175.3143,-2.6752,-110.8136,-0.5663,-0.8228,-0.0204,0.0424
1777283876.4770916,R_Femur,-2.5361,8.7186,3.6606,0.6104,-0.5493,-0.6104,67.2253,15.0183,-157.7966,-0.0011,0.5595,-0.7963,0.23
1777283876.4770916,R_Tibia,6.6562,-6.9624,-1.2202,0.2441,-0.1831,0.3662,-99.9536,-43.2806,158.8403,-0.3638,0.6562,0.6395,-0.1678
1777283876.4770916,R_Foot,-9.5368,-0.0239,-1.9667,0.4883,0.0,-0.061,-179.2365,78.3545,66.0883,-0.6475,0.4262,-0.5267,0.3488
1777283876.47809,Trunk,-1.2585,6.2638,-7.1969,0.9766,-0.1221,-0.6104,138.9386,7.5531,35.6726,0.8966,-0.2642,0.1659,0.3142
1777283876.47809,L_Femur,2.1198,-6.7806,-6.527,0.3052,-0.4883,-0.1221,-133.9453,-12.6892,-137.3126,-0.2926,-0.8677,-0.3251,0.2362
1777283876.47809,L_Tibia,2.0576,-0.9905,9.6708,-0.2441,-0.2441,0.4883,-5.8337,-11.9312,147.2717,-0.1139,0.0193,0.9545,0.2748
1777283876.47809,L_Foot,0.445,-0.7704,-9.4459,-0.6104,-0.3052,0.3662,-175.3143,-2.6752,-110.8136,-0.5663,-0.8228,-0.0204,0.0424
1777283876.47809,R_Femur,-2.5361,8.7186,3.6606,0.6104,-0.5493,-0.6104,67.2253,15.0183,-157.7966,-0.0011,0.5595,-0.7963,0.23
1777283876.47809,R_Tibia,6.6562,-6.9624,-1.2202,0.2441,-0.1831,0.3662,-99.9536,-43.2806,158.8403,-0.3638,0.6562,0.6395,-0.1678
1777283876.47809,R_Foot,-9.5368,-0.0239,-1.9667,0.4883,0.0,-0.061,-179.2365,78.3545,66.0883,-0.6475,0.4262,-0.5267,0.3488
1777283876.47809,Trunk,-1.2585,6.2638,-7.1969,0.9766,-0.1221,-0.6104,138.9386,7.5531,35.6726,0.8966,-0.2642,0.1659,0.3142
1777283876.47809,L_Femur,2.1198,-6.7806,-6.527,0.3052,-0.4883,-0.1221,-133.9453,-12.6892,-137.3126,-0.2926,-0.8677,-0.3251,0.2362
1777283876.47809,L_Tibia,2.0576,-0.9905,9.6708,-0.2441,-0.2441,0.4883,-5.8337,-11.9312,147.2717,-0.1139,0.0193,0.9545,0.2748
1777283876.47809,L_Foot,0.445,-0.7752,-9.4459,-0.5493,-0.3662,0.3052,-175.3143,-2.6752,-110.8136,-0.5663,-0.8228,-0.0204,0.0424
1777283876.47809,R_Femur,-2.5361,8.7186,3.6606,0.6104,-0.5493,-0.6104,67.2253,15.0183,-157.7966,-0.0011,0.5595,-0.7963,0.23
1777283876.47809,R_Tibia,6.6562,-6.9624,-1.2202,0.2441,-0.1831,0.3662,-99.9536,-43.2806,158.8403,-0.3638,0.6562,0.6395,-0.1678
1777283876.47809,R_Foot,-9.5368,-0.0239,-1.9667,0.4883,0.0,-0.061,-179.2365,78.3545,66.0883,-0.6475,0.4262,-0.5267,0.3488
1777283876.47809,Trunk,-1.2585,6.2638,-7.1969,0.9766,-0.1221,-0.6104,138.9386,7.5531,35.6726,0.8966,-0.2642,0.1659,0.3142
1777283876.47809,L_Femur,2.1198,-6.7806,-6.527,0.3052,-0.4883,-0.1221,-133.9453,-12.6892,-137.3126,-0.2926,-0.8677,-0.3251,0.2362
1777283876.47809,L_Tibia,2.0576,-0.9905,9.6708,-0.2441,-0.2441,0.4883,-5.8337,-11.9312,147.2717,-0.1139,0.0193,0.9545,0.2748
1777283876.47809,L_Foot,0.445,-0.7752,-9.4459,-0.5493,-0.3662,0.3052,-175.3143,-2.6752,-110.8136,-0.5663,-0.8228,-0.0204,0.0424
1777283876.47809,R_Femur,-2.5409,8.7186,3.6654,0.5493,-0.5493,-0.6104,67.2253,15.0183,-157.7966,-0.0011,0.5595,-0.7963,0.23
1777283876.47809,R_Tibia,6.6562,-6.9624,-1.2202,0.2441,-0.1831,0.3662,-99.9536,-43.2806,158.8403,-0.3638,0.6562,0.6395,-0.1678
1777283876.47809,R_Foot,-9.5368,-0.0239,-1.9667,0.4883,0.0,-0.061,-179.2365,78.3545,66.0883,-0.6475,0.4262,-0.5267,0.3488
1777283876.47809,Trunk,-1.2585,6.2638,-7.1969,0.9766,-0.1221,-0.6104,138.9386,7.5531,35.6726,0.8966,-0.2642,0.1659,0.3142
1777283876.47809,L_Femur,2.1198,-6.7806,-6.527,0.3052,-0.4883,-0.1221,-133.9453,-12.6892,-137.3126,-0.2926,-0.8677,-0.3251,0.2362
1777283876.47809,L_Tibia,2.0576,-0.9905,9.6708,-0.2441,-0.2441,0.4883,-5.8337,-11.9312,147.2717,-0.1139,0.0193,0.9545,0.2748
1777283876.47809,L_Foot,0.445,-0.7752,-9.4459,-0.5493,-0.3662,0.3052,-175.3143,-2.6752,-110.8136,-0.5663,-0.8228,-0.0204,0.0424
1777283876.47809,R_Femur,-2.5409,8.7186,3.6654,0.5493,-0.5493,-0.6104,67.2253,15.0183,-157.7966,-0.0011,0.5595,-0.7963,0.23
1777283876.47809,R_Tibia,6.6562,-6.9624,-1.2202,0.2441,-0.1831,0.3662,-99.9536,-43.2806,158.8403,-0.3638,0.6562,0.6395,-0.1678
1777283876.47809,R_Foot,-9.532,-0.0239,-1.9619,0.4883,0.0,-0.061,-179.2365,78.3545,66.0828,-0.6475,0.4262,-0.5267,0.3488
1777283876.47809,Trunk,-1.2585,6.2638,-7.1969,0.9766,-0.1221,-0.6104,138.9386,7.5531,35.6726,0.8966,-0.2642,0.1659,0.3142
1777283876.47809,L_Femur,2.1198,-6.7806,-6.527,0.3052,-0.4883,-0.1831,-133.9453,-12.6947,-137.3126,-0.2926,-0.8677,-0.3251,0.2363
1777283876.47809,L_Tibia,2.0576,-0.9905,9.6708,-0.2441,-0.2441,0.4883,-5.8337,-11.9312,147.2717,-0.1139,0.0193,0.9545,0.2748
1777283876.47809,L_Foot,0.445,-0.7752,-9.4459,-0.5493,-0.3662,0.3052,-175.3143,-2.6752,-110.8136,-0.5663,-0.8228,-0.0204,0.0424
1777283876.47809,R_Femur,-2.5409,8.7186,3.6654,0.5493,-0.5493,-0.6104,67.2253,15.0183,-157.7966,-0.0011,0.5595,-0.7963,0.23
1777283876.47809,R_Tibia,6.6562,-6.9624,-1.2202,0.2441,-0.1831,0.3662,-99.9536,-43.2806,158.8403,-0.3638,0.6562,0.6395,-0.1678
1777283876.47809,R_Foot,-9.532,-0.0239,-1.9619,0.4883,0.0,-0.061,-179.2365,78.3545,66.0828,-0.6475,0.4262,-0.5267,0.3488
1777283876.4790916,Trunk,-1.2585,6.2638,-7.1969,0.9766,-0.1221,-0.6104,138.9386,7.5531,35.6726,0.8966,-0.2642,0.1659,0.3142
1777283876.4790916,L_Femur,2.1198,-6.7806,-6.527,0.3052,-0.4883,-0.1831,-133.9453,-12.6947,-137.3126,-0.2926,-0.8677,-0.3251,0.2363
1777283876.4790916,L_Tibia,2.0576,-0.9857,9.6708,-0.1831,-0.2441,0.4883,-5.8337,-11.9312,147.2717,-0.1139,0.0193,0.9545,0.2748
1777283876.4790916,L_Foot,0.445,-0.7752,-9.4459,-0.5493,-0.3662,0.3052,-175.3143,-2.6752,-110.8136,-0.5663,-0.8228,-0.0204,0.0424
1777283876.4790916,R_Femur,-2.5409,8.7186,3.6654,0.5493,-0.5493,-0.6104,67.2253,15.0183,-157.7966,-0.0011,0.5595,-0.7963,0.23
1777283876.4790916,R_Tibia,6.6562,-6.9624,-1.2202,0.2441,-0.1831,0.3662,-99.9536,-43.2806,158.8403,-0.3638,0.6562,0.6395,-0.1678
1777283876.4790916,R_Foot,-9.532,-0.0239,-1.9619,0.4883,0.0,-0.061,-179.2365,78.3545,66.0828,-0.6475,0.4262,-0.5267,0.3488
1777283876.4790916,Trunk,-1.2585,6.2638,-7.1969,0.9766,-0.1221,-0.6104,138.9386,7.5531,35.6726,0.8966,-0.2642,0.1659,0.3142
1777283876.4790916,L_Femur,2.1198,-6.7806,-6.527,0.3052,-0.4883,-0.1831,-133.9453,-12.6947,-137.3126,-0.2926,-0.8677,-0.3251,0.2363
1777283876.4790916,L_Tibia,2.0576,-0.9857,9.6708,-0.1831,-0.2441,0.4883,-5.8337,-11.9312,147.2717,-0.1139,0.0193,0.9545,0.2748
1777283876.4790916,L_Foot,0.445,-0.7704,-9.4459,-0.6714,-0.3052,0.3052,-175.3143,-2.6752,-110.8136,-0.5663,-0.8228,-0.0204,0.0424
1777283876.4790916,R_Femur,-2.5409,8.7186,3.6654,0.5493,-0.5493,-0.6104,67.2253,15.0183,-157.7966,-0.0011,0.5595,-0.7963,0.23
1777283876.4790916,R_Tibia,6.6562,-6.9624,-1.2202,0.2441,-0.1831,0.3662,-99.9536,-43.2806,158.8403,-0.3638,0.6562,0.6395,-0.1678
1777283876.4790916,R_Foot,-9.532,-0.0239,-1.9619,0.4883,0.0,-0.061,-179.2365,78.3545,66.0828,-0.6475,0.4262,-0.5267,0.3488
1777283876.4790916,Trunk,-1.2585,6.2638,-7.1969,0.9766,-0.1221,-0.6104,138.9386,7.5531,35.6726,0.8966,-0.2642,0.1659,0.3142
1777283876.4790916,L_Femur,2.1198,-6.7806,-6.527,0.3052,-0.4883,-0.1831,-133.9453,-12.6947,-137.3126,-0.2926,-0.8677,-0.3251,0.2363
1777283876.4790916,L_Tibia,2.0576,-0.9857,9.6708,-0.1831,-0.2441,0.4883,-5.8337,-11.9312,147.2717,-0.1139,0.0193,0.9545,0.2748
1777283876.4790916,L_Foot,0.445,-0.7704,-9.4459,-0.6714,-0.3052,0.3052,-175.3143,-2.6752,-110.8136,-0.5663,-0.8228,-0.0204,0.0424
1777283876.4790916,R_Femur,-2.5361,8.7138,3.6559,0.6104,-0.5493,-0.5493,67.2253,15.0183,-157.7966,-0.0011,0.5595,-0.7963,0.23
1777283876.4790916,R_Tibia,6.6562,-6.9624,-1.2202,0.2441,-0.1831,0.3662,-99.9536,-43.2806,158.8403,-0.3638,0.6562,0.6395,-0.1678
1777283876.4790916,R_Foot,-9.532,-0.0239,-1.9619,0.4883,0.0,-0.061,-179.2365,78.3545,66.0828,-0.6475,0.4262,-0.5267,0.3488
1777283876.4790916,Trunk,-1.2585,6.2638,-7.1969,0.9766,-0.1221,-0.6104,138.9386,7.5531,35.6726,0.8966,-0.2642,0.1659,0.3142
1777283876.4790916,L_Femur,2.1198,-6.7806,-6.527,0.3052,-0.4883,-0.1831,-133.9453,-12.6947,-137.3126,-0.2926,-0.8677,-0.3251,0.2363
1777283876.4790916,L_Tibia,2.0576,-0.9857,9.6708,-0.1831,-0.2441,0.4883,-5.8337,-11.9312,147.2717,-0.1139,0.0193,0.9545,0.2748
1777283876.4790916,L_Foot,0.445,-0.7704,-9.4459,-0.6714,-0.3052,0.3052,-175.3143,-2.6752,-110.8136,-0.5663,-0.8228,-0.0204,0.0424
1777283876.4790916,R_Femur,-2.5361,8.7138,3.6559,0.6104,-0.5493,-0.5493,67.2253,15.0183,-157.7966,-0.0011,0.5595,-0.7963,0.23
1777283876.4790916,R_Tibia,6.6562,-6.972,-1.2202,0.1831,-0.1831,0.3662,-99.9536,-43.2806,158.8403,-0.3638,0.6562,0.6395,-0.1678
1777283876.4790916,R_Foot,-9.532,-0.0239,-1.9619,0.4883,0.0,-0.061,-179.2365,78.3545,66.0828,-0.6475,0.4262,-0.5267,0.3488
1777283876.4800913,Trunk,-1.2489,6.2686,-7.2017,0.9766,-0.061,-0.6104,138.9386,7.5531,35.6781,0.8966,-0.2643,0.1659,0.3142
1777283876.4800913,L_Femur,2.1198,-6.7806,-6.527,0.3052,-0.4883,-0.1831,-133.9453,-12.6947,-137.3126,-0.2926,-0.8677,-0.3251,0.2363
1777283876.4800913,L_Tibia,2.0576,-0.9857,9.6708,-0.1831,-0.2441,0.4883,-5.8337,-11.9312,147.2717,-0.1139,0.0193,0.9545,0.2748
1777283876.4800913,L_Foot,0.445,-0.7704,-9.4459,-0.6714,-0.3052,0.3052,-175.3143,-2.6752,-110.8136,-0.5663,-0.8228,-0.0204,0.0424
1777283876.4800913,R_Femur,-2.5361,8.7138,3.6559,0.6104,-0.5493,-0.5493,67.2253,15.0183,-157.7966,-0.0011,0.5595,-0.7963,0.23
1777283876.4800913,R_Tibia,6.6562,-6.972,-1.2202,0.1831,-0.1831,0.3662,-99.9536,-43.2806,158.8403,-0.3638,0.6562,0.6395,-0.1678
1777283876.4800913,R_Foot,-9.532,-0.0239,-1.9619,0.4883,0.0,-0.061,-179.2365,78.3545,66.0828,-0.6475,0.4262,-0.5267,0.3488
1777283876.4800913,Trunk,-1.2489,6.2686,-7.2017,0.9766,-0.061,-0.6104,138.9386,7.5531,35.6781,0.8966,-0.2643,0.1659,0.3142
1777283876.4800913,L_Femur,2.115,-6.7758,-6.5317,0.3052,-0.4883,-0.1221,-133.9453,-12.6947,-137.3126,-0.2926,-0.8677,-0.3251,0.2363
1777283876.4800913,L_Tibia,2.0576,-0.9857,9.6708,-0.1831,-0.2441,0.4883,-5.8337,-11.9312,147.2717,-0.1139,0.0193,0.9545,0.2748
1777283876.4800913,L_Foot,0.445,-0.7704,-9.4459,-0.6714,-0.3052,0.3052,-175.3143,-2.6752,-110.8136,-0.5663,-0.8228,-0.0204,0.0424
1777283876.4800913,R_Femur,-2.5361,8.7138,3.6559,0.6104,-0.5493,-0.5493,67.2253,15.0183,-157.7966,-0.0011,0.5595,-0.7963,0.23
1777283876.4800913,R_Tibia,6.6562,-6.972,-1.2202,0.1831,-0.1831,0.3662,-99.9536,-43.2806,158.8403,-0.3638,0.6562,0.6395,-0.1678
1777283876.4800913,R_Foot,-9.532,-0.0239,-1.9619,0.4883,0.0,-0.061,-179.2365,78.3545,66.0828,-0.6475,0.4262,-0.5267,0.3488
1777283876.4800913,Trunk,-1.2489,6.2686,-7.2017,0.9766,-0.061,-0.6104,138.9386,7.5531,35.6781,0.8966,-0.2643,0.1659,0.3142
1777283876.4800913,L_Femur,2.115,-6.7758,-6.5317,0.3052,-0.4883,-0.1221,-133.9453,-12.6947,-137.3126,-0.2926,-0.8677,-0.3251,0.2363
1777283876.4800913,L_Tibia,2.0528,-0.9857,9.6708,-0.3052,-0.2441,0.4883,-5.8337,-11.9312,147.2717,-0.1139,0.0193,0.9545,0.2748
1777283876.4800913,L_Foot,0.445,-0.7704,-9.4459,-0.6714,-0.3052,0.3052,-175.3143,-2.6752,-110.8136,-0.5663,-0.8228,-0.0204,0.0424
1777283876.4800913,R_Femur,-2.5361,8.7138,3.6559,0.6104,-0.5493,-0.5493,67.2253,15.0183,-157.7966,-0.0011,0.5595,-0.7963,0.23
1777283876.4800913,R_Tibia,6.6562,-6.972,-1.2202,0.1831,-0.1831,0.3662,-99.9536,-43.2806,158.8403,-0.3638,0.6562,0.6395,-0.1678
1777283876.4800913,R_Foot,-9.532,-0.0239,-1.9619,0.4883,0.0,-0.061,-179.2365,78.3545,66.0828,-0.6475,0.4262,-0.5267,0.3488
1777283876.4800913,Trunk,-1.2489,6.2686,-7.2017,0.9766,-0.061,-0.6104,138.9386,7.5531,35.6781,0.8966,-0.2643,0.1659,0.3142
1777283876.4800913,L_Femur,2.115,-6.7758,-6.5317,0.3052,-0.4883,-0.1221,-133.9453,-12.6947,-137.3126,-0.2926,-0.8677,-0.3251,0.2363
1777283876.4800913,L_Tibia,2.0528,-0.9857,9.6708,-0.3052,-0.2441,0.4883,-5.8337,-11.9312,147.2717,-0.1139,0.0193,0.9545,0.2748
1777283876.4800913,L_Foot,0.4402,-0.7752,-9.4459,-0.6104,-0.3662,0.3052,-175.3143,-2.6752,-110.8136,-0.5663,-0.8228,-0.0204,0.0424
1777283876.4800913,R_Femur,-2.5361,8.7138,3.6559,0.6104,-0.5493,-0.5493,67.2253,15.0183,-157.7966,-0.0011,0.5595,-0.7963,0.23
1777283876.4800913,R_Tibia,6.6562,-6.972,-1.2202,0.1831,-0.1831,0.3662,-99.9536,-43.2806,158.8403,-0.3638,0.6562,0.6395,-0.1678
1777283876.4800913,R_Foot,-9.532,-0.0239,-1.9619,0.4883,0.0,-0.061,-179.2365,78.3545,66.0828,-0.6475,0.4262,-0.5267,0.3488
1777283876.480891,Trunk,-1.2489,6.2686,-7.2017,0.9766,-0.061,-0.6104,138.9386,7.5531,35.6781,0.8966,-0.2643,0.1659,0.3142
1777283876.480891,L_Femur,2.115,-6.7758,-6.5317,0.3052,-0.4883,-0.1221,-133.9453,-12.6947,-137.3126,-0.2926,-0.8677,-0.3251,0.2363
1777283876.480891,L_Tibia,2.0528,-0.9857,9.6708,-0.3052,-0.2441,0.4883,-5.8337,-11.9312,147.2717,-0.1139,0.0193,0.9545,0.2748
1777283876.480891,L_Foot,0.4402,-0.7752,-9.4459,-0.6104,-0.3662,0.3052,-175.3143,-2.6752,-110.8136,-0.5663,-0.8228,-0.0204,0.0424
1777283876.480891,R_Femur,-2.5361,8.7186,3.6606,0.5493,-0.5493,-0.6104,67.2253,15.0183,-157.7966,-0.0011,0.5595,-0.7963,0.23
1777283876.480891,R_Tibia,6.6562,-6.972,-1.2202,0.1831,-0.1831,0.3662,-99.9536,-43.2806,158.8403,-0.3638,0.6562,0.6395,-0.1678
1777283876.480891,R_Foot,-9.532,-0.0239,-1.9619,0.4883,0.0,-0.061,-179.2365,78.3545,66.0828,-0.6475,0.4262,-0.5267,0.3488
1777283876.480891,Trunk,-1.2489,6.2686,-7.2017,0.9766,-0.061,-0.6104,138.9386,7.5531,35.6781,0.8966,-0.2643,0.1659,0.3142
1777283876.480891,L_Femur,2.115,-6.7758,-6.5317,0.3052,-0.4883,-0.1221,-133.9453,-12.6947,-137.3126,-0.2926,-0.8677,-0.3251,0.2363
1777283876.480891,L_Tibia,2.0528,-0.9857,9.6708,-0.3052,-0.2441,0.4883,-5.8337,-11.9312,147.2717,-0.1139,0.0193,0.9545,0.2748
1777283876.480891,L_Foot,0.4402,-0.7752,-9.4459,-0.6104,-0.3662,0.3052,-175.3143,-2.6752,-110.8136,-0.5663,-0.8228,-0.0204,0.0424
1777283876.480891,R_Femur,-2.5361,8.7186,3.6606,0.5493,-0.5493,-0.6104,67.2253,15.0183,-157.7966,-0.0011,0.5595,-0.7963,0.23
1777283876.480891,R_Tibia,6.6562,-6.972,-1.2202,0.1831,-0.1831,0.3662,-99.9536,-43.2806,158.8403,-0.3638,0.6562,0.6395,-0.1678
1777283876.480891,R_Foot,-9.5368,-0.0287,-1.9667,0.4883,0.0,-0.061,-179.2365,78.3545,66.0828,-0.6475,0.4262,-0.5267,0.3488
1777283876.480891,Trunk,-1.2585,6.2733,-7.1969,0.9766,-0.061,-0.6104,138.9386,7.5531,35.6781,0.8966,-0.2643,0.1659,0.3142
1777283876.480891,L_Femur,2.115,-6.7758,-6.5317,0.3052,-0.4883,-0.1221,-133.9453,-12.6947,-137.3126,-0.2926,-0.8677,-0.3251,0.2363
1777283876.480891,L_Tibia,2.0528,-0.9857,9.6708,-0.3052,-0.2441,0.4883,-5.8337,-11.9312,147.2717,-0.1139,0.0193,0.9545,0.2748
1777283876.480891,L_Foot,0.4402,-0.7752,-9.4459,-0.6104,-0.3662,0.3052,-175.3143,-2.6752,-110.8136,-0.5663,-0.8228,-0.0204,0.0424
1777283876.480891,R_Femur,-2.5361,8.7186,3.6606,0.5493,-0.5493,-0.6104,67.2253,15.0183,-157.7966,-0.0011,0.5595,-0.7963,0.23
1777283876.480891,R_Tibia,6.6562,-6.972,-1.2202,0.1831,-0.1831,0.3662,-99.9536,-43.2806,158.8403,-0.3638,0.6562,0.6395,-0.1678
1777283876.480891,R_Foot,-9.5368,-0.0287,-1.9667,0.4883,0.0,-0.061,-179.2365,78.3545,66.0828,-0.6475,0.4262,-0.5267,0.3488
1777283876.480891,Trunk,-1.2585,6.2733,-7.1969,0.9766,-0.061,-0.6104,138.9386,7.5531,35.6781,0.8966,-0.2643,0.1659,0.3142
1777283876.480891,L_Femur,2.1198,-6.7806,-6.5317,0.3052,-0.4272,-0.1221,-133.9453,-12.6947,-137.3126,-0.2926,-0.8677,-0.3251,0.2363
1777283876.480891,L_Tibia,2.0528,-0.9857,9.6708,-0.3052,-0.2441,0.4883,-5.8337,-11.9312,147.2717,-0.1139,0.0193,0.9545,0.2748
1777283876.480891,L_Foot,0.4402,-0.7752,-9.4459,-0.6104,-0.3662,0.3052,-175.3143,-2.6752,-110.8136,-0.5663,-0.8228,-0.0204,0.0424
1777283876.480891,R_Femur,-2.5361,8.7186,3.6606,0.5493,-0.5493,-0.6104,67.2253,15.0183,-157.7966,-0.0011,0.5595,-0.7963,0.23
1777283876.480891,R_Tibia,6.6562,-6.972,-1.2202,0.1831,-0.1831,0.3662,-99.9536,-43.2806,158.8403,-0.3638,0.6562,0.6395,-0.1678
1777283876.480891,R_Foot,-9.5368,-0.0287,-1.9667,0.4883,0.0,-0.061,-179.2365,78.3545,66.0828,-0.6475,0.4262,-0.5267,0.3488
1777283876.482024,Trunk,-1.2585,6.2733,-7.1969,0.9766,-0.061,-0.6104,138.9386,7.5531,35.6781,0.8966,-0.2643,0.1659,0.3142
1777283876.482024,L_Femur,2.1198,-6.7806,-6.5317,0.3052,-0.4272,-0.1221,-133.9453,-12.6947,-137.3126,-0.2926,-0.8677,-0.3251,0.2363
1777283876.482024,L_Tibia,2.0576,-0.9905,9.666,-0.3052,-0.2441,0.4883,-5.8337,-11.9312,147.2717,-0.1139,0.0193,0.9545,0.2748
1777283876.482024,L_Foot,0.4402,-0.7752,-9.4459,-0.6104,-0.3662,0.3052,-175.3143,-2.6752,-110.8136,-0.5663,-0.8228,-0.0204,0.0424
1777283876.482024,R_Femur,-2.5361,8.7186,3.6606,0.5493,-0.5493,-0.6104,67.2253,15.0183,-157.7966,-0.0011,0.5595,-0.7963,0.23
1777283876.482024,R_Tibia,6.6562,-6.972,-1.2202,0.1831,-0.1831,0.3662,-99.9536,-43.2806,158.8403,-0.3638,0.6562,0.6395,-0.1678
1777283876.482024,R_Foot,-9.5368,-0.0287,-1.9667,0.4883,0.0,-0.061,-179.2365,78.3545,66.0828,-0.6475,0.4262,-0.5267,0.3488
1777283876.482024,Trunk,-1.2585,6.2733,-7.1969,0.9766,-0.061,-0.6104,138.9386,7.5531,35.6781,0.8966,-0.2643,0.1659,0.3142
1777283876.482024,L_Femur,2.1198,-6.7806,-6.5317,0.3052,-0.4272,-0.1221,-133.9453,-12.6947,-137.3126,-0.2926,-0.8677,-0.3251,0.2363
1777283876.482024,L_Tibia,2.0576,-0.9905,9.666,-0.3052,-0.2441,0.4883,-5.8337,-11.9312,147.2717,-0.1139,0.0193,0.9545,0.2748
1777283876.482024,L_Foot,0.445,-0.7752,-9.4411,-0.6714,-0.3052,0.3052,-175.3143,-2.6752,-110.8136,-0.5663,-0.8228,-0.0204,0.0424
1777283876.482024,R_Femur,-2.5361,8.7186,3.6606,0.5493,-0.5493,-0.6104,67.2253,15.0183,-157.7966,-0.0011,0.5595,-0.7963,0.23
1777283876.482024,R_Tibia,6.6562,-6.972,-1.2202,0.1831,-0.1831,0.3662,-99.9536,-43.2806,158.8403,-0.3638,0.6562,0.6395,-0.1678
1777283876.482024,R_Foot,-9.5368,-0.0287,-1.9667,0.4883,0.0,-0.061,-179.2365,78.3545,66.0828,-0.6475,0.4262,-0.5267,0.3488
1777283876.482024,Trunk,-1.2585,6.2733,-7.1969,0.9766,-0.061,-0.6104,138.9386,7.5531,35.6781,0.8966,-0.2643,0.1659,0.3142
1777283876.482024,L_Femur,2.1198,-6.7806,-6.5317,0.3052,-0.4272,-0.1221,-133.9453,-12.6947,-137.3126,-0.2926,-0.8677,-0.3251,0.2363
1777283876.482024,L_Tibia,2.0576,-0.9905,9.666,-0.3052,-0.2441,0.4883,-5.8337,-11.9312,147.2717,-0.1139,0.0193,0.9545,0.2748
1777283876.482024,L_Foot,0.445,-0.7752,-9.4411,-0.6714,-0.3052,0.3052,-175.3143,-2.6752,-110.8136,-0.5663,-0.8228,-0.0204,0.0424
1777283876.482024,R_Femur,-2.5361,8.7186,3.6606,0.5493,-0.4883,-0.6104,67.2253,15.0183,-157.7966,-0.0011,0.5595,-0.7963,0.23
1777283876.482024,R_Tibia,6.6562,-6.972,-1.2202,0.1831,-0.1831,0.3662,-99.9536,-43.2806,158.8403,-0.3638,0.6562,0.6395,-0.1678
1777283876.482024,R_Foot,-9.5368,-0.0287,-1.9667,0.4883,0.0,-0.061,-179.2365,78.3545,66.0828,-0.6475,0.4262,-0.5267,0.3488
1777283876.482024,Trunk,-1.2585,6.2733,-7.1969,0.9766,-0.061,-0.6104,138.9386,7.5531,35.6781,0.8966,-0.2643,0.1659,0.3142
1777283876.482024,L_Femur,2.1198,-6.7806,-6.5317,0.3052,-0.4272,-0.1221,-133.9453,-12.6947,-137.3126,-0.2926,-0.8677,-0.3251,0.2363
1777283876.482024,L_Tibia,2.0576,-0.9905,9.666,-0.3052,-0.2441,0.4883,-5.8337,-11.9312,147.2717,-0.1139,0.0193,0.9545,0.2748
1777283876.482024,L_Foot,0.445,-0.7752,-9.4411,-0.6714,-0.3052,0.3052,-175.3143,-2.6752,-110.8136,-0.5663,-0.8228,-0.0204,0.0424
1777283876.482024,R_Femur,-2.5361,8.7186,3.6606,0.5493,-0.4883,-0.6104,67.2253,15.0183,-157.7966,-0.0011,0.5595,-0.7963,0.23
1777283876.482024,R_Tibia,6.6609,-6.9672,-1.225,0.1831,-0.1831,0.3662,-99.9536,-43.2806,158.8403,-0.3638,0.6562,0.6395,-0.1678
1777283876.482024,R_Foot,-9.5368,-0.0287,-1.9667,0.4883,0.0,-0.061,-179.2365,78.3545,66.0828,-0.6475,0.4262,-0.5267,0.3488
1777283876.5738873,Trunk,-1.2729,6.2733,-7.1921,0.9766,-0.061,-0.6104,138.9386,7.5531,35.6781,0.8966,-0.2643,0.1659,0.3142
1777283876.5738873,L_Femur,2.1198,-6.7806,-6.5317,0.3052,-0.4272,-0.1221,-133.9453,-12.6947,-137.3126,-0.2926,-0.8677,-0.3251,0.2363
1777283876.5738873,L_Tibia,2.0576,-0.9905,9.666,-0.3052,-0.2441,0.4883,-5.8337,-11.9312,147.2717,-0.1139,0.0193,0.9545,0.2748
1777283876.5738873,L_Foot,0.445,-0.7752,-9.4411,-0.6714,-0.3052,0.3052,-175.3143,-2.6752,-110.8136,-0.5663,-0.8228,-0.0204,0.0424
1777283876.5738873,R_Femur,-2.5361,8.7186,3.6606,0.5493,-0.4883,-0.6104,67.2253,15.0183,-157.7966,-0.0011,0.5595,-0.7963,0.23
1777283876.5738873,R_Tibia,6.6609,-6.9672,-1.225,0.1831,-0.1831,0.3662,-99.9536,-43.2806,158.8403,-0.3638,0.6562,0.6395,-0.1678
1777283876.5738873,R_Foot,-9.5368,-0.0287,-1.9667,0.4883,0.0,-0.061,-179.2365,78.3545,66.0828,-0.6475,0.4262,-0.5267,0.3488
1777283876.5748882,Trunk,-1.2729,6.2733,-7.1921,0.9766,-0.061,-0.6104,138.9386,7.5531,35.6781,0.8966,-0.2643,0.1659,0.3142
1777283876.5748882,L_Femur,2.1198,-6.7758,-6.5317,0.3662,-0.4883,-0.1221,-133.9508,-12.6947,-137.3071,-0.2927,-0.8677,-0.325,0.2363
1777283876.5748882,L_Tibia,2.0576,-0.9905,9.666,-0.3052,-0.2441,0.4883,-5.8337,-11.9312,147.2717,-0.1139,0.0193,0.9545,0.2748
1777283876.5748882,L_Foot,0.445,-0.7752,-9.4411,-0.6714,-0.3052,0.3052,-175.3143,-2.6752,-110.8136,-0.5663,-0.8228,-0.0204,0.0424
1777283876.5748882,R_Femur,-2.5361,8.7186,3.6606,0.5493,-0.4883,-0.6104,67.2253,15.0183,-157.7966,-0.0011,0.5595,-0.7963,0.23
1777283876.5748882,R_Tibia,6.6609,-6.9672,-1.225,0.1831,-0.1831,0.3662,-99.9536,-43.2806,158.8403,-0.3638,0.6562,0.6395,-0.1678
1777283876.5748882,R_Foot,-9.5368,-0.0287,-1.9667,0.4883,0.0,-0.061,-179.2365,78.3545,66.0828,-0.6475,0.4262,-0.5267,0.3488
1777283876.5748882,Trunk,-1.2729,6.2733,-7.1921,0.9766,-0.061,-0.6104,138.9386,7.5531,35.6781,0.8966,-0.2643,0.1659,0.3142
1777283876.5748882,L_Femur,2.1198,-6.7758,-6.5317,0.3662,-0.4883,-0.1221,-133.9508,-12.6947,-137.3071,-0.2927,-0.8677,-0.325,0.2363
1777283876.5748882,L_Tibia,2.0528,-0.9905,9.666,-0.2441,-0.2441,0.4883,-5.8337,-11.9312,147.2717,-0.1139,0.0193,0.9545,0.2748
1777283876.5748882,L_Foot,0.445,-0.7752,-9.4411,-0.6714,-0.3052,0.3052,-175.3143,-2.6752,-110.8136,-0.5663,-0.8228,-0.0204,0.0424
1777283876.5748882,R_Femur,-2.5361,8.7186,3.6606,0.5493,-0.4883,-0.6104,67.2253,15.0183,-157.7966,-0.0011,0.5595,-0.7963,0.23
1777283876.5748882,R_Tibia,6.6609,-6.9672,-1.225,0.1831,-0.1831,0.3662,-99.9536,-43.2806,158.8403,-0.3638,0.6562,0.6395,-0.1678
1777283876.5748882,R_Foot,-9.5368,-0.0287,-1.9667,0.4883,0.0,-0.061,-179.2365,78.3545,66.0828,-0.6475,0.4262,-0.5267,0.3488
1777283876.5748882,Trunk,-1.2729,6.2733,-7.1921,0.9766,-0.061,-0.6104,138.9386,7.5531,35.6781,0.8966,-0.2643,0.1659,0.3142
1777283876.5748882,L_Femur,2.1198,-6.7758,-6.5317,0.3662,-0.4883,-0.1221,-133.9508,-12.6947,-137.3071,-0.2927,-0.8677,-0.325,0.2363
1777283876.5748882,L_Tibia,2.0528,-0.9905,9.666,-0.2441,-0.2441,0.4883,-5.8337,-11.9312,147.2717,-0.1139,0.0193,0.9545,0.2748
1777283876.5748882,L_Foot,0.445,-0.7704,-9.4459,-0.6104,-0.3662,0.3052,-175.3143,-2.6752,-110.8136,-0.5663,-0.8228,-0.0204,0.0424
1777283876.5748882,R_Femur,-2.5361,8.7186,3.6606,0.5493,-0.4883,-0.6104,67.2253,15.0183,-157.7966,-0.0011,0.5595,-0.7963,0.23
1777283876.5748882,R_Tibia,6.6609,-6.9672,-1.225,0.1831,-0.1831,0.3662,-99.9536,-43.2806,158.8403,-0.3638,0.6562,0.6395,-0.1678
1777283876.5748882,R_Foot,-9.5368,-0.0287,-1.9667,0.4883,0.0,-0.061,-179.2365,78.3545,66.0828,-0.6475,0.4262,-0.5267,0.3488
1777283876.5758855,Trunk,-1.2729,6.2733,-7.1921,0.9766,-0.061,-0.6104,138.9386,7.5531,35.6781,0.8966,-0.2643,0.1659,0.3142
1777283876.5758855,L_Femur,2.1198,-6.7758,-6.5317,0.3662,-0.4883,-0.1221,-133.9508,-12.6947,-137.3071,-0.2927,-0.8677,-0.325,0.2363
1777283876.5758855,L_Tibia,2.0528,-0.9905,9.666,-0.2441,-0.2441,0.4883,-5.8337,-11.9312,147.2717,-0.1139,0.0193,0.9545,0.2748
1777283876.5758855,L_Foot,0.445,-0.7704,-9.4459,-0.6104,-0.3662,0.3052,-175.3143,-2.6752,-110.8136,-0.5663,-0.8228,-0.0204,0.0424
1777283876.5758855,R_Femur,-2.5313,8.7233,3.6606,0.6104,-0.5493,-0.6104,67.2253,15.0183,-157.7966,-0.0011,0.5595,-0.7963,0.23
1777283876.5758855,R_Tibia,6.6609,-6.9672,-1.225,0.1831,-0.1831,0.3662,-99.9536,-43.2806,158.8403,-0.3638,0.6562,0.6395,-0.1678
1777283876.5758855,R_Foot,-9.5368,-0.0287,-1.9667,0.4883,0.0,-0.061,-179.2365,78.3545,66.0828,-0.6475,0.4262,-0.5267,0.3488
1777283876.5758855,Trunk,-1.2729,6.2733,-7.1921,0.9766,-0.061,-0.6104,138.9386,7.5531,35.6781,0.8966,-0.2643,0.1659,0.3142
1777283876.5758855,L_Femur,2.1198,-6.7758,-6.5317,0.3662,-0.4883,-0.1221,-133.9508,-12.6947,-137.3071,-0.2927,-0.8677,-0.325,0.2363
1777283876.5758855,L_Tibia,2.0528,-0.9905,9.666,-0.2441,-0.2441,0.4883,-5.8337,-11.9312,147.2717,-0.1139,0.0193,0.9545,0.2748
1777283876.5758855,L_Foot,0.445,-0.7704,-9.4459,-0.6104,-0.3662,0.3052,-175.3143,-2.6752,-110.8136,-0.5663,-0.8228,-0.0204,0.0424
1777283876.5758855,R_Femur,-2.5313,8.7233,3.6606,0.6104,-0.5493,-0.6104,67.2253,15.0183,-157.7966,-0.0011,0.5595,-0.7963,0.23
1777283876.5758855,R_Tibia,6.6609,-6.9672,-1.225,0.1831,-0.1831,0.3662,-99.9536,-43.2806,158.8403,-0.3638,0.6562,0.6395,-0.1678
1777283876.5758855,R_Foot,-9.532,-0.0287,-1.9619,0.4883,-0.061,-0.061,-179.2365,78.3545,66.0828,-0.6475,0.4262,-0.5267,0.3488
1777283876.5758855,Trunk,-1.2872,6.2733,-7.1873,0.9766,-0.1221,-0.6104,138.9386,7.5531,35.6781,0.8966,-0.2643,0.1659,0.3142
1777283876.5758855,L_Femur,2.1198,-6.7758,-6.5317,0.3662,-0.4883,-0.1221,-133.9508,-12.6947,-137.3071,-0.2927,-0.8677,-0.325,0.2363
1777283876.5758855,L_Tibia,2.0528,-0.9905,9.666,-0.2441,-0.2441,0.4883,-5.8337,-11.9312,147.2717,-0.1139,0.0193,0.9545,0.2748
1777283876.5758855,L_Foot,0.445,-0.7704,-9.4459,-0.6104,-0.3662,0.3052,-175.3143,-2.6752,-110.8136,-0.5663,-0.8228,-0.0204,0.0424
1777283876.5758855,R_Femur,-2.5313,8.7233,3.6606,0.6104,-0.5493,-0.6104,67.2253,15.0183,-157.7966,-0.0011,0.5595,-0.7963,0.23
1777283876.5758855,R_Tibia,6.6609,-6.9672,-1.225,0.1831,-0.1831,0.3662,-99.9536,-43.2806,158.8403,-0.3638,0.6562,0.6395,-0.1678
1777283876.5758855,R_Foot,-9.532,-0.0287,-1.9619,0.4883,-0.061,-0.061,-179.2365,78.3545,66.0828,-0.6475,0.4262,-0.5267,0.3488
1777283876.5768895,Trunk,-1.2872,6.2733,-7.1873,0.9766,-0.1221,-0.6104,138.9386,7.5531,35.6781,0.8966,-0.2643,0.1659,0.3142
1777283876.5768895,L_Femur,2.115,-6.7806,-6.5317,0.3052,-0.4272,-0.061,-133.9508,-12.6947,-137.3071,-0.2927,-0.8677,-0.325,0.2363
1777283876.5768895,L_Tibia,2.0528,-0.9905,9.666,-0.2441,-0.2441,0.4883,-5.8337,-11.9312,147.2717,-0.1139,0.0193,0.9545,0.2748
1777283876.5768895,L_Foot,0.445,-0.7704,-9.4459,-0.6104,-0.3662,0.3052,-175.3143,-2.6752,-110.8136,-0.5663,-0.8228,-0.0204,0.0424
1777283876.5768895,R_Femur,-2.5313,8.7233,3.6606,0.6104,-0.5493,-0.6104,67.2253,15.0183,-157.7966,-0.0011,0.5595,-0.7963,0.23
1777283876.5768895,R_Tibia,6.6609,-6.9672,-1.225,0.1831,-0.1831,0.3662,-99.9536,-43.2806,158.8403,-0.3638,0.6562,0.6395,-0.1678
1777283876.5768895,R_Foot,-9.532,-0.0287,-1.9619,0.4883,-0.061,-0.061,-179.2365,78.3545,66.0828,-0.6475,0.4262,-0.5267,0.3488
1777283876.5768895,Trunk,-1.2872,6.2733,-7.1873,0.9766,-0.1221,-0.6104,138.9386,7.5531,35.6781,0.8966,-0.2643,0.1659,0.3142
1777283876.5768895,L_Femur,2.115,-6.7806,-6.5317,0.3052,-0.4272,-0.061,-133.9508,-12.6947,-137.3071,-0.2927,-0.8677,-0.325,0.2363
1777283876.5768895,L_Tibia,2.0528,-0.9857,9.6708,-0.2441,-0.2441,0.4883,-5.8337,-11.9312,147.2717,-0.1139,0.0193,0.9545,0.2748
1777283876.5768895,L_Foot,0.445,-0.7704,-9.4459,-0.6104,-0.3662,0.3052,-175.3143,-2.6752,-110.8136,-0.5663,-0.8228,-0.0204,0.0424
1777283876.5768895,R_Femur,-2.5313,8.7233,3.6606,0.6104,-0.5493,-0.6104,67.2253,15.0183,-157.7966,-0.0011,0.5595,-0.7963,0.23
1777283876.5768895,R_Tibia,6.6609,-6.9672,-1.225,0.1831,-0.1831,0.3662,-99.9536,-43.2806,158.8403,-0.3638,0.6562,0.6395,-0.1678
1777283876.5768895,R_Foot,-9.532,-0.0287,-1.9619,0.4883,-0.061,-0.061,-179.2365,78.3545,66.0828,-0.6475,0.4262,-0.5267,0.3488
1777283876.5768895,Trunk,-1.2872,6.2733,-7.1873,0.9766,-0.1221,-0.6104,138.9386,7.5531,35.6781,0.8966,-0.2643,0.1659,0.3142
1777283876.5768895,L_Femur,2.115,-6.7806,-6.5317,0.3052,-0.4272,-0.061,-133.9508,-12.6947,-137.3071,-0.2927,-0.8677,-0.325,0.2363
1777283876.5768895,L_Tibia,2.0528,-0.9857,9.6708,-0.2441,-0.2441,0.4883,-5.8337,-11.9312,147.2717,-0.1139,0.0193,0.9545,0.2748
1777283876.5768895,L_Foot,0.445,-0.7752,-9.4507,-0.6714,-0.3662,0.3052,-175.3143,-2.6752,-110.8136,-0.5663,-0.8228,-0.0204,0.0424
1777283876.5768895,R_Femur,-2.5313,8.7233,3.6606,0.6104,-0.5493,-0.6104,67.2253,15.0183,-157.7966,-0.0011,0.5595,-0.7963,0.23
1777283876.5768895,R_Tibia,6.6609,-6.9672,-1.225,0.1831,-0.1831,0.3662,-99.9536,-43.2806,158.8403,-0.3638,0.6562,0.6395,-0.1678
1777283876.5768895,R_Foot,-9.532,-0.0287,-1.9619,0.4883,-0.061,-0.061,-179.2365,78.3545,66.0828,-0.6475,0.4262,-0.5267,0.3488
1777283876.5768895,Trunk,-1.2872,6.2733,-7.1873,0.9766,-0.1221,-0.6104,138.9386,7.5531,35.6781,0.8966,-0.2643,0.1659,0.3142
1777283876.5768895,L_Femur,2.115,-6.7806,-6.5317,0.3052,-0.4272,-0.061,-133.9508,-12.6947,-137.3071,-0.2927,-0.8677,-0.325,0.2363
1777283876.5768895,L_Tibia,2.0528,-0.9857,9.6708,-0.2441,-0.2441,0.4883,-5.8337,-11.9312,147.2717,-0.1139,0.0193,0.9545,0.2748
1777283876.5768895,L_Foot,0.445,-0.7752,-9.4507,-0.6714,-0.3662,0.3052,-175.3143,-2.6752,-110.8136,-0.5663,-0.8228,-0.0204,0.0424
1777283876.5768895,R_Femur,-2.5409,8.7186,3.6606,0.5493,-0.6104,-0.6104,67.2253,15.0183,-157.7966,-0.0011,0.5595,-0.7963,0.23
1777283876.5768895,R_Tibia,6.6609,-6.9672,-1.225,0.1831,-0.1831,0.3662,-99.9536,-43.2806,158.8403,-0.3638,0.6562,0.6395,-0.1678
1777283876.5768895,R_Foot,-9.532,-0.0287,-1.9619,0.4883,-0.061,-0.061,-179.2365,78.3545,66.0828,-0.6475,0.4262,-0.5267,0.3488
1777283876.5778856,Trunk,-1.2872,6.2733,-7.1873,0.9766,-0.1221,-0.6104,138.9386,7.5531,35.6781,0.8966,-0.2643,0.1659,0.3142
1777283876.5778856,L_Femur,2.115,-6.7806,-6.5317,0.3052,-0.4272,-0.061,-133.9508,-12.6947,-137.3071,-0.2927,-0.8677,-0.325,0.2363
1777283876.5778856,L_Tibia,2.0528,-0.9857,9.6708,-0.2441,-0.2441,0.4883,-5.8337,-11.9312,147.2717,-0.1139,0.0193,0.9545,0.2748
1777283876.5778856,L_Foot,0.445,-0.7752,-9.4507,-0.6714,-0.3662,0.3052,-175.3143,-2.6752,-110.8136,-0.5663,-0.8228,-0.0204,0.0424
1777283876.5778856,R_Femur,-2.5409,8.7186,3.6606,0.5493,-0.6104,-0.6104,67.2253,15.0183,-157.7966,-0.0011,0.5595,-0.7963,0.23
1777283876.5778856,R_Tibia,6.6657,-6.972,-1.225,0.1831,-0.1831,0.3662,-99.9536,-43.2806,158.8403,-0.3638,0.6562,0.6395,-0.1678
1777283876.5778856,R_Foot,-9.532,-0.0287,-1.9619,0.4883,-0.061,-0.061,-179.2365,78.3545,66.0828,-0.6475,0.4262,-0.5267,0.3488
1777283876.5778856,Trunk,-1.2968,6.2733,-7.1825,1.0376,-0.1221,-0.5493,138.9386,7.5531,35.6781,0.8966,-0.2643,0.1659,0.3142
1777283876.5778856,L_Femur,2.115,-6.7806,-6.5317,0.3052,-0.4272,-0.061,-133.9508,-12.6947,-137.3071,-0.2927,-0.8677,-0.325,0.2363
1777283876.5778856,L_Tibia,2.0528,-0.9857,9.6708,-0.2441,-0.2441,0.4883,-5.8337,-11.9312,147.2717,-0.1139,0.0193,0.9545,0.2748
1777283876.5778856,L_Foot,0.445,-0.7752,-9.4507,-0.6714,-0.3662,0.3052,-175.3143,-2.6752,-110.8136,-0.5663,-0.8228,-0.0204,0.0424
1777283876.5778856,R_Femur,-2.5409,8.7186,3.6606,0.5493,-0.6104,-0.6104,67.2253,15.0183,-157.7966,-0.0011,0.5595,-0.7963,0.23
1777283876.5778856,R_Tibia,6.6657,-6.972,-1.225,0.1831,-0.1831,0.3662,-99.9536,-43.2806,158.8403,-0.3638,0.6562,0.6395,-0.1678
1777283876.5778856,R_Foot,-9.532,-0.0287,-1.9619,0.4883,-0.061,-0.061,-179.2365,78.3545,66.0828,-0.6475,0.4262,-0.5267,0.3488
1777283876.5778856,Trunk,-1.2968,6.2733,-7.1825,1.0376,-0.1221,-0.5493,138.9386,7.5531,35.6781,0.8966,-0.2643,0.1659,0.3142
1777283876.5778856,L_Femur,2.115,-6.7806,-6.527,0.3052,-0.4883,-0.1221,-133.9508,-12.6947,-137.3071,-0.2927,-0.8677,-0.325,0.2363
1777283876.5778856,L_Tibia,2.0528,-0.9857,9.6708,-0.2441,-0.2441,0.4883,-5.8337,-11.9312,147.2717,-0.1139,0.0193,0.9545,0.2748
1777283876.5778856,L_Foot,0.445,-0.7752,-9.4507,-0.6714,-0.3662,0.3052,-175.3143,-2.6752,-110.8136,-0.5663,-0.8228,-0.0204,0.0424
1777283876.5778856,R_Femur,-2.5409,8.7186,3.6606,0.5493,-0.6104,-0.6104,67.2253,15.0183,-157.7966,-0.0011,0.5595,-0.7963,0.23
1777283876.5778856,R_Tibia,6.6657,-6.972,-1.225,0.1831,-0.1831,0.3662,-99.9536,-43.2806,158.8403,-0.3638,0.6562,0.6395,-0.1678
1777283876.5778856,R_Foot,-9.532,-0.0287,-1.9619,0.4883,-0.061,-0.061,-179.2365,78.3545,66.0828,-0.6475,0.4262,-0.5267,0.3488
1777283876.5778856,Trunk,-1.2968,6.2733,-7.1825,1.0376,-0.1221,-0.5493,138.9386,7.5531,35.6781,0.8966,-0.2643,0.1659,0.3142
1777283876.5778856,L_Femur,2.115,-6.7806,-6.527,0.3052,-0.4883,-0.1221,-133.9508,-12.6947,-137.3071,-0.2927,-0.8677,-0.325,0.2363
1777283876.5778856,L_Tibia,2.0528,-0.9857,9.6756,-0.2441,-0.2441,0.4883,-5.8337,-11.9312,147.2717,-0.1139,0.0193,0.9545,0.2748
1777283876.5778856,L_Foot,0.445,-0.7752,-9.4507,-0.6714,-0.3662,0.3052,-175.3143,-2.6752,-110.8136,-0.5663,-0.8228,-0.0204,0.0424
1777283876.5778856,R_Femur,-2.5409,8.7186,3.6606,0.5493,-0.6104,-0.6104,67.2253,15.0183,-157.7966,-0.0011,0.5595,-0.7963,0.23
1777283876.5778856,R_Tibia,6.6657,-6.972,-1.225,0.1831,-0.1831,0.3662,-99.9536,-43.2806,158.8403,-0.3638,0.6562,0.6395,-0.1678
1777283876.5778856,R_Foot,-9.532,-0.0287,-1.9619,0.4883,-0.061,-0.061,-179.2365,78.3545,66.0828,-0.6475,0.4262,-0.5267,0.3488
1777283876.578886,Trunk,-1.2968,6.2733,-7.1825,1.0376,-0.1221,-0.5493,138.9386,7.5531,35.6781,0.8966,-0.2643,0.1659,0.3142
1777283876.578886,L_Femur,2.115,-6.7806,-6.527,0.3052,-0.4883,-0.1221,-133.9508,-12.6947,-137.3071,-0.2927,-0.8677,-0.325,0.2363
1777283876.578886,L_Tibia,2.0528,-0.9857,9.6756,-0.2441,-0.2441,0.4883,-5.8337,-11.9312,147.2717,-0.1139,0.0193,0.9545,0.2748
1777283876.578886,L_Foot,0.445,-0.7752,-9.4507,-0.6104,-0.3052,0.3052,-175.3143,-2.6752,-110.8136,-0.5663,-0.8228,-0.0204,0.0424
1777283876.578886,R_Femur,-2.5409,8.7186,3.6606,0.5493,-0.6104,-0.6104,67.2253,15.0183,-157.7966,-0.0011,0.5595,-0.7963,0.23
1777283876.578886,R_Tibia,6.6657,-6.972,-1.225,0.1831,-0.1831,0.3662,-99.9536,-43.2806,158.8403,-0.3638,0.6562,0.6395,-0.1678
1777283876.578886,R_Foot,-9.532,-0.0287,-1.9619,0.4883,-0.061,-0.061,-179.2365,78.3545,66.0828,-0.6475,0.4262,-0.5267,0.3488
1777283876.578886,Trunk,-1.2968,6.2733,-7.1825,1.0376,-0.1221,-0.5493,138.9386,7.5531,35.6781,0.8966,-0.2643,0.1659,0.3142
1777283876.578886,L_Femur,2.115,-6.7806,-6.527,0.3052,-0.4883,-0.1221,-133.9508,-12.6947,-137.3071,-0.2927,-0.8677,-0.325,0.2363
1777283876.578886,L_Tibia,2.0528,-0.9857,9.6756,-0.2441,-0.2441,0.4883,-5.8337,-11.9312,147.2717,-0.1139,0.0193,0.9545,0.2748
1777283876.578886,L_Foot,0.445,-0.7752,-9.4507,-0.6104,-0.3052,0.3052,-175.3143,-2.6752,-110.8136,-0.5663,-0.8228,-0.0204,0.0424
1777283876.578886,R_Femur,-2.5409,8.7138,3.6606,0.5493,-0.5493,-0.5493,67.2253,15.0183,-157.7966,-0.0011,0.5595,-0.7963,0.23
1777283876.578886,R_Tibia,6.6657,-6.972,-1.225,0.1831,-0.1831,0.3662,-99.9536,-43.2806,158.8403,-0.3638,0.6562,0.6395,-0.1678
1777283876.578886,R_Foot,-9.532,-0.0287,-1.9619,0.4883,-0.061,-0.061,-179.2365,78.3545,66.0828,-0.6475,0.4262,-0.5267,0.3488
1777283876.578886,Trunk,-1.2968,6.2733,-7.1825,1.0376,-0.1221,-0.5493,138.9386,7.5531,35.6781,0.8966,-0.2643,0.1659,0.3142
