Timestamp,Vicon_Frame_Num,Vicon_Recv_Timestamp,IMU_Recv_Timestamp,Planter_Recv_Timestamp,Vicon_Gap_Flag,Vicon_Gap_Size,IMU_Stale_ms,Planter_Stale_ms,IMU_Matched_Flag,Planter_Matched_Flag,IMU_Matched_Count,Planter_Matched_Count,IMU_All_Matched_Flag,Planter_Both_Matched_Flag,Vicon_Root_X,Vicon_Root_Y,Vicon_Root_Z,Vicon_L_Femur_X,Vicon_L_Femur_Y,Vicon_L_Femur_Z,Vicon_L_Tibia_X,Vicon_L_Tibia_Y,Vicon_L_Tibia_Z,Vicon_L_Foot_X,Vicon_L_Foot_Y,Vicon_L_Foot_Z,Vicon_L_Toe_X,Vicon_L_Toe_Y,Vicon_L_Toe_Z,Vicon_R_Femur_X,Vicon_R_Femur_Y,Vicon_R_Femur_Z,Vicon_R_Tibia_X,Vicon_R_Tibia_Y,Vicon_R_Tibia_Z,Vicon_R_Foot_X,Vicon_R_Foot_Y,Vicon_R_Foot_Z,Vicon_R_Toe_X,Vicon_R_Toe_Y,Vicon_R_Toe_Z,Vicon_LASI_X,Vicon_LASI_Y,Vicon_LASI_Z,Vicon_RASI_X,Vicon_RASI_Y,Vicon_RASI_Z,Vicon_LPSI_X,Vicon_LPSI_Y,Vicon_LPSI_Z,Vicon_RPSI_X,Vicon_RPSI_Y,Vicon_RPSI_Z,Vicon_LTHI_X,Vicon_LTHI_Y,Vicon_LTHI_Z,Vicon_LKNE_X,Vicon_LKNE_Y,Vicon_LKNE_Z,Vicon_LTIB_X,Vicon_LTIB_Y,Vicon_LTIB_Z,Vicon_LANK_X,Vicon_LANK_Y,Vicon_LANK_Z,Vicon_LHEE_X,Vicon_LHEE_Y,Vicon_LHEE_Z,Vicon_LTOE_X,Vicon_LTOE_Y,Vicon_LTOE_Z,Vicon_RTHI_X,Vicon_RTHI_Y,Vicon_RTHI_Z,Vicon_RKNE_X,Vicon_RKNE_Y,Vicon_RKNE_Z,Vicon_RTIB_X,Vicon_RTIB_Y,Vicon_RTIB_Z,Vicon_RANK_X,Vicon_RANK_Y,Vicon_RANK_Z,Vicon_RHEE_X,Vicon_RHEE_Y,Vicon_RHEE_Z,Vicon_RTOE_X,Vicon_RTOE_Y,Vicon_RTOE_Z,IMU_Trunk_Matched_Flag,IMU_Trunk_Recv_Timestamp,IMU_Trunk_Stale_ms,IMU_Trunk_Acc_X,IMU_Trunk_Acc_Y,IMU_Trunk_Acc_Z,IMU_Trunk_Gyro_X,IMU_Trunk_Gyro_Y,IMU_Trunk_Gyro_Z,IMU_Trunk_Roll,IMU_Trunk_Pitch,IMU_Trunk_Yaw,IMU_Trunk_Quat_x,IMU_Trunk_Quat_y,IMU_Trunk_Quat_z,IMU_Trunk_Quat_w,IMU_L_Femur_Matched_Flag,IMU_L_Femur_Recv_Timestamp,IMU_L_Femur_Stale_ms,IMU_L_Femur_Acc_X,IMU_L_Femur_Acc_Y,IMU_L_Femur_Acc_Z,IMU_L_Femur_Gyro_X,IMU_L_Femur_Gyro_Y,IMU_L_Femur_Gyro_Z,IMU_L_Femur_Roll,IMU_L_Femur_Pitch,IMU_L_Femur_Yaw,IMU_L_Femur_Quat_x,IMU_L_Femur_Quat_y,IMU_L_Femur_Quat_z,IMU_L_Femur_Quat_w,IMU_L_Tibia_Matched_Flag,IMU_L_Tibia_Recv_Timestamp,IMU_L_Tibia_Stale_ms,IMU_L_Tibia_Acc_X,IMU_L_Tibia_Acc_Y,IMU_L_Tibia_Acc_Z,IMU_L_Tibia_Gyro_X,IMU_L_Tibia_Gyro_Y,IMU_L_Tibia_Gyro_Z,IMU_L_Tibia_Roll,IMU_L_Tibia_Pitch,IMU_L_Tibia_Yaw,IMU_L_Tibia_Quat_x,IMU_L_Tibia_Quat_y,IMU_L_Tibia_Quat_z,IMU_L_Tibia_Quat_w,IMU_L_Foot_Matched_Flag,IMU_L_Foot_Recv_Timestamp,IMU_L_Foot_Stale_ms,IMU_L_Foot_Acc_X,IMU_L_Foot_Acc_Y,IMU_L_Foot_Acc_Z,IMU_L_Foot_Gyro_X,IMU_L_Foot_Gyro_Y,IMU_L_Foot_Gyro_Z,IMU_L_Foot_Roll,IMU_L_Foot_Pitch,IMU_L_Foot_Yaw,IMU_L_Foot_Quat_x,IMU_L_Foot_Quat_y,IMU_L_Foot_Quat_z,IMU_L_Foot_Quat_w,IMU_R_Femur_Matched_Flag,IMU_R_Femur_Recv_Timestamp,IMU_R_Femur_Stale_ms,IMU_R_Femur_Acc_X,IMU_R_Femur_Acc_Y,IMU_R_Femur_Acc_Z,IMU_R_Femur_Gyro_X,IMU_R_Femur_Gyro_Y,IMU_R_Femur_Gyro_Z,IMU_R_Femur_Roll,IMU_R_Femur_Pitch,IMU_R_Femur_Yaw,IMU_R_Femur_Quat_x,IMU_R_Femur_Quat_y,IMU_R_Femur_Quat_z,IMU_R_Femur_Quat_w,IMU_R_Tibia_Matched_Flag,IMU_R_Tibia_Recv_Timestamp,IMU_R_Tibia_Stale_ms,IMU_R_Tibia_Acc_X,IMU_R_Tibia_Acc_Y,IMU_R_Tibia_Acc_Z,IMU_R_Tibia_Gyro_X,IMU_R_Tibia_Gyro_Y,IMU_R_Tibia_Gyro_Z,IMU_R_Tibia_Roll,IMU_R_Tibia_Pitch,IMU_R_Tibia_Yaw,IMU_R_Tibia_Quat_x,IMU_R_Tibia_Quat_y,IMU_R_Tibia_Quat_z,IMU_R_Tibia_Quat_w,IMU_R_Foot_Matched_Flag,IMU_R_Foot_Recv_Timestamp,IMU_R_Foot_Stale_ms,IMU_R_Foot_Acc_X,IMU_R_Foot_Acc_Y,IMU_R_Foot_Acc_Z,IMU_R_Foot_Gyro_X,IMU_R_Foot_Gyro_Y,IMU_R_Foot_Gyro_Z,IMU_R_Foot_Roll,IMU_R_Foot_Pitch,IMU_R_Foot_Yaw,IMU_R_Foot_Quat_x,IMU_R_Foot_Quat_y,IMU_R_Foot_Quat_z,IMU_R_Foot_Quat_w,Planter_Left_Matched_Flag,Planter_Left_Recv_Timestamp,Planter_Left_Stale_ms,Planter_Left_0,Planter_Left_1,Planter_Left_2,Planter_Left_3,Planter_Left_4,Planter_Left_5,Planter_Left_6,Planter_Left_7,Planter_Left_8,Planter_Left_9,Planter_Left_10,Planter_Left_11,Planter_Left_12,Planter_Left_13,Planter_Left_14,Planter_Left_15,Planter_Left_16,Planter_Left_17,Planter_Right_Matched_Flag,Planter_Right_Recv_Timestamp,Planter_Right_Stale_ms,Planter_Right_0,Planter_Right_1,Planter_Right_2,Planter_Right_3,Planter_Right_4,Planter_Right_5,Planter_Right_6,Planter_Right_7,Planter_Right_8,Planter_Right_9,Planter_Right_10,Planter_Right_11,Planter_Right_12,Planter_Right_13,Planter_Right_14,Planter_Right_15,Planter_Right_16,Planter_Right_17
1777532507.7487454,114508,1777532488.900735,,,0,0,,,0,0,0,0,0,0,0.0,0.0,0.0,0.0,0.0,0.0,0.0,0.0,0.0,0.0,0.0,0.0,0.0,0.0,0.0,0.0,0.0,0.0,0.0,0.0,0.0,0.0,0.0,0.0,0.0,0.0,0.0,0.0,0.0,0.0,0.0,0.0,0.0,0.0,0.0,0.0,0.0,0.0,0.0,0.0,0.0,0.0,0.0,0.0,0.0,0.0,0.0,0.0,0.0,0.0,0.0,0.0,0.0,0.0,0.0,0.0,0.0,0.0,0.0,0.0,0.0,0.0,0.0,0.0,0.0,0.0,0.0,0.0,0.0,0.0,0.0,0.0,0.0,0.0,0.0,0,,,0.0,0.0,0.0,0.0,0.0,0.0,0.0,0.0,0.0,0.0,0.0,0.0,1.0,0,,,0.0,0.0,0.0,0.0,0.0,0.0,0.0,0.0,0.0,0.0,0.0,0.0,1.0,0,,,0.0,0.0,0.0,0.0,0.0,0.0,0.0,0.0,0.0,0.0,0.0,0.0,1.0,0,,,0.0,0.0,0.0,0.0,0.0,0.0,0.0,0.0,0.0,0.0,0.0,0.0,1.0,0,,,0.0,0.0,0.0,0.0,0.0,0.0,0.0,0.0,0.0,0.0,0.0,0.0,1.0,0,,,0.0,0.0,0.0,0.0,0.0,0.0,0.0,0.0,0.0,0.0,0.0,0.0,1.0,0,,,0.0,0.0,0.0,0.0,0.0,0.0,0.0,0.0,0.0,0.0,0.0,0.0,1.0,0,,,0,0,0,0,0,0,0,0,0,0,0,0,0,0,0,0,0,0,0,,,0,0,0,0,0,0,0,0,0,0,0,0,0,0,0,0,0,0
1777532507.7497456,114509,1777532488.9083333,,,0,0,,,0,0,0,0,0,0,0.0,0.0,0.0,0.0,0.0,0.0,0.0,0.0,0.0,0.0,0.0,0.0,0.0,0.0,0.0,0.0,0.0,0.0,0.0,0.0,0.0,0.0,0.0,0.0,0.0,0.0,0.0,-5.138920749177516,586.1741356763929,851.8267996006238,82.19147872351573,587.9556366465716,857.1565787694134,23.613404289041537,364.05019307094693,900.4398929186452,107.80243203975554,375.3266471432604,898.3963522690342,-138.99200014441485,470.4145146654815,699.7073442594511,-102.15458304455656,457.1096687336898,405.2704571663761,-112.82518612590326,360.67925329729195,189.09101835736078,-77.45005842630596,306.4806108149636,68.55633196738067,-20.27839321583542,238.88950345081375,46.04361339416726,-32.450018963885114,510.3453066423073,56.46333779201962,224.34265779121188,545.5116709796034,698.8115108980264,205.3272945712131,642.0446825315024,422.3823299323078,217.18251679325087,640.4045879198394,241.51278875443234,180.6985979285477,657.4522679032755,68.8200575143016,123.07994809768088,606.3730632804343,30.809090292053828,169.34491304713697,854.7870066456752,101.85013265812692,0,,,0.0,0.0,0.0,0.0,0.0,0.0,0.0,0.0,0.0,0.0,0.0,0.0,1.0,0,,,0.0,0.0,0.0,0.0,0.0,0.0,0.0,0.0,0.0,0.0,0.0,0.0,1.0,0,,,0.0,0.0,0.0,0.0,0.0,0.0,0.0,0.0,0.0,0.0,0.0,0.0,1.0,0,,,0.0,0.0,0.0,0.0,0.0,0.0,0.0,0.0,0.0,0.0,0.0,0.0,1.0,0,,,0.0,0.0,0.0,0.0,0.0,0.0,0.0,0.0,0.0,0.0,0.0,0.0,1.0,0,,,0.0,0.0,0.0,0.0,0.0,0.0,0.0,0.0,0.0,0.0,0.0,0.0,1.0,0,,,0.0,0.0,0.0,0.0,0.0,0.0,0.0,0.0,0.0,0.0,0.0,0.0,1.0,0,,,0,0,0,0,0,0,0,0,0,0,0,0,0,0,0,0,0,0,0,,,0,0,0,0,0,0,0,0,0,0,0,0,0,0,0,0,0,0
1777532507.7497456,114510,1777532488.9188523,,,0,0,,,0,0,0,0,0,0,0.0,0.0,0.0,0.0,0.0,0.0,0.0,0.0,0.0,0.0,0.0,0.0,0.0,0.0,0.0,0.0,0.0,0.0,0.0,0.0,0.0,0.0,0.0,0.0,0.0,0.0,0.0,-4.32449116952144,588.0313006294109,851.0771221747034,83.02134115834924,590.247605286503,856.2904203794202,25.352061908496054,365.9815487567536,899.8859717550912,109.51625143441494,377.69560426082563,897.7029851630056,-138.0632297742585,470.59464250689336,699.4008785884455,-101.96100499768275,454.7788973068889,405.13266525521317,-112.85464496453841,357.360282033412,189.45808949807767,-77.67938271663189,302.75852162071715,68.8143507154604,-20.640603598562762,235.08068207035245,46.27297538055321,-32.754105229186884,506.54490604940884,56.216502245996615,225.02232837931675,547.8701554164267,697.6420275867347,205.3237030270185,642.8940142559287,420.8110129912066,216.33396083259552,640.0567502153074,240.00103215619137,180.05002494509222,655.8788586029403,68.13208512608432,122.98412998540294,603.5309184456131,31.52212462686209,167.57901898432937,853.7913014787626,97.05646481047913,0,,,0.0,0.0,0.0,0.0,0.0,0.0,0.0,0.0,0.0,0.0,0.0,0.0,1.0,0,,,0.0,0.0,0.0,0.0,0.0,0.0,0.0,0.0,0.0,0.0,0.0,0.0,1.0,0,,,0.0,0.0,0.0,0.0,0.0,0.0,0.0,0.0,0.0,0.0,0.0,0.0,1.0,0,,,0.0,0.0,0.0,0.0,0.0,0.0,0.0,0.0,0.0,0.0,0.0,0.0,1.0,0,,,0.0,0.0,0.0,0.0,0.0,0.0,0.0,0.0,0.0,0.0,0.0,0.0,1.0,0,,,0.0,0.0,0.0,0.0,0.0,0.0,0.0,0.0,0.0,0.0,0.0,0.0,1.0,0,,,0.0,0.0,0.0,0.0,0.0,0.0,0.0,0.0,0.0,0.0,0.0,0.0,1.0,0,,,0,0,0,0,0,0,0,0,0,0,0,0,0,0,0,0,0,0,0,,,0,0,0,0,0,0,0,0,0,0,0,0,0,0,0,0,0,0
1777532507.7497456,114511,1777532488.9284315,,,0,0,,,0,0,0,0,0,0,0.0,0.0,0.0,0.0,0.0,0.0,0.0,0.0,0.0,0.0,0.0,0.0,0.0,0.0,0.0,0.0,0.0,0.0,0.0,0.0,0.0,0.0,0.0,0.0,0.0,0.0,0.0,-3.5712382481328,589.6518795761752,850.3233334848438,83.91602444221782,592.6531482173872,855.5257018825187,27.305942409480608,368.19921886223295,899.3854723854141,111.38075857613407,380.0625189593364,897.0030626337774,-137.10103181604094,471.02854232600936,699.0546259654589,-101.65186378958003,452.45262087369684,404.99765829635044,-112.79326907168166,354.05341749885116,189.87860743627405,-77.90478178738063,299.1291929529573,69.11506059718161,-20.777045069328047,231.25267648702183,46.55234486755907,-33.00847619589031,502.7957234627644,56.11205143107155,225.77333940111942,550.3382239386991,696.6630554077517,205.25602707498163,643.8080680107505,419.5613803880452,215.7911360989294,640.195097009547,238.765565223137,180.71678342346465,654.0362906461202,68.58264694206295,123.08553293039006,600.7830415634725,32.36043981050472,166.2660636757298,852.8683991289253,92.26953008713535,0,,,0.0,0.0,0.0,0.0,0.0,0.0,0.0,0.0,0.0,0.0,0.0,0.0,1.0,0,,,0.0,0.0,0.0,0.0,0.0,0.0,0.0,0.0,0.0,0.0,0.0,0.0,1.0,0,,,0.0,0.0,0.0,0.0,0.0,0.0,0.0,0.0,0.0,0.0,0.0,0.0,1.0,0,,,0.0,0.0,0.0,0.0,0.0,0.0,0.0,0.0,0.0,0.0,0.0,0.0,1.0,0,,,0.0,0.0,0.0,0.0,0.0,0.0,0.0,0.0,0.0,0.0,0.0,0.0,1.0,0,,,0.0,0.0,0.0,0.0,0.0,0.0,0.0,0.0,0.0,0.0,0.0,0.0,1.0,0,,,0.0,0.0,0.0,0.0,0.0,0.0,0.0,0.0,0.0,0.0,0.0,0.0,1.0,0,,,0,0,0,0,0,0,0,0,0,0,0,0,0,0,0,0,0,0,0,,,0,0,0,0,0,0,0,0,0,0,0,0,0,0,0,0,0,0
1777532507.7497456,114512,1777532488.9386888,,,0,0,,,0,0,0,0,0,0,0.0,0.0,0.0,0.0,0.0,0.0,0.0,0.0,0.0,0.0,0.0,0.0,0.0,0.0,0.0,0.0,0.0,0.0,0.0,0.0,0.0,0.0,0.0,0.0,0.0,0.0,0.0,-2.4719677885327616,591.9749822468569,849.6674813693797,84.90824249827689,595.0084146770466,854.8622898317899,28.90362516855094,370.3025425109423,898.8705541669743,113.10114403163546,382.57525052094024,896.505754841284,-136.1089849156637,471.5138297029145,698.7530729104686,-101.23694340987939,450.1076789561858,404.9967531519992,-112.74751303405353,350.84453925904967,190.423050322109,-77.92769040344369,295.3876203038487,69.28261843897346,-21.129576538478737,227.48448367378506,46.87012707034992,-33.240446108761674,499.0204190547709,56.032054479882774,226.48027567174532,552.8226698672496,695.8258769762645,205.34307117849048,645.2679721262415,418.6092506359912,215.76902016114352,640.9167817032754,237.90517368047432,180.55502137573635,652.3787463613386,67.83406008540351,123.11184768274587,598.0613506445959,33.174817364538924,165.49570337494058,851.690480864528,87.33605121637493,0,,,0.0,0.0,0.0,0.0,0.0,0.0,0.0,0.0,0.0,0.0,0.0,0.0,1.0,0,,,0.0,0.0,0.0,0.0,0.0,0.0,0.0,0.0,0.0,0.0,0.0,0.0,1.0,0,,,0.0,0.0,0.0,0.0,0.0,0.0,0.0,0.0,0.0,0.0,0.0,0.0,1.0,0,,,0.0,0.0,0.0,0.0,0.0,0.0,0.0,0.0,0.0,0.0,0.0,0.0,1.0,0,,,0.0,0.0,0.0,0.0,0.0,0.0,0.0,0.0,0.0,0.0,0.0,0.0,1.0,0,,,0.0,0.0,0.0,0.0,0.0,0.0,0.0,0.0,0.0,0.0,0.0,0.0,1.0,0,,,0.0,0.0,0.0,0.0,0.0,0.0,0.0,0.0,0.0,0.0,0.0,0.0,1.0,0,,,0,0,0,0,0,0,0,0,0,0,0,0,0,0,0,0,0,0,0,,,0,0,0,0,0,0,0,0,0,0,0,0,0,0,0,0,0,0
1777532507.7497456,114513,1777532488.9489195,,,0,0,,,0,0,0,0,0,0,0.0,0.0,0.0,0.0,0.0,0.0,0.0,0.0,0.0,0.0,0.0,0.0,0.0,0.0,0.0,0.0,0.0,0.0,0.0,0.0,0.0,0.0,0.0,0.0,0.0,0.0,0.0,-1.4229090490870717,594.0137357237303,849.0514495655447,85.96581318697987,597.4705079121645,854.3381082083065,30.66918950018641,372.67081412128516,898.4197035051028,114.71007591982472,385.10922652213435,896.0901406608424,-135.0739392086843,472.0864138235026,698.4355012303155,-100.58719957967519,447.7203691145679,405.00355871939405,-112.58360808607465,347.4914194058295,190.91681234049423,-77.95319016752494,291.6002804938255,69.51209533302173,-21.274051524562346,223.67033679417415,47.20481310861116,-33.430768863125024,495.18467538935954,55.868599633406866,227.3991068927531,555.400519636659,695.1286615127335,205.63255399356945,647.1586156380168,417.85838439638707,216.12686534509876,641.9073009506825,237.17050608828345,180.02515992373637,650.62869636483,66.65473188243152,123.28022081389564,595.234185357169,34.080565801711614,165.278967861797,850.4073014395553,82.25218643361497,0,,,0.0,0.0,0.0,0.0,0.0,0.0,0.0,0.0,0.0,0.0,0.0,0.0,1.0,0,,,0.0,0.0,0.0,0.0,0.0,0.0,0.0,0.0,0.0,0.0,0.0,0.0,1.0,0,,,0.0,0.0,0.0,0.0,0.0,0.0,0.0,0.0,0.0,0.0,0.0,0.0,1.0,0,,,0.0,0.0,0.0,0.0,0.0,0.0,0.0,0.0,0.0,0.0,0.0,0.0,1.0,0,,,0.0,0.0,0.0,0.0,0.0,0.0,0.0,0.0,0.0,0.0,0.0,0.0,1.0,0,,,0.0,0.0,0.0,0.0,0.0,0.0,0.0,0.0,0.0,0.0,0.0,0.0,1.0,0,,,0.0,0.0,0.0,0.0,0.0,0.0,0.0,0.0,0.0,0.0,0.0,0.0,1.0,0,,,0,0,0,0,0,0,0,0,0,0,0,0,0,0,0,0,0,0,0,,,0,0,0,0,0,0,0,0,0,0,0,0,0,0,0,0,0,0
1777532507.7497456,114514,1777532488.9588454,,,0,0,,,0,0,0,0,0,0,0.0,0.0,0.0,0.0,0.0,0.0,0.0,0.0,0.0,0.0,0.0,0.0,0.0,0.0,0.0,0.0,0.0,0.0,0.0,0.0,0.0,0.0,0.0,0.0,0.0,0.0,0.0,-0.29407600038978754,596.1464314051475,848.4871698243732,87.08989005292787,599.8866585156278,853.9320061160868,32.334274135478175,374.937100004313,898.0808321934438,116.51715834072023,387.5825601764173,895.7556783437939,-134.0172390270652,472.66257372395097,698.1175779424647,-100.00894499940448,445.56239690063757,405.096783543839,-112.36663899656844,344.27378638018354,191.597387818797,-77.97742014386967,287.94285218657257,69.82052310221108,-21.386130278044376,219.89820433123685,47.57863986640188,-33.697857177450366,491.52115363384365,55.81342989620391,228.38172867264876,558.1617768060452,694.6273418355732,206.10187230071313,649.3546792028775,417.20473217535493,216.71667552335592,642.9548279182513,236.51589618425106,180.6221917375923,648.4153359835874,66.60829807031284,123.42811109307802,592.4347130782628,35.11408340141802,165.5264376958811,848.7051483565624,77.33122074444086,0,,,0.0,0.0,0.0,0.0,0.0,0.0,0.0,0.0,0.0,0.0,0.0,0.0,1.0,0,,,0.0,0.0,0.0,0.0,0.0,0.0,0.0,0.0,0.0,0.0,0.0,0.0,1.0,0,,,0.0,0.0,0.0,0.0,0.0,0.0,0.0,0.0,0.0,0.0,0.0,0.0,1.0,0,,,0.0,0.0,0.0,0.0,0.0,0.0,0.0,0.0,0.0,0.0,0.0,0.0,1.0,0,,,0.0,0.0,0.0,0.0,0.0,0.0,0.0,0.0,0.0,0.0,0.0,0.0,1.0,0,,,0.0,0.0,0.0,0.0,0.0,0.0,0.0,0.0,0.0,0.0,0.0,0.0,1.0,0,,,0.0,0.0,0.0,0.0,0.0,0.0,0.0,0.0,0.0,0.0,0.0,0.0,1.0,0,,,0,0,0,0,0,0,0,0,0,0,0,0,0,0,0,0,0,0,0,,,0,0,0,0,0,0,0,0,0,0,0,0,0,0,0,0,0,0
1777532507.7497456,114515,1777532488.9684768,,,0,0,,,0,0,0,0,0,0,0.0,0.0,0.0,0.0,0.0,0.0,0.0,0.0,0.0,0.0,0.0,0.0,0.0,0.0,0.0,0.0,0.0,0.0,0.0,0.0,0.0,0.0,0.0,0.0,0.0,0.0,0.0,0.9052385606452112,598.4131469196333,847.8689104734974,88.28901499767763,602.4071015355559,853.5617057409504,34.05824259302533,377.3087303709431,897.7050186027138,118.1954194957003,390.1979112354725,895.6474978286248,-132.88088263353046,473.2392790564966,697.7231919549848,-99.25265419948693,443.4019366296818,405.0964031656098,-112.15441486474886,341.2161335965917,192.2782215492251,-77.888264882595,284.1775386386647,70.05137238162018,-21.38998649566156,216.08851336949542,48.089241991044126,-33.832885076488374,487.76054140274124,55.688631552536336,229.33861843019903,561.0959882182428,694.3019688988081,206.78224626489418,651.7648553281911,416.60315141101245,217.4653155067231,644.0496049109087,235.90117626498028,180.70309909520358,646.1916750113031,66.19662481537036,123.54058676784672,589.4971061805204,35.951319303032086,165.77310681962555,846.7085100434626,72.75891955851961,0,,,0.0,0.0,0.0,0.0,0.0,0.0,0.0,0.0,0.0,0.0,0.0,0.0,1.0,0,,,0.0,0.0,0.0,0.0,0.0,0.0,0.0,0.0,0.0,0.0,0.0,0.0,1.0,0,,,0.0,0.0,0.0,0.0,0.0,0.0,0.0,0.0,0.0,0.0,0.0,0.0,1.0,0,,,0.0,0.0,0.0,0.0,0.0,0.0,0.0,0.0,0.0,0.0,0.0,0.0,1.0,0,,,0.0,0.0,0.0,0.0,0.0,0.0,0.0,0.0,0.0,0.0,0.0,0.0,1.0,0,,,0.0,0.0,0.0,0.0,0.0,0.0,0.0,0.0,0.0,0.0,0.0,0.0,1.0,0,,,0.0,0.0,0.0,0.0,0.0,0.0,0.0,0.0,0.0,0.0,0.0,0.0,1.0,0,,,0,0,0,0,0,0,0,0,0,0,0,0,0,0,0,0,0,0,0,,,0,0,0,0,0,0,0,0,0,0,0,0,0,0,0,0,0,0
1777532507.7497456,114516,1777532488.9786406,,,0,0,,,0,0,0,0,0,0,0.0,0.0,0.0,0.0,0.0,0.0,0.0,0.0,0.0,0.0,0.0,0.0,0.0,0.0,0.0,0.0,0.0,0.0,0.0,0.0,0.0,0.0,0.0,0.0,0.0,0.0,0.0,0.9052385606452112,598.4131469196333,847.8689104734974,89.55366698657679,604.8325704479658,853.192659326717,35.68738215601553,379.692664977655,897.3330576814799,119.6226878968888,392.81703819290584,895.271727565196,-131.70780680345456,473.895566321791,697.3782681204357,-98.55911419324396,441.5244596960093,405.1436808281738,-111.8751871867618,338.1079510884589,193.01371575058985,-78.07717646635086,280.67455253809504,70.4776025524434,-21.457152703997746,212.41068979069496,48.52684386420658,-33.919091025114476,484.02452466887667,55.534827411432246,230.4144697492637,564.292291306868,694.197358938356,207.53017363543728,654.1732874429507,415.9821314783101,218.24718109278083,645.1067641054359,235.3039126236031,180.87024627669598,643.9297214869,65.97524314267562,124.1056694383758,585.9577768551501,37.155184760106025,166.01703297520064,844.5028032932609,68.80415246958353,0,,,0.0,0.0,0.0,0.0,0.0,0.0,0.0,0.0,0.0,0.0,0.0,0.0,1.0,0,,,0.0,0.0,0.0,0.0,0.0,0.0,0.0,0.0,0.0,0.0,0.0,0.0,1.0,0,,,0.0,0.0,0.0,0.0,0.0,0.0,0.0,0.0,0.0,0.0,0.0,0.0,1.0,0,,,0.0,0.0,0.0,0.0,0.0,0.0,0.0,0.0,0.0,0.0,0.0,0.0,1.0,0,,,0.0,0.0,0.0,0.0,0.0,0.0,0.0,0.0,0.0,0.0,0.0,0.0,1.0,0,,,0.0,0.0,0.0,0.0,0.0,0.0,0.0,0.0,0.0,0.0,0.0,0.0,1.0,0,,,0.0,0.0,0.0,0.0,0.0,0.0,0.0,0.0,0.0,0.0,0.0,0.0,1.0,0,,,0,0,0,0,0,0,0,0,0,0,0,0,0,0,0,0,0,0,0,,,0,0,0,0,0,0,0,0,0,0,0,0,0,0,0,0,0,0
1777532507.7512503,114517,1777532488.9883213,,,0,0,,,0,0,0,0,0,0,0.0,0.0,0.0,0.0,0.0,0.0,0.0,0.0,0.0,0.0,0.0,0.0,0.0,0.0,0.0,0.0,0.0,0.0,0.0,0.0,0.0,0.0,0.0,0.0,0.0,0.0,0.0,3.3862960284315116,602.754227726344,846.5306423276381,90.82834093646487,607.3655660574074,852.8610466741036,37.33490479223006,382.0953641693638,897.0117923193723,121.39703175515385,395.35849767199744,895.0467142433324,-130.38381821234265,474.6069804596451,696.9313542429512,-97.71154311490658,439.79602724153733,405.20778396192736,-111.55971578642122,335.037606824249,193.56656079847394,-78.14458101137843,277.07691763863824,70.92548344341392,-21.61417921935242,208.74770342774247,48.864650058251584,-33.973632130189465,480.1690550749573,55.431285489515,231.64389301220558,567.6948854156153,694.2710159876214,208.44743710972872,656.6448204415211,415.38150190658126,219.11116576887298,646.137618783823,234.70769288123364,180.95203119226193,641.5931034813623,65.77294720101108,124.17304604390534,582.9669517449637,38.07721259851053,166.05845279523749,842.1993258528862,65.13682720025096,0,,,0.0,0.0,0.0,0.0,0.0,0.0,0.0,0.0,0.0,0.0,0.0,0.0,1.0,0,,,0.0,0.0,0.0,0.0,0.0,0.0,0.0,0.0,0.0,0.0,0.0,0.0,1.0,0,,,0.0,0.0,0.0,0.0,0.0,0.0,0.0,0.0,0.0,0.0,0.0,0.0,1.0,0,,,0.0,0.0,0.0,0.0,0.0,0.0,0.0,0.0,0.0,0.0,0.0,0.0,1.0,0,,,0.0,0.0,0.0,0.0,0.0,0.0,0.0,0.0,0.0,0.0,0.0,0.0,1.0,0,,,0.0,0.0,0.0,0.0,0.0,0.0,0.0,0.0,0.0,0.0,0.0,0.0,1.0,0,,,0.0,0.0,0.0,0.0,0.0,0.0,0.0,0.0,0.0,0.0,0.0,0.0,1.0,0,,,0,0,0,0,0,0,0,0,0,0,0,0,0,0,0,0,0,0,0,,,0,0,0,0,0,0,0,0,0,0,0,0,0,0,0,0,0,0
1777532507.7512503,114518,1777532488.9983213,,,0,0,,,0,0,0,0,0,0,0.0,0.0,0.0,0.0,0.0,0.0,0.0,0.0,0.0,0.0,0.0,0.0,0.0,0.0,0.0,0.0,0.0,0.0,0.0,0.0,0.0,0.0,0.0,0.0,0.0,0.0,0.0,4.798318441630855,605.1920848964701,845.818498678105,92.1554665188184,609.8845504044419,852.5024017778962,39.13704278283205,384.57945692203566,896.735404037621,123.06881483076383,398.1057290645013,894.872044120267,-129.14125507104123,475.3739267866294,696.5295034809516,-96.78540361554593,438.3631569595052,405.09040192503164,-111.2656696531684,332.3591042597072,194.3608994250364,-77.95631085634662,273.5878220666691,71.20678440941025,-21.698272576936198,205.11449748686425,49.33505409637849,-34.12954663517446,476.5181313485963,55.28893320714274,232.937743074834,571.2285137724001,694.4020239955194,209.45191408896412,659.0941721486288,414.7534696035534,220.00923658450986,647.1522978627462,234.12906704501637,181.0603047220233,639.0279851210704,65.75348753269719,123.91967882844301,580.3689482794616,38.44397018247014,165.66779812300018,839.6242136178208,61.85249637199884,0,,,0.0,0.0,0.0,0.0,0.0,0.0,0.0,0.0,0.0,0.0,0.0,0.0,1.0,0,,,0.0,0.0,0.0,0.0,0.0,0.0,0.0,0.0,0.0,0.0,0.0,0.0,1.0,0,,,0.0,0.0,0.0,0.0,0.0,0.0,0.0,0.0,0.0,0.0,0.0,0.0,1.0,0,,,0.0,0.0,0.0,0.0,0.0,0.0,0.0,0.0,0.0,0.0,0.0,0.0,1.0,0,,,0.0,0.0,0.0,0.0,0.0,0.0,0.0,0.0,0.0,0.0,0.0,0.0,1.0,0,,,0.0,0.0,0.0,0.0,0.0,0.0,0.0,0.0,0.0,0.0,0.0,0.0,1.0,0,,,0.0,0.0,0.0,0.0,0.0,0.0,0.0,0.0,0.0,0.0,0.0,0.0,1.0,0,,,0,0,0,0,0,0,0,0,0,0,0,0,0,0,0,0,0,0,0,,,0,0,0,0,0,0,0,0,0,0,0,0,0,0,0,0,0,0
1777532507.7512503,114519,1777532489.008836,,,0,0,,,0,0,0,0,0,0,0.0,0.0,0.0,0.0,0.0,0.0,0.0,0.0,0.0,0.0,0.0,0.0,0.0,0.0,0.0,0.0,0.0,0.0,0.0,0.0,0.0,0.0,0.0,0.0,0.0,0.0,0.0,6.201854504301048,607.395708424136,845.0960375309088,93.50588502524762,612.4033523440754,852.0880156433718,40.88960205422395,386.99541569082515,896.393749965251,124.85712810843785,400.85091152694724,894.6555442934995,-127.62298205952258,476.0752483687814,696.0010360300375,-95.79203685469474,437.13446260409376,404.9489612516985,-110.84513104560237,329.54388653300464,194.9388542503545,-77.96024313532816,270.07364671785604,71.55605591010945,-21.83793880520388,201.5058998341995,49.76705448687716,-34.36890027981293,473.013787407755,55.18258654588121,234.23997375421195,574.6864567429891,694.5219144244763,210.55682130065853,661.4092289638137,414.1408286916307,220.92569066843595,648.0821393919471,233.52432203441933,180.96170771768212,636.2213924174555,65.76651970749003,124.28213240100898,576.6047541497852,39.28393553284646,165.35377766904162,836.9402897504627,59.733702179790974,0,,,0.0,0.0,0.0,0.0,0.0,0.0,0.0,0.0,0.0,0.0,0.0,0.0,1.0,0,,,0.0,0.0,0.0,0.0,0.0,0.0,0.0,0.0,0.0,0.0,0.0,0.0,1.0,0,,,0.0,0.0,0.0,0.0,0.0,0.0,0.0,0.0,0.0,0.0,0.0,0.0,1.0,0,,,0.0,0.0,0.0,0.0,0.0,0.0,0.0,0.0,0.0,0.0,0.0,0.0,1.0,0,,,0.0,0.0,0.0,0.0,0.0,0.0,0.0,0.0,0.0,0.0,0.0,0.0,1.0,0,,,0.0,0.0,0.0,0.0,0.0,0.0,0.0,0.0,0.0,0.0,0.0,0.0,1.0,0,,,0.0,0.0,0.0,0.0,0.0,0.0,0.0,0.0,0.0,0.0,0.0,0.0,1.0,0,,,0,0,0,0,0,0,0,0,0,0,0,0,0,0,0,0,0,0,0,,,0,0,0,0,0,0,0,0,0,0,0,0,0,0,0,0,0,0
1777532507.7512503,114520,1777532489.0178418,,,0,0,,,0,0,0,0,0,0,0.0,0.0,0.0,0.0,0.0,0.0,0.0,0.0,0.0,0.0,0.0,0.0,0.0,0.0,0.0,0.0,0.0,0.0,0.0,0.0,0.0,0.0,0.0,0.0,0.0,0.0,0.0,6.201854504301048,607.395708424136,845.0960375309088,94.89235501048152,614.9479375721568,851.6688519737653,42.789889849917486,389.4465093794846,896.130826499069,126.9978596328351,403.6440362423838,894.6711022595965,-126.03114175768219,476.86295630474405,695.5630032308356,-94.68641349578101,436.2573094604017,404.7650035815151,-110.48142926875745,327.0701919625872,195.63042511535872,-77.86054881694574,266.7488321251845,72.0374115661383,-22.070659801084446,198.028422175695,50.145770599731236,-34.55297124436528,469.4397843039628,55.04483468403816,235.65889929687933,578.093587122787,694.6696897045214,211.6661404935285,663.4717769155286,413.5127948414552,221.863880301992,648.6562350121866,232.84628330786444,180.31729742061938,633.0451732833468,65.59983234610071,123.85272573423042,573.7547120560918,39.26216321700429,165.65210092571849,833.6891777273335,58.71743074685662,0,,,0.0,0.0,0.0,0.0,0.0,0.0,0.0,0.0,0.0,0.0,0.0,0.0,1.0,0,,,0.0,0.0,0.0,0.0,0.0,0.0,0.0,0.0,0.0,0.0,0.0,0.0,1.0,0,,,0.0,0.0,0.0,0.0,0.0,0.0,0.0,0.0,0.0,0.0,0.0,0.0,1.0,0,,,0.0,0.0,0.0,0.0,0.0,0.0,0.0,0.0,0.0,0.0,0.0,0.0,1.0,0,,,0.0,0.0,0.0,0.0,0.0,0.0,0.0,0.0,0.0,0.0,0.0,0.0,1.0,0,,,0.0,0.0,0.0,0.0,0.0,0.0,0.0,0.0,0.0,0.0,0.0,0.0,1.0,0,,,0.0,0.0,0.0,0.0,0.0,0.0,0.0,0.0,0.0,0.0,0.0,0.0,1.0,0,,,0,0,0,0,0,0,0,0,0,0,0,0,0,0,0,0,0,0,0,,,0,0,0,0,0,0,0,0,0,0,0,0,0,0,0,0,0,0
1777532507.7512503,114521,1777532489.0288417,,,0,0,,,0,0,0,0,0,0,0.0,0.0,0.0,0.0,0.0,0.0,0.0,0.0,0.0,0.0,0.0,0.0,0.0,0.0,0.0,0.0,0.0,0.0,0.0,0.0,0.0,0.0,0.0,0.0,0.0,0.0,0.0,9.01202757136206,611.7497760904469,843.5864068035632,96.26906206375415,617.5748182708793,851.2255983896846,44.9897709642557,391.8934315170857,895.9612030068663,128.91296214910875,406.45598925465424,894.6297837858879,-124.33445365598043,477.6447429612319,695.041665871605,-93.55137156133753,435.3169048956121,404.56934557423045,-110.02166537842399,324.51942514775993,196.49226910790014,-77.94444177664656,263.3065590905931,72.61079348556305,-22.206387334483257,194.48023942160896,50.61352907200273,-34.69691503000542,465.94702160485497,54.88256133823413,237.07454555804983,581.3220602974013,694.7802949819123,212.56934442607556,665.2594445709718,412.83746168815964,222.85652384360486,648.6065064739366,232.1212344023015,180.20419971259065,629.6374211283802,65.49929766188023,123.80810089748451,570.17189927692,39.34309772748463,165.74196827305948,830.3530970019762,57.99847034162697,0,,,0.0,0.0,0.0,0.0,0.0,0.0,0.0,0.0,0.0,0.0,0.0,0.0,1.0,0,,,0.0,0.0,0.0,0.0,0.0,0.0,0.0,0.0,0.0,0.0,0.0,0.0,1.0,0,,,0.0,0.0,0.0,0.0,0.0,0.0,0.0,0.0,0.0,0.0,0.0,0.0,1.0,0,,,0.0,0.0,0.0,0.0,0.0,0.0,0.0,0.0,0.0,0.0,0.0,0.0,1.0,0,,,0.0,0.0,0.0,0.0,0.0,0.0,0.0,0.0,0.0,0.0,0.0,0.0,1.0,0,,,0.0,0.0,0.0,0.0,0.0,0.0,0.0,0.0,0.0,0.0,0.0,0.0,1.0,0,,,0.0,0.0,0.0,0.0,0.0,0.0,0.0,0.0,0.0,0.0,0.0,0.0,1.0,0,,,0,0,0,0,0,0,0,0,0,0,0,0,0,0,0,0,0,0,0,,,0,0,0,0,0,0,0,0,0,0,0,0,0,0,0,0,0,0
1777532507.7522564,114522,1777532489.037892,,,0,0,,,0,0,0,0,0,0,0.0,0.0,0.0,0.0,0.0,0.0,0.0,0.0,0.0,0.0,0.0,0.0,0.0,0.0,0.0,0.0,0.0,0.0,0.0,0.0,0.0,0.0,0.0,0.0,0.0,0.0,0.0,10.476152745016703,613.9084886573603,842.7857634992151,97.68105741765729,620.1354369770428,850.7943047479381,47.18881023257935,394.31541369349037,895.7847504621245,130.98784476388914,409.2878167896366,894.6179760817624,-122.57088665308817,478.5137339983915,694.6274331900773,-92.22260231409139,434.8073880103187,404.37063368731486,-109.61171312478008,322.3111531064223,197.3374001248852,-77.93070315823566,259.9718844202998,73.06102281395746,-22.299642310607666,190.96552429923162,51.16789204303544,-34.82219987192772,462.45814945004355,54.72674446163064,238.52073344288962,584.4128749676463,694.8526358373865,213.22342956526933,666.7673993443816,412.1460673251771,223.41316375015626,647.8921193090379,231.46729323191084,180.2633178737147,626.1774150477887,65.5394189307005,124.2845715053941,566.0535236230189,39.56602001223827,165.86028316395382,826.8765536214096,57.60575307356126,0,,,0.0,0.0,0.0,0.0,0.0,0.0,0.0,0.0,0.0,0.0,0.0,0.0,1.0,0,,,0.0,0.0,0.0,0.0,0.0,0.0,0.0,0.0,0.0,0.0,0.0,0.0,1.0,0,,,0.0,0.0,0.0,0.0,0.0,0.0,0.0,0.0,0.0,0.0,0.0,0.0,1.0,0,,,0.0,0.0,0.0,0.0,0.0,0.0,0.0,0.0,0.0,0.0,0.0,0.0,1.0,0,,,0.0,0.0,0.0,0.0,0.0,0.0,0.0,0.0,0.0,0.0,0.0,0.0,1.0,0,,,0.0,0.0,0.0,0.0,0.0,0.0,0.0,0.0,0.0,0.0,0.0,0.0,1.0,0,,,0.0,0.0,0.0,0.0,0.0,0.0,0.0,0.0,0.0,0.0,0.0,0.0,1.0,0,,,0,0,0,0,0,0,0,0,0,0,0,0,0,0,0,0,0,0,0,,,0,0,0,0,0,0,0,0,0,0,0,0,0,0,0,0,0,0
1777532507.7522564,114523,1777532489.049986,1777532489.049986,,0,0,0.0,,1,0,1,0,0,0,0.0,0.0,0.0,0.0,0.0,0.0,0.0,0.0,0.0,0.0,0.0,0.0,0.0,0.0,0.0,0.0,0.0,0.0,0.0,0.0,0.0,0.0,0.0,0.0,0.0,0.0,0.0,11.897099730467753,615.9017827569972,842.1620216099983,99.0937374584869,622.674320626568,850.4349597626508,49.52160540345515,396.70911377828776,895.6548758632482,133.16165193610874,412.06534252130245,894.8831986765308,-120.693488243085,479.3610130957815,694.2018423116439,-90.92212205107798,434.340686426036,404.2784363304148,-109.06104213254245,320.1110899494156,198.25896817780117,-77.77964621363282,256.74443711889535,73.77455737600542,-22.59695441502485,187.64691896571796,52.028168831689,-34.99096460461174,459.1164065106894,54.593600203122314,239.9629048934027,587.2965886929944,694.9408708615866,213.70428878381583,667.7994094188346,411.39807665747156,223.77041726654213,646.7507579302417,231.01344092687862,180.11886778297944,622.6817075594507,65.41357897876361,123.85619018350859,563.0645339252062,39.351082453584624,165.7425370985081,823.469964057742,57.21974657359814,0,,,0.0,0.0,0.0,0.0,0.0,0.0,0.0,0.0,0.0,0.0,0.0,0.0,1.0,0,,,0.0,0.0,0.0,0.0,0.0,0.0,0.0,0.0,0.0,0.0,0.0,0.0,1.0,0,,,0.0,0.0,0.0,0.0,0.0,0.0,0.0,0.0,0.0,0.0,0.0,0.0,1.0,0,,,0.0,0.0,0.0,0.0,0.0,0.0,0.0,0.0,0.0,0.0,0.0,0.0,1.0,0,,,0.0,0.0,0.0,0.0,0.0,0.0,0.0,0.0,0.0,0.0,0.0,0.0,1.0,1,1777532489.049986,0.0,-0.0957,-9.4746,2.4883,0.3052,-0.1221,0.3662,-75.2783,0.5658,-112.1979,-0.3439,-0.5047,-0.6589,0.4392,0,,,0.0,0.0,0.0,0.0,0.0,0.0,0.0,0.0,0.0,0.0,0.0,0.0,1.0,0,,,0,0,0,0,0,0,0,0,0,0,0,0,0,0,0,0,0,0,0,,,0,0,0,0,0,0,0,0,0,0,0,0,0,0,0,0,0,0
1777532507.7522564,114524,1777532489.0664861,1777532489.0649812,,0,0,1.5048980712890625,,1,0,1,0,0,0,0.0,0.0,0.0,0.0,0.0,0.0,0.0,0.0,0.0,0.0,0.0,0.0,0.0,0.0,0.0,0.0,0.0,0.0,0.0,0.0,0.0,0.0,0.0,0.0,0.0,0.0,0.0,13.408323555284271,617.9809048482626,841.6025538068183,100.53730531683111,625.1959442491905,850.180266540719,51.998664452379195,399.0333565452276,895.8119676774348,135.71741999367654,414.63445243790756,895.3024005416457,-118.66502640651747,480.28607546409125,693.8603710715953,-89.64826249588539,434.15571722380025,404.0702666632447,-108.45477965164802,317.92729265887453,199.17379493688588,-77.85459716254486,253.59901252931618,74.74248443367144,-22.935369932176073,184.32238175203452,52.96848089821958,-35.11489853261547,455.7404049575641,54.40569588269059,241.41839845094333,589.9840761358147,694.9872656770411,214.12719485537642,668.2815347759238,410.66452903527204,223.81429638098345,645.2384593351076,230.547771012919,179.86097928331964,619.2712105233292,65.38620620994419,124.17147231711871,558.9645654277416,39.59739902949471,165.71279202272544,820.0428597418828,56.84601456310865,0,,,0.0,0.0,0.0,0.0,0.0,0.0,0.0,0.0,0.0,0.0,0.0,0.0,1.0,0,,,0.0,0.0,0.0,0.0,0.0,0.0,0.0,0.0,0.0,0.0,0.0,0.0,1.0,0,,,0.0,0.0,0.0,0.0,0.0,0.0,0.0,0.0,0.0,0.0,0.0,0.0,1.0,0,,,0.0,0.0,0.0,0.0,0.0,0.0,0.0,0.0,0.0,0.0,0.0,0.0,1.0,0,,,0.0,0.0,0.0,0.0,0.0,0.0,0.0,0.0,0.0,0.0,0.0,0.0,1.0,1,1777532489.0649812,1.5048980712890625,3.1343,-8.5271,3.6941,0.1831,-0.1831,0.3662,-66.6046,-18.6438,-134.61,-0.0841,-0.5521,-0.7266,0.4003,0,,,0.0,0.0,0.0,0.0,0.0,0.0,0.0,0.0,0.0,0.0,0.0,0.0,1.0,0,,,0,0,0,0,0,0,0,0,0,0,0,0,0,0,0,0,0,0,0,,,0,0,0,0,0,0,0,0,0,0,0,0,0,0,0,0,0,0
1777532507.7522564,114525,1777532489.068249,1777532489.0649812,,0,0,3.2677650451660156,,1,0,1,0,0,0,0.0,0.0,0.0,0.0,0.0,0.0,0.0,0.0,0.0,0.0,0.0,0.0,0.0,0.0,0.0,0.0,0.0,0.0,0.0,0.0,0.0,0.0,0.0,0.0,0.0,0.0,0.0,14.942405940805491,620.0888784572653,841.129947300249,101.99649479594966,627.6200289389591,850.0072112995389,54.11957889178287,401.43364236798857,895.8627040542684,137.86584230982734,417.2277744001046,895.7285511650903,-116.63150317441111,481.1960546631361,693.7016424517951,-88.3931753483363,434.1452369441631,404.0191406636126,-107.89887257476946,316.01461068041715,200.5468150237265,-77.79152496435016,250.483232621235,75.76293693232113,-22.86370356758296,180.99134604626954,54.16178856875878,-35.30683246805857,452.42149551141864,54.29128017985006,242.75392496008357,592.3814851164946,695.047671100988,214.58300120063163,668.3468582879296,409.93737015686486,224.0206038132861,643.4851431988229,229.97726708767718,179.75194734562962,615.8480160610195,65.4501816831664,124.16363676948819,555.3485738732271,39.587864899509746,165.6667911214532,816.6430272150388,56.53782383094619,0,,,0.0,0.0,0.0,0.0,0.0,0.0,0.0,0.0,0.0,0.0,0.0,0.0,1.0,0,,,0.0,0.0,0.0,0.0,0.0,0.0,0.0,0.0,0.0,0.0,0.0,0.0,1.0,0,,,0.0,0.0,0.0,0.0,0.0,0.0,0.0,0.0,0.0,0.0,0.0,0.0,1.0,0,,,0.0,0.0,0.0,0.0,0.0,0.0,0.0,0.0,0.0,0.0,0.0,0.0,1.0,0,,,0.0,0.0,0.0,0.0,0.0,0.0,0.0,0.0,0.0,0.0,0.0,0.0,1.0,1,1777532489.0649812,3.2677650451660156,3.1343,-8.5271,3.6941,0.1831,-0.1831,0.3662,-66.6046,-18.6438,-134.61,-0.0841,-0.5521,-0.7266,0.4003,0,,,0.0,0.0,0.0,0.0,0.0,0.0,0.0,0.0,0.0,0.0,0.0,0.0,1.0,0,,,0,0,0,0,0,0,0,0,0,0,0,0,0,0,0,0,0,0,0,,,0,0,0,0,0,0,0,0,0,0,0,0,0,0,0,0,0,0
1777532507.753258,114526,1777532489.0782547,1777532489.0649812,,0,0,13.273477554321289,,1,0,1,0,0,0,0.0,0.0,0.0,0.0,0.0,0.0,0.0,0.0,0.0,0.0,0.0,0.0,0.0,0.0,0.0,0.0,0.0,0.0,0.0,0.0,0.0,0.0,0.0,0.0,0.0,0.0,0.0,16.456377746148554,621.9279715885849,840.8700086619375,103.45615763116025,630.0556570383225,849.9496185295003,56.41219384268519,403.6096865207619,896.1668325703329,140.03036812637885,419.7078437704499,896.2233094367066,-114.55702257163968,481.99075587783096,693.4558661060573,-87.14174395711402,434.5849290231119,404.06675767588,-107.26264009693351,314.0705819483797,201.9103195026934,-78.4772570657772,247.64990875075515,77.40879291427882,-23.06944290756228,178.0153097233092,56.023424314868784,-35.554214007341045,449.30411966154566,54.05730911363247,243.9865638101661,594.7907198305907,695.0873072452791,215.15493635569968,668.1711347188585,409.2265498458896,224.18156644058718,641.4291775112335,229.46596089291532,179.5573268105033,612.404072127813,65.394604443266,123.61961129676835,552.4540834333616,39.329938298038336,165.56681478778185,813.1980357815518,56.25941690258222,0,,,0.0,0.0,0.0,0.0,0.0,0.0,0.0,0.0,0.0,0.0,0.0,0.0,1.0,0,,,0.0,0.0,0.0,0.0,0.0,0.0,0.0,0.0,0.0,0.0,0.0,0.0,1.0,0,,,0.0,0.0,0.0,0.0,0.0,0.0,0.0,0.0,0.0,0.0,0.0,0.0,1.0,0,,,0.0,0.0,0.0,0.0,0.0,0.0,0.0,0.0,0.0,0.0,0.0,0.0,1.0,0,,,0.0,0.0,0.0,0.0,0.0,0.0,0.0,0.0,0.0,0.0,0.0,0.0,1.0,1,1777532489.0649812,13.273477554321289,3.1343,-8.5271,3.6941,0.1831,-0.1831,0.3662,-66.6046,-18.6438,-134.61,-0.0841,-0.5521,-0.7266,0.4003,0,,,0.0,0.0,0.0,0.0,0.0,0.0,0.0,0.0,0.0,0.0,0.0,0.0,1.0,0,,,0,0,0,0,0,0,0,0,0,0,0,0,0,0,0,0,0,0,0,,,0,0,0,0,0,0,0,0,0,0,0,0,0,0,0,0,0,0
1777532507.753258,114527,1777532489.0884008,,,0,0,,,0,0,0,0,0,0,0.0,0.0,0.0,0.0,0.0,0.0,0.0,0.0,0.0,0.0,0.0,0.0,0.0,0.0,0.0,0.0,0.0,0.0,0.0,0.0,0.0,0.0,0.0,0.0,0.0,0.0,0.0,18.028847309352052,623.9082552669366,840.7091393335479,104.96910193381571,632.3308640039427,849.9740534975292,58.72032573403968,405.7151610257854,896.5802731152937,142.3380826333724,422.1467476054316,896.9014811966231,-112.46759478962198,482.93004543278454,693.4115954355644,-85.99194733106499,434.9705632075616,404.22766432407457,-106.67010197864663,312.2537247860622,203.3315372765503,-78.6236387659165,244.94109896100525,78.75942132838723,-23.04237296261119,175.11402004366275,57.80665648954074,-35.83889752872688,446.142121232923,53.811705313560495,245.22733526234367,596.669848444284,695.1110419988511,215.7445546469921,667.6099928696764,408.62549027425337,224.43633862841565,639.1873896817123,229.02482551495547,179.1866471207354,608.9054447138233,65.21742898250162,123.48635215122307,548.9749905358965,39.321485122303116,165.38448492132807,809.7801852543496,55.925791688466575,0,,,0.0,0.0,0.0,0.0,0.0,0.0,0.0,0.0,0.0,0.0,0.0,0.0,1.0,0,,,0.0,0.0,0.0,0.0,0.0,0.0,0.0,0.0,0.0,0.0,0.0,0.0,1.0,0,,,0.0,0.0,0.0,0.0,0.0,0.0,0.0,0.0,0.0,0.0,0.0,0.0,1.0,0,,,0.0,0.0,0.0,0.0,0.0,0.0,0.0,0.0,0.0,0.0,0.0,0.0,1.0,0,,,0.0,0.0,0.0,0.0,0.0,0.0,0.0,0.0,0.0,0.0,0.0,0.0,1.0,0,,,0.0,0.0,0.0,0.0,0.0,0.0,0.0,0.0,0.0,0.0,0.0,0.0,1.0,0,,,0.0,0.0,0.0,0.0,0.0,0.0,0.0,0.0,0.0,0.0,0.0,0.0,1.0,0,,,0,0,0,0,0,0,0,0,0,0,0,0,0,0,0,0,0,0,0,,,0,0,0,0,0,0,0,0,0,0,0,0,0,0,0,0,0,0
1777532507.753258,114528,1777532489.0984032,,,0,0,,,0,0,0,0,0,0,0.0,0.0,0.0,0.0,0.0,0.0,0.0,0.0,0.0,0.0,0.0,0.0,0.0,0.0,0.0,0.0,0.0,0.0,0.0,0.0,0.0,0.0,0.0,0.0,0.0,0.0,0.0,19.574591438890774,625.62891618463,840.7515936094899,106.49765845383564,634.5012504785258,850.122861515313,61.08891598922149,407.72771909444606,897.1469169796684,144.35096754492469,424.40772230065534,897.4811621324935,-110.39719494516135,483.7822206145077,693.4982763592366,-84.93147057909682,435.69632241617575,404.35913666267413,-106.13179969832542,310.72442185725606,205.0316045619501,-77.8672419410859,242.2242856417155,79.9962618129275,-22.91797439885513,172.21498303254754,60.11062411794059,-36.13932964205012,443.0225052037391,53.47155552215255,246.44699337226012,598.3381175320513,695.1004670389112,216.3328102787722,666.7803955049225,408.0433679788022,224.59296842386706,636.7685697390273,228.63964277539714,180.0163270833915,605.4111870607036,65.85864172300262,123.80170143994611,544.852154808098,39.55777610082102,165.29499248914198,806.3180159460502,55.63831290388812,0,,,0.0,0.0,0.0,0.0,0.0,0.0,0.0,0.0,0.0,0.0,0.0,0.0,1.0,0,,,0.0,0.0,0.0,0.0,0.0,0.0,0.0,0.0,0.0,0.0,0.0,0.0,1.0,0,,,0.0,0.0,0.0,0.0,0.0,0.0,0.0,0.0,0.0,0.0,0.0,0.0,1.0,0,,,0.0,0.0,0.0,0.0,0.0,0.0,0.0,0.0,0.0,0.0,0.0,0.0,1.0,0,,,0.0,0.0,0.0,0.0,0.0,0.0,0.0,0.0,0.0,0.0,0.0,0.0,1.0,0,,,0.0,0.0,0.0,0.0,0.0,0.0,0.0,0.0,0.0,0.0,0.0,0.0,1.0,0,,,0.0,0.0,0.0,0.0,0.0,0.0,0.0,0.0,0.0,0.0,0.0,0.0,1.0,0,,,0,0,0,0,0,0,0,0,0,0,0,0,0,0,0,0,0,0,0,,,0,0,0,0,0,0,0,0,0,0,0,0,0,0,0,0,0,0
1777532507.753258,114529,1777532489.1084,,,0,0,,,0,0,0,0,0,0,0.0,0.0,0.0,0.0,0.0,0.0,0.0,0.0,0.0,0.0,0.0,0.0,0.0,0.0,0.0,0.0,0.0,0.0,0.0,0.0,0.0,0.0,0.0,0.0,0.0,0.0,0.0,21.13041492364059,627.31394332968,840.8937624163545,108.01998107917088,636.5748058172753,850.3267026204921,63.18108610703359,409.6763908520966,897.7971192432321,146.50250032411182,426.5912139365833,898.1738711514563,-108.37351781451852,484.63003914536523,693.7919279353698,-83.94673238051456,436.49448493995715,404.6066888308188,-105.57638138996866,309.32494546639373,206.68844834435032,-78.84078571070646,239.32973766117968,82.24059123277253,-22.92913074828692,169.53155378303592,62.57204396678276,-36.38758624967904,439.91667832648255,53.194222293153686,247.71176038750596,599.8288552155224,695.1415591252093,216.9707153447004,665.9383388728857,407.59538491887423,224.74042350093015,634.3505125227803,228.34237305758066,179.942806039415,601.9579086422045,65.96823815843146,123.37578269437566,541.8337513445574,39.339767650918624,165.24233550497962,802.9256479051385,55.524095574345914,0,,,0.0,0.0,0.0,0.0,0.0,0.0,0.0,0.0,0.0,0.0,0.0,0.0,1.0,0,,,0.0,0.0,0.0,0.0,0.0,0.0,0.0,0.0,0.0,0.0,0.0,0.0,1.0,0,,,0.0,0.0,0.0,0.0,0.0,0.0,0.0,0.0,0.0,0.0,0.0,0.0,1.0,0,,,0.0,0.0,0.0,0.0,0.0,0.0,0.0,0.0,0.0,0.0,0.0,0.0,1.0,0,,,0.0,0.0,0.0,0.0,0.0,0.0,0.0,0.0,0.0,0.0,0.0,0.0,1.0,0,,,0.0,0.0,0.0,0.0,0.0,0.0,0.0,0.0,0.0,0.0,0.0,0.0,1.0,0,,,0.0,0.0,0.0,0.0,0.0,0.0,0.0,0.0,0.0,0.0,0.0,0.0,1.0,0,,,0,0,0,0,0,0,0,0,0,0,0,0,0,0,0,0,0,0,0,,,0,0,0,0,0,0,0,0,0,0,0,0,0,0,0,0,0,0
1777532507.7542586,114530,1777532489.117911,,,0,0,,,0,0,0,0,0,0,0.0,0.0,0.0,0.0,0.0,0.0,0.0,0.0,0.0,0.0,0.0,0.0,0.0,0.0,0.0,0.0,0.0,0.0,0.0,0.0,0.0,0.0,0.0,0.0,0.0,0.0,0.0,22.713482327462184,629.0132713361772,841.1815607930572,109.56048249942475,638.4821763405297,850.6246122945955,65.48024915349804,411.464209473346,898.4594397084905,148.65483199064843,428.58622294134705,898.9786700191659,-106.24535530213855,485.43158472902263,694.2025888779458,-82.99090663449944,437.8927192699128,404.9120407272691,-105.07496357499821,308.07050945541135,208.646774048955,-78.06591686653876,237.18865546832473,83.99313358661323,-22.788014677136378,166.81248983469902,65.22639388490308,-36.74080033248795,436.90122869449067,52.861854849414044,248.92955941954412,601.1064418149753,695.1763057082974,217.46736686820762,664.9452967327203,407.1444521122556,224.97240503384742,632.104242230047,228.12139280254584,179.74388750846347,598.3408935721037,66.07584439816726,123.15669802926715,538.3465018305469,39.457685648078645,165.11056104668447,799.4182308097877,55.38157916240991,0,,,0.0,0.0,0.0,0.0,0.0,0.0,0.0,0.0,0.0,0.0,0.0,0.0,1.0,0,,,0.0,0.0,0.0,0.0,0.0,0.0,0.0,0.0,0.0,0.0,0.0,0.0,1.0,0,,,0.0,0.0,0.0,0.0,0.0,0.0,0.0,0.0,0.0,0.0,0.0,0.0,1.0,0,,,0.0,0.0,0.0,0.0,0.0,0.0,0.0,0.0,0.0,0.0,0.0,0.0,1.0,0,,,0.0,0.0,0.0,0.0,0.0,0.0,0.0,0.0,0.0,0.0,0.0,0.0,1.0,0,,,0.0,0.0,0.0,0.0,0.0,0.0,0.0,0.0,0.0,0.0,0.0,0.0,1.0,0,,,0.0,0.0,0.0,0.0,0.0,0.0,0.0,0.0,0.0,0.0,0.0,0.0,1.0,0,,,0,0,0,0,0,0,0,0,0,0,0,0,0,0,0,0,0,0,0,,,0,0,0,0,0,0,0,0,0,0,0,0,0,0,0,0,0,0
1777532507.7542586,114531,1777532489.1279104,,,0,0,,,0,0,0,0,0,0,0.0,0.0,0.0,0.0,0.0,0.0,0.0,0.0,0.0,0.0,0.0,0.0,0.0,0.0,0.0,0.0,0.0,0.0,0.0,0.0,0.0,0.0,0.0,0.0,0.0,0.0,0.0,24.287616526398445,630.5904235831382,841.6050547872461,111.07627951898502,640.2707753652799,850.9913467166167,67.41391257605261,413.2097517817945,899.24539732563,150.75705500088986,430.4960258794699,899.8266583418367,-104.23074477791681,486.1450151596639,694.6036741630295,-82.25201607900246,439.39466939464467,405.34975644116815,-104.54082497564103,307.1100476856494,210.70454068298267,-78.49176815742804,234.57912145804687,86.16635818502375,-22.898760021400268,164.32123022383567,68.18313267271733,-36.983480579499954,433.95092200007576,52.48601518302993,250.09904459402884,602.2205744718436,695.2327447302824,217.9346657644438,663.9086675224424,406.72098540255183,225.17008872140795,629.9936677472108,227.92310158973072,178.81444729373789,594.8580537218651,65.34288400733877,123.45235905861442,534.1201613119489,39.80429407154508,164.9772702084944,795.8371425967987,55.22274788449781,0,,,0.0,0.0,0.0,0.0,0.0,0.0,0.0,0.0,0.0,0.0,0.0,0.0,1.0,0,,,0.0,0.0,0.0,0.0,0.0,0.0,0.0,0.0,0.0,0.0,0.0,0.0,1.0,0,,,0.0,0.0,0.0,0.0,0.0,0.0,0.0,0.0,0.0,0.0,0.0,0.0,1.0,0,,,0.0,0.0,0.0,0.0,0.0,0.0,0.0,0.0,0.0,0.0,0.0,0.0,1.0,0,,,0.0,0.0,0.0,0.0,0.0,0.0,0.0,0.0,0.0,0.0,0.0,0.0,1.0,0,,,0.0,0.0,0.0,0.0,0.0,0.0,0.0,0.0,0.0,0.0,0.0,0.0,1.0,0,,,0.0,0.0,0.0,0.0,0.0,0.0,0.0,0.0,0.0,0.0,0.0,0.0,1.0,0,,,0,0,0,0,0,0,0,0,0,0,0,0,0,0,0,0,0,0,0,,,0,0,0,0,0,0,0,0,0,0,0,0,0,0,0,0,0,0
1777532507.7542586,114532,1777532489.1434832,1777532489.1429152,,0,0,0.5679130554199219,,1,0,1,0,0,0,0.0,0.0,0.0,0.0,0.0,0.0,0.0,0.0,0.0,0.0,0.0,0.0,0.0,0.0,0.0,0.0,0.0,0.0,0.0,0.0,0.0,0.0,0.0,0.0,0.0,0.0,0.0,25.785141265992852,631.9695412746594,842.1526710766234,112.58662605377593,641.8774871634312,851.3723734653514,69.61076343482173,415.0900353529041,900.2368944689101,152.59686615890635,432.2613680569762,900.6268452880014,-102.2721203445869,487.029718992699,695.1326935466103,-81.4813613133203,441.13016388615813,405.6328632795432,-103.99719504349181,306.2378902870094,212.87689965271093,-78.52947884672746,232.83349832592324,88.56733218033985,-22.924342452845078,161.7408317235404,71.40941788188482,-37.288805182844804,431.0238588470488,52.07580463846039,251.30833457882827,603.2020639894255,695.3063867646185,218.41191288548706,662.8534254369232,406.3250284086986,225.27133700743622,627.8558906059909,227.63709719210914,178.8312970768461,591.306341493844,65.54748442590797,123.49751415333348,530.5282015342079,39.821940867315796,164.9305510812137,792.2050820005148,55.13627137491725,0,,,0.0,0.0,0.0,0.0,0.0,0.0,0.0,0.0,0.0,0.0,0.0,0.0,1.0,0,,,0.0,0.0,0.0,0.0,0.0,0.0,0.0,0.0,0.0,0.0,0.0,0.0,1.0,0,,,0.0,0.0,0.0,0.0,0.0,0.0,0.0,0.0,0.0,0.0,0.0,0.0,1.0,0,,,0.0,0.0,0.0,0.0,0.0,0.0,0.0,0.0,0.0,0.0,0.0,0.0,1.0,0,,,0.0,0.0,0.0,0.0,0.0,0.0,0.0,0.0,0.0,0.0,0.0,0.0,1.0,1,1777532489.1429152,0.5679130554199219,3.1343,-8.5367,3.6989,0.1221,-0.2441,0.3662,-66.6046,-18.6438,-134.61,-0.0841,-0.5521,-0.7266,0.4003,0,,,0.0,0.0,0.0,0.0,0.0,0.0,0.0,0.0,0.0,0.0,0.0,0.0,1.0,0,,,0,0,0,0,0,0,0,0,0,0,0,0,0,0,0,0,0,0,0,,,0,0,0,0,0,0,0,0,0,0,0,0,0,0,0,0,0,0
1777532507.7542586,114533,1777532489.148009,1777532489.1429152,,0,0,5.093812942504883,,1,0,1,0,0,0,0.0,0.0,0.0,0.0,0.0,0.0,0.0,0.0,0.0,0.0,0.0,0.0,0.0,0.0,0.0,0.0,0.0,0.0,0.0,0.0,0.0,0.0,0.0,0.0,0.0,0.0,0.0,27.225496528411643,633.1410958899656,842.8057952796089,114.07821296768213,643.4079866294193,851.8431007297676,71.83976154453565,416.4328300710282,901.1100616657101,154.45028092784094,433.9346942224168,901.4670937028432,-100.40523787466871,487.96877751153175,695.6968802104244,-80.64356028105921,443.4543096134008,406.0433540301176,-103.58415131808688,305.50570942495654,215.19643658451625,-78.55306662858173,230.55890783583206,91.25241240387594,-22.878212446621944,159.48794374333806,75.01114440363928,-37.611260109128345,428.07481431294406,51.62267905182771,252.52189041731785,604.0760010290652,695.4170143601398,218.8290755422169,661.7072829412094,405.92116733024835,225.4939349647416,625.8673790653112,227.41798747472112,179.57599016747648,587.5287626162675,66.23599769603605,122.92800452636973,527.4199233604658,39.777177065497675,164.82365415832905,788.663513273107,55.016988961571755,0,,,0.0,0.0,0.0,0.0,0.0,0.0,0.0,0.0,0.0,0.0,0.0,0.0,1.0,0,,,0.0,0.0,0.0,0.0,0.0,0.0,0.0,0.0,0.0,0.0,0.0,0.0,1.0,0,,,0.0,0.0,0.0,0.0,0.0,0.0,0.0,0.0,0.0,0.0,0.0,0.0,1.0,0,,,0.0,0.0,0.0,0.0,0.0,0.0,0.0,0.0,0.0,0.0,0.0,0.0,1.0,0,,,0.0,0.0,0.0,0.0,0.0,0.0,0.0,0.0,0.0,0.0,0.0,0.0,1.0,1,1777532489.1429152,5.093812942504883,3.1343,-8.5367,3.6989,0.1221,-0.2441,0.3662,-66.6046,-18.6438,-134.61,-0.0841,-0.5521,-0.7266,0.4003,0,,,0.0,0.0,0.0,0.0,0.0,0.0,0.0,0.0,0.0,0.0,0.0,0.0,1.0,0,,,0,0,0,0,0,0,0,0,0,0,0,0,0,0,0,0,0,0,0,,,0,0,0,0,0,0,0,0,0,0,0,0,0,0,0,0,0,0
1777532507.7552578,114534,1777532489.1580076,1777532489.1429152,,0,0,15.09237289428711,,1,0,1,0,0,0,0.0,0.0,0.0,0.0,0.0,0.0,0.0,0.0,0.0,0.0,0.0,0.0,0.0,0.0,0.0,0.0,0.0,0.0,0.0,0.0,0.0,0.0,0.0,0.0,0.0,0.0,0.0,28.74181088374651,634.292463607705,843.5184174742916,115.61576733879711,644.7502561529167,852.3307450343104,73.61936926202024,417.85804835185513,902.0482176865972,156.5669963433645,435.20231793480224,902.3823577293688,-98.49577618337764,488.852472683398,696.2948878671519,-79.90175541786057,445.9744080079545,406.32321221942914,-103.04855734496964,305.1600792297404,217.60854179836315,-78.41875322452283,228.70865843740933,94.03244089578432,-22.879800599110276,157.25290264395716,78.70895355944842,-37.85083836811035,425.28813637100745,51.17927856822909,253.70786199821703,604.7826010107414,695.5311647234455,219.2460434775161,660.3578976597835,405.47328878703047,225.60921416730855,623.7656783782359,227.14023718025294,178.75178861305383,583.9806513894694,65.57560846970021,122.94607616934142,523.7341593789964,39.98316493416116,164.64907627186255,785.0508490971312,54.89585253039356,0,,,0.0,0.0,0.0,0.0,0.0,0.0,0.0,0.0,0.0,0.0,0.0,0.0,1.0,0,,,0.0,0.0,0.0,0.0,0.0,0.0,0.0,0.0,0.0,0.0,0.0,0.0,1.0,0,,,0.0,0.0,0.0,0.0,0.0,0.0,0.0,0.0,0.0,0.0,0.0,0.0,1.0,0,,,0.0,0.0,0.0,0.0,0.0,0.0,0.0,0.0,0.0,0.0,0.0,0.0,1.0,0,,,0.0,0.0,0.0,0.0,0.0,0.0,0.0,0.0,0.0,0.0,0.0,0.0,1.0,1,1777532489.1429152,15.09237289428711,3.1343,-8.5367,3.6989,0.1221,-0.2441,0.3662,-66.6046,-18.6438,-134.61,-0.0841,-0.5521,-0.7266,0.4003,0,,,0.0,0.0,0.0,0.0,0.0,0.0,0.0,0.0,0.0,0.0,0.0,0.0,1.0,0,,,0,0,0,0,0,0,0,0,0,0,0,0,0,0,0,0,0,0,0,,,0,0,0,0,0,0,0,0,0,0,0,0,0,0,0,0,0,0
1777532507.7552578,114535,1777532489.16803,,,0,0,,,0,0,0,0,0,0,0.0,0.0,0.0,0.0,0.0,0.0,0.0,0.0,0.0,0.0,0.0,0.0,0.0,0.0,0.0,0.0,0.0,0.0,0.0,0.0,0.0,0.0,0.0,0.0,0.0,0.0,0.0,28.74181088374651,634.292463607705,843.5184174742916,117.16242746378562,646.0380265203715,852.8570011100037,75.68041131937059,419.0543714746692,902.9157265877695,158.57488044636602,436.4834721019907,903.101356925958,-96.72286044691454,490.0760556286883,696.8934037902596,-79.4617791166248,448.7327888909063,406.618984656327,-102.5305795685707,304.92547032171086,220.08769387608393,-78.22370896003193,226.69107284425462,96.90655570843815,-22.722605682996477,155.14408480810442,82.72049756457044,-38.17096828707886,422.46264584909073,50.67899349320332,254.91062060297455,605.2877193779843,695.61486708574,219.66084524461968,658.7520581910948,405.0517505517136,225.60384928730994,621.3774552621633,226.89191925616197,178.57184000550996,580.371040063044,65.68061119768267,123.1509983422374,519.5596548198806,40.23261908870713,164.64676514188963,781.3269736085706,54.74288630491169,0,,,0.0,0.0,0.0,0.0,0.0,0.0,0.0,0.0,0.0,0.0,0.0,0.0,1.0,0,,,0.0,0.0,0.0,0.0,0.0,0.0,0.0,0.0,0.0,0.0,0.0,0.0,1.0,0,,,0.0,0.0,0.0,0.0,0.0,0.0,0.0,0.0,0.0,0.0,0.0,0.0,1.0,0,,,0.0,0.0,0.0,0.0,0.0,0.0,0.0,0.0,0.0,0.0,0.0,0.0,1.0,0,,,0.0,0.0,0.0,0.0,0.0,0.0,0.0,0.0,0.0,0.0,0.0,0.0,1.0,0,,,0.0,0.0,0.0,0.0,0.0,0.0,0.0,0.0,0.0,0.0,0.0,0.0,1.0,0,,,0.0,0.0,0.0,0.0,0.0,0.0,0.0,0.0,0.0,0.0,0.0,0.0,1.0,0,,,0,0,0,0,0,0,0,0,0,0,0,0,0,0,0,0,0,0,0,,,0,0,0,0,0,0,0,0,0,0,0,0,0,0,0,0,0,0
1777532507.7552578,114536,1777532489.17803,,,0,0,,,0,0,0,0,0,0,0.0,0.0,0.0,0.0,0.0,0.0,0.0,0.0,0.0,0.0,0.0,0.0,0.0,0.0,0.0,0.0,0.0,0.0,0.0,0.0,0.0,0.0,0.0,0.0,0.0,0.0,0.0,31.821034109886465,636.3884760625373,845.0837326090956,118.73599184096793,647.2072093672343,853.3594075581893,77.37088597504238,420.25416843163697,903.836936910897,160.3181596731352,437.80597822184234,903.8807544066951,-94.98870091624033,491.37395757785754,697.4945356500299,-79.16007844845768,451.8506502761521,406.98400033247515,-102.02534402528961,305.02059163983813,222.62146268865405,-76.67346194190165,225.64411362939995,101.15916462340002,-22.324547061172726,153.46830158897296,87.07691218898532,-38.70477880214796,420.102522536342,50.085917111440445,256.09971220225646,605.5966054579482,695.6956976769208,220.14056919866613,656.8336895365638,404.6878104916098,225.6812537010708,618.6419896499513,226.63602180025,178.48651129936465,576.6345657672707,65.76500115486864,122.6359785110933,516.2628822947265,40.15628514073843,164.3940590137406,777.6322218616816,54.63838024398108,0,,,0.0,0.0,0.0,0.0,0.0,0.0,0.0,0.0,0.0,0.0,0.0,0.0,1.0,0,,,0.0,0.0,0.0,0.0,0.0,0.0,0.0,0.0,0.0,0.0,0.0,0.0,1.0,0,,,0.0,0.0,0.0,0.0,0.0,0.0,0.0,0.0,0.0,0.0,0.0,0.0,1.0,0,,,0.0,0.0,0.0,0.0,0.0,0.0,0.0,0.0,0.0,0.0,0.0,0.0,1.0,0,,,0.0,0.0,0.0,0.0,0.0,0.0,0.0,0.0,0.0,0.0,0.0,0.0,1.0,0,,,0.0,0.0,0.0,0.0,0.0,0.0,0.0,0.0,0.0,0.0,0.0,0.0,1.0,0,,,0.0,0.0,0.0,0.0,0.0,0.0,0.0,0.0,0.0,0.0,0.0,0.0,1.0,0,,,0,0,0,0,0,0,0,0,0,0,0,0,0,0,0,0,0,0,0,,,0,0,0,0,0,0,0,0,0,0,0,0,0,0,0,0,0,0
1777532507.7552578,114537,1777532489.1886888,,,0,0,,,0,0,0,0,0,0,0.0,0.0,0.0,0.0,0.0,0.0,0.0,0.0,0.0,0.0,0.0,0.0,0.0,0.0,0.0,0.0,0.0,0.0,0.0,0.0,0.0,0.0,0.0,0.0,0.0,0.0,0.0,33.476913119168,637.663929675088,845.7632605008733,120.34754478050147,648.3159969676267,853.9045642725665,79.39000581828984,421.2579163648132,904.6656467457225,161.67353784552347,439.3250504739984,904.475881979576,-93.3448597409015,492.9511153288826,698.0791093933713,-78.96711424019445,455.18571910985094,407.20392075520454,-101.52744690309028,305.3486518437819,225.20775225116253,-75.14446676793654,225.90389201925427,105.44132957107604,-21.828653917523095,151.6275098474488,91.71036288209038,-39.11315806363563,417.5449603390825,49.53092121374515,257.26813933846614,605.75313158142,695.7040357066376,220.7643670327461,654.6320807563097,404.3852867904275,225.82131248960982,615.5616032601791,226.4787085727566,178.25748540370964,572.8942495328185,65.76092814739178,122.75134698175515,512.1254619309937,40.44607192553262,164.29061662098007,773.8912053042919,54.54230097873805,0,,,0.0,0.0,0.0,0.0,0.0,0.0,0.0,0.0,0.0,0.0,0.0,0.0,1.0,0,,,0.0,0.0,0.0,0.0,0.0,0.0,0.0,0.0,0.0,0.0,0.0,0.0,1.0,0,,,0.0,0.0,0.0,0.0,0.0,0.0,0.0,0.0,0.0,0.0,0.0,0.0,1.0,0,,,0.0,0.0,0.0,0.0,0.0,0.0,0.0,0.0,0.0,0.0,0.0,0.0,1.0,0,,,0.0,0.0,0.0,0.0,0.0,0.0,0.0,0.0,0.0,0.0,0.0,0.0,1.0,0,,,0.0,0.0,0.0,0.0,0.0,0.0,0.0,0.0,0.0,0.0,0.0,0.0,1.0,0,,,0.0,0.0,0.0,0.0,0.0,0.0,0.0,0.0,0.0,0.0,0.0,0.0,1.0,0,,,0,0,0,0,0,0,0,0,0,0,0,0,0,0,0,0,0,0,0,,,0,0,0,0,0,0,0,0,0,0,0,0,0,0,0,0,0,0
1777532507.7552578,114538,1777532489.198688,,,0,0,,,0,0,0,0,0,0,0.0,0.0,0.0,0.0,0.0,0.0,0.0,0.0,0.0,0.0,0.0,0.0,0.0,0.0,0.0,0.0,0.0,0.0,0.0,0.0,0.0,0.0,0.0,0.0,0.0,0.0,0.0,35.004912231337016,638.36567260112,846.6211882380306,121.95731629000763,649.3122641752966,854.3969362488953,80.90004662616096,422.3077842661738,905.4227895776024,163.61994226738258,440.343989538494,905.1959016958389,-91.86052989826592,494.5531036205923,698.6435813271137,-78.77115352183472,458.8325504439206,407.4056957062259,-101.0293018625499,305.80677808388856,227.86792145611116,-74.80421322305983,224.5105237897205,109.28183503372632,-21.284050364938174,150.30473321269713,96.69575396722972,-39.51411497201404,415.16412079340563,48.78701269992109,258.42294137044416,605.7110936514666,695.6910667369931,221.37693523339453,652.1207365911486,404.04716034621396,226.00995100263498,612.3020729959046,226.37714355610802,178.1486812937854,569.12925626075,65.89883675833546,122.76419489660674,508.3286720137516,40.503339815856755,164.1599960583198,770.1072170892453,54.49242890664153,0,,,0.0,0.0,0.0,0.0,0.0,0.0,0.0,0.0,0.0,0.0,0.0,0.0,1.0,0,,,0.0,0.0,0.0,0.0,0.0,0.0,0.0,0.0,0.0,0.0,0.0,0.0,1.0,0,,,0.0,0.0,0.0,0.0,0.0,0.0,0.0,0.0,0.0,0.0,0.0,0.0,1.0,0,,,0.0,0.0,0.0,0.0,0.0,0.0,0.0,0.0,0.0,0.0,0.0,0.0,1.0,0,,,0.0,0.0,0.0,0.0,0.0,0.0,0.0,0.0,0.0,0.0,0.0,0.0,1.0,0,,,0.0,0.0,0.0,0.0,0.0,0.0,0.0,0.0,0.0,0.0,0.0,0.0,1.0,0,,,0.0,0.0,0.0,0.0,0.0,0.0,0.0,0.0,0.0,0.0,0.0,0.0,1.0,0,,,0,0,0,0,0,0,0,0,0,0,0,0,0,0,0,0,0,0,0,,,0,0,0,0,0,0,0,0,0,0,0,0,0,0,0,0,0,0
1777532507.7562578,114539,1777532489.208197,,,0,0,,,0,0,0,0,0,0,0.0,0.0,0.0,0.0,0.0,0.0,0.0,0.0,0.0,0.0,0.0,0.0,0.0,0.0,0.0,0.0,0.0,0.0,0.0,0.0,0.0,0.0,0.0,0.0,0.0,0.0,0.0,36.5954734301761,639.4416798859335,846.8348666038478,123.60101546707754,650.2410168969113,854.865340934452,82.80877144688755,423.10042645542705,906.2059920764267,165.40884306377677,441.13556163347624,905.9766639044763,-90.44590529978615,496.48866892399445,699.1971072620432,-78.7304628531556,462.68928280011147,407.60135811346964,-100.50211161867757,306.77671085253706,230.54769904344116,-74.13026377697376,223.10586799866252,113.38659364227031,-20.71860938814159,149.52665528460082,102.53242860973819,-39.93925342813481,412.9272563691019,47.969959757711166,259.5772885664055,605.5417753736488,695.6670473263781,222.0961921781846,649.5473486473502,403.8107779125512,226.22067102044116,608.9538118825179,226.20117925165445,178.0273392900975,565.3914800502342,65.86659672712237,122.52689051593187,504.57432654303096,40.5629642508069,164.06557037138725,766.3310332361542,54.443329379928784,0,,,0.0,0.0,0.0,0.0,0.0,0.0,0.0,0.0,0.0,0.0,0.0,0.0,1.0,0,,,0.0,0.0,0.0,0.0,0.0,0.0,0.0,0.0,0.0,0.0,0.0,0.0,1.0,0,,,0.0,0.0,0.0,0.0,0.0,0.0,0.0,0.0,0.0,0.0,0.0,0.0,1.0,0,,,0.0,0.0,0.0,0.0,0.0,0.0,0.0,0.0,0.0,0.0,0.0,0.0,1.0,0,,,0.0,0.0,0.0,0.0,0.0,0.0,0.0,0.0,0.0,0.0,0.0,0.0,1.0,0,,,0.0,0.0,0.0,0.0,0.0,0.0,0.0,0.0,0.0,0.0,0.0,0.0,1.0,0,,,0.0,0.0,0.0,0.0,0.0,0.0,0.0,0.0,0.0,0.0,0.0,0.0,1.0,0,,,0,0,0,0,0,0,0,0,0,0,0,0,0,0,0,0,0,0,0,,,0,0,0,0,0,0,0,0,0,0,0,0,0,0,0,0,0,0
1777532507.7562578,114540,1777532489.218197,,,0,0,,,0,0,0,0,0,0,0.0,0.0,0.0,0.0,0.0,0.0,0.0,0.0,0.0,0.0,0.0,0.0,0.0,0.0,0.0,0.0,0.0,0.0,0.0,0.0,0.0,0.0,0.0,0.0,0.0,0.0,0.0,38.26942835943276,639.8895425464415,848.11367952807,125.23516981632292,651.0676458620942,855.3057581440578,84.3137119606036,423.9198291918275,906.9864145742364,166.9183989374744,442.1094727159077,906.6489782052463,-89.13942038455538,498.57037498503877,699.7346908166993,-78.54488229609696,466.7689679428486,407.86634904749883,-100.14987678300061,308.1603884577723,233.3938749006471,-73.41618440449884,223.2904096833654,117.25007826238162,-20.215594843556822,149.01390537809516,108.5909405203434,-40.27887489636221,410.7650952780919,47.20093220950547,260.7050152390469,605.1930424888927,695.6383407654379,222.74244800173938,646.856223058944,403.48536387794195,226.43370180427044,605.6769485371474,225.96760248096203,178.70863190381206,561.4899181994545,66.54505672464336,122.01101513716966,501.3198684986888,40.40242477168889,163.90647273152544,762.6307572526672,54.35143432587656,0,,,0.0,0.0,0.0,0.0,0.0,0.0,0.0,0.0,0.0,0.0,0.0,0.0,1.0,0,,,0.0,0.0,0.0,0.0,0.0,0.0,0.0,0.0,0.0,0.0,0.0,0.0,1.0,0,,,0.0,0.0,0.0,0.0,0.0,0.0,0.0,0.0,0.0,0.0,0.0,0.0,1.0,0,,,0.0,0.0,0.0,0.0,0.0,0.0,0.0,0.0,0.0,0.0,0.0,0.0,1.0,0,,,0.0,0.0,0.0,0.0,0.0,0.0,0.0,0.0,0.0,0.0,0.0,0.0,1.0,0,,,0.0,0.0,0.0,0.0,0.0,0.0,0.0,0.0,0.0,0.0,0.0,0.0,1.0,0,,,0.0,0.0,0.0,0.0,0.0,0.0,0.0,0.0,0.0,0.0,0.0,0.0,1.0,0,,,0,0,0,0,0,0,0,0,0,0,0,0,0,0,0,0,0,0,0,,,0,0,0,0,0,0,0,0,0,0,0,0,0,0,0,0,0,0
1777532507.7562578,114541,1777532489.2325363,1777532489.2322016,,0,0,0.33473968505859375,,1,0,1,0,0,0,0.0,0.0,0.0,0.0,0.0,0.0,0.0,0.0,0.0,0.0,0.0,0.0,0.0,0.0,0.0,0.0,0.0,0.0,0.0,0.0,0.0,0.0,0.0,0.0,0.0,0.0,0.0,39.893573752881466,640.6005938042287,848.8289840079204,126.88379586508698,651.7284182144324,855.691062432695,85.9308444670012,424.5493150811864,907.6555140340322,168.7169873211645,442.70672907913917,907.4292843985122,-87.98171834903619,500.7617380718384,700.3171760567859,-78.49780871348653,471.30465876282835,408.1021427749428,-99.8387570599884,309.6973992489767,236.15260185175308,-73.33403071205339,222.97136280270135,121.5935138303295,-19.33997700388948,148.5789694707713,114.79618873494074,-40.675082868869005,408.47539052113734,46.686426849554294,261.7840370084872,604.619900343521,695.5646355100884,223.4408590318177,644.1812465867632,403.1487492481932,226.65608681518304,602.5052091442045,225.74715657167346,178.6630492086266,557.7970508795368,66.38262432733521,121.90820319202506,497.5106591373358,40.43624016324963,163.7565086867581,758.8638031989714,54.28657244543005,0,,,0.0,0.0,0.0,0.0,0.0,0.0,0.0,0.0,0.0,0.0,0.0,0.0,1.0,0,,,0.0,0.0,0.0,0.0,0.0,0.0,0.0,0.0,0.0,0.0,0.0,0.0,1.0,0,,,0.0,0.0,0.0,0.0,0.0,0.0,0.0,0.0,0.0,0.0,0.0,0.0,1.0,0,,,0.0,0.0,0.0,0.0,0.0,0.0,0.0,0.0,0.0,0.0,0.0,0.0,1.0,0,,,0.0,0.0,0.0,0.0,0.0,0.0,0.0,0.0,0.0,0.0,0.0,0.0,1.0,1,1777532489.2322016,0.33473968505859375,3.1438,-8.5463,3.6894,0.1831,-0.1831,0.3662,-66.6046,-18.6438,-134.61,-0.0841,-0.5521,-0.7266,0.4003,0,,,0.0,0.0,0.0,0.0,0.0,0.0,0.0,0.0,0.0,0.0,0.0,0.0,1.0,0,,,0,0,0,0,0,0,0,0,0,0,0,0,0,0,0,0,0,0,0,,,0,0,0,0,0,0,0,0,0,0,0,0,0,0,0,0,0,0
1777532507.7572603,114542,1777532489.238547,1777532489.2322016,,0,0,6.345510482788086,,1,0,1,0,0,0,0.0,0.0,0.0,0.0,0.0,0.0,0.0,0.0,0.0,0.0,0.0,0.0,0.0,0.0,0.0,0.0,0.0,0.0,0.0,0.0,0.0,0.0,0.0,0.0,0.0,0.0,0.0,41.497210044773304,641.2003059827013,849.5585624827544,128.50112417275426,652.3421491022148,856.0855664449972,87.62188676405812,425.1036285941326,908.5143746864944,170.309198719941,443.2387964317283,908.0744184688899,-86.76291825708475,503.0106576443889,700.7609457859935,-78.42853033777857,476.1922341115951,408.2822128385974,-99.46550535858526,311.3702015047401,239.11877164458545,-72.5816962661562,222.3368924315566,126.09257821100582,-18.16976147479796,148.41716398145743,121.18748037289836,-41.154783240391204,406.12610808296273,46.147003342708075,263.0926298527548,603.6611007877855,695.5793517847349,224.1208854063002,641.4629183422377,402.795790349041,226.9213865247478,599.3392745067786,225.44066402039184,178.5330582083216,553.9933600726199,66.42299879113035,121.65407998690876,493.86235539121617,40.50397551847074,163.59555090809025,755.1146819788746,54.240819488548816,0,,,0.0,0.0,0.0,0.0,0.0,0.0,0.0,0.0,0.0,0.0,0.0,0.0,1.0,0,,,0.0,0.0,0.0,0.0,0.0,0.0,0.0,0.0,0.0,0.0,0.0,0.0,1.0,0,,,0.0,0.0,0.0,0.0,0.0,0.0,0.0,0.0,0.0,0.0,0.0,0.0,1.0,0,,,0.0,0.0,0.0,0.0,0.0,0.0,0.0,0.0,0.0,0.0,0.0,0.0,1.0,0,,,0.0,0.0,0.0,0.0,0.0,0.0,0.0,0.0,0.0,0.0,0.0,0.0,1.0,1,1777532489.2322016,6.345510482788086,3.1438,-8.5463,3.6894,0.1831,-0.1831,0.3662,-66.6046,-18.6438,-134.61,-0.0841,-0.5521,-0.7266,0.4003,0,,,0.0,0.0,0.0,0.0,0.0,0.0,0.0,0.0,0.0,0.0,0.0,0.0,1.0,0,,,0,0,0,0,0,0,0,0,0,0,0,0,0,0,0,0,0,0,0,,,0,0,0,0,0,0,0,0,0,0,0,0,0,0,0,0,0,0
1777532507.7572603,114543,1777532489.248058,1777532489.2322016,,0,0,15.856504440307617,,1,0,1,0,0,0,0.0,0.0,0.0,0.0,0.0,0.0,0.0,0.0,0.0,0.0,0.0,0.0,0.0,0.0,0.0,0.0,0.0,0.0,0.0,0.0,0.0,0.0,0.0,0.0,0.0,0.0,0.0,43.05397798912887,641.7805548743511,850.2727391946413,130.0963979762108,652.7815259987523,856.4452574760272,88.85334761927746,425.6294801239298,909.1819106738591,171.56177515140632,443.81524581015327,908.7284397739621,-85.67949722086884,505.30984638234526,701.196678581338,-78.31427233789938,481.31378434282794,408.4229660326276,-99.08678794364899,313.5388302836723,242.19839850727487,-71.9313847773033,222.71305615793608,130.64169914858275,-16.838518844919875,148.68833676467017,127.95973302937499,-41.586012865099605,403.86493043495113,45.70964857563439,264.14384907372454,602.8124905424083,695.4712868765081,224.80683368633183,638.7212094547734,402.3934369376897,227.20108115648634,596.2141066594293,225.17035083047764,177.67584694768237,550.3564272076466,65.93876345497755,121.54517194991585,489.99510040521443,40.45625518766243,163.49956162009167,751.3634118875326,54.21932583547921,0,,,0.0,0.0,0.0,0.0,0.0,0.0,0.0,0.0,0.0,0.0,0.0,0.0,1.0,0,,,0.0,0.0,0.0,0.0,0.0,0.0,0.0,0.0,0.0,0.0,0.0,0.0,1.0,0,,,0.0,0.0,0.0,0.0,0.0,0.0,0.0,0.0,0.0,0.0,0.0,0.0,1.0,0,,,0.0,0.0,0.0,0.0,0.0,0.0,0.0,0.0,0.0,0.0,0.0,0.0,1.0,0,,,0.0,0.0,0.0,0.0,0.0,0.0,0.0,0.0,0.0,0.0,0.0,0.0,1.0,1,1777532489.2322016,15.856504440307617,3.1438,-8.5463,3.6894,0.1831,-0.1831,0.3662,-66.6046,-18.6438,-134.61,-0.0841,-0.5521,-0.7266,0.4003,0,,,0.0,0.0,0.0,0.0,0.0,0.0,0.0,0.0,0.0,0.0,0.0,0.0,1.0,0,,,0,0,0,0,0,0,0,0,0,0,0,0,0,0,0,0,0,0,0,,,0,0,0,0,0,0,0,0,0,0,0,0,0,0,0,0,0,0
1777532507.7572603,114544,1777532489.2581615,,,0,0,,,0,0,0,0,0,0,0.0,0.0,0.0,0.0,0.0,0.0,0.0,0.0,0.0,0.0,0.0,0.0,0.0,0.0,0.0,0.0,0.0,0.0,0.0,0.0,0.0,0.0,0.0,0.0,0.0,0.0,0.0,44.57325638748997,642.1876921448386,850.9953310414674,131.62138351590164,653.1495614816854,856.7507702063712,90.21271311935102,425.9425813857664,909.8302017362284,172.72703401081515,444.33009764884866,909.09198021797,-84.6533679708481,507.71400612506886,701.6186343468165,-78.068461480996,486.6638823534174,408.4672309865322,-98.74059152280829,316.0203864072213,245.29831361626978,-71.4185438497877,223.06189012286154,135.36552262115347,-15.577493692946776,149.43446201983812,134.94196295169763,-41.85180765061097,401.80069418129364,45.221763734858605,265.2335630918802,601.8400216903196,695.3261547742484,225.64506137079402,635.988635451311,402.0595463366064,227.54665967308532,593.0059289206357,224.89510391132248,177.41197026148848,546.4970865783707,65.7449028832527,121.33063457433612,486.3156466205496,40.603414063436915,163.37408509390607,747.6145451658992,54.202264797167736,0,,,0.0,0.0,0.0,0.0,0.0,0.0,0.0,0.0,0.0,0.0,0.0,0.0,1.0,0,,,0.0,0.0,0.0,0.0,0.0,0.0,0.0,0.0,0.0,0.0,0.0,0.0,1.0,0,,,0.0,0.0,0.0,0.0,0.0,0.0,0.0,0.0,0.0,0.0,0.0,0.0,1.0,0,,,0.0,0.0,0.0,0.0,0.0,0.0,0.0,0.0,0.0,0.0,0.0,0.0,1.0,0,,,0.0,0.0,0.0,0.0,0.0,0.0,0.0,0.0,0.0,0.0,0.0,0.0,1.0,0,,,0.0,0.0,0.0,0.0,0.0,0.0,0.0,0.0,0.0,0.0,0.0,0.0,1.0,0,,,0.0,0.0,0.0,0.0,0.0,0.0,0.0,0.0,0.0,0.0,0.0,0.0,1.0,0,,,0,0,0,0,0,0,0,0,0,0,0,0,0,0,0,0,0,0,0,,,0,0,0,0,0,0,0,0,0,0,0,0,0,0,0,0,0,0
1777532507.7572603,114545,1777532489.2681618,,,0,0,,,0,0,0,0,0,0,0.0,0.0,0.0,0.0,0.0,0.0,0.0,0.0,0.0,0.0,0.0,0.0,0.0,0.0,0.0,0.0,0.0,0.0,0.0,0.0,0.0,0.0,0.0,0.0,0.0,0.0,0.0,46.000139651553155,642.5000249780669,851.6994880845479,133.061945017534,653.3627718545736,857.0668282762206,91.41505888166537,426.1857914713426,910.4809271039886,174.1341159340147,444.3657712705062,909.722025692909,-83.7199724511805,510.19642590650204,702.0627036648056,-77.88439368554748,492.2013317003215,408.7163117453702,-98.29239259167552,318.60517338952945,248.37016625292236,-70.74516580789773,223.81484860844748,140.264399039825,-14.346740045428543,150.6562150655581,142.38859955844578,-41.89751203498342,399.97932729946575,44.6797593421032,266.34889489705625,600.7756049779179,695.2460070033037,226.48102989256313,633.1124487616206,401.73388892484576,227.90114907754653,589.6400521412604,224.61383772272765,178.3859532986497,542.7159021913495,66.56374093856758,121.3310984057837,482.4899898520131,40.56159877230418,163.21260203674606,743.8796181454387,54.148468244982006,0,,,0.0,0.0,0.0,0.0,0.0,0.0,0.0,0.0,0.0,0.0,0.0,0.0,1.0,0,,,0.0,0.0,0.0,0.0,0.0,0.0,0.0,0.0,0.0,0.0,0.0,0.0,1.0,0,,,0.0,0.0,0.0,0.0,0.0,0.0,0.0,0.0,0.0,0.0,0.0,0.0,1.0,0,,,0.0,0.0,0.0,0.0,0.0,0.0,0.0,0.0,0.0,0.0,0.0,0.0,1.0,0,,,0.0,0.0,0.0,0.0,0.0,0.0,0.0,0.0,0.0,0.0,0.0,0.0,1.0,0,,,0.0,0.0,0.0,0.0,0.0,0.0,0.0,0.0,0.0,0.0,0.0,0.0,1.0,0,,,0.0,0.0,0.0,0.0,0.0,0.0,0.0,0.0,0.0,0.0,0.0,0.0,1.0,0,,,0,0,0,0,0,0,0,0,0,0,0,0,0,0,0,0,0,0,0,,,0,0,0,0,0,0,0,0,0,0,0,0,0,0,0,0,0,0
1777532507.7572603,114546,1777532489.278162,,,0,0,,,0,0,0,0,0,0,0.0,0.0,0.0,0.0,0.0,0.0,0.0,0.0,0.0,0.0,0.0,0.0,0.0,0.0,0.0,0.0,0.0,0.0,0.0,0.0,0.0,0.0,0.0,0.0,0.0,0.0,0.0,47.375673072662686,642.7584486502674,852.3643899734034,134.44542372333785,653.4619125348698,857.3440632540626,92.6001044808148,426.30409148467055,911.0977515978316,175.27529256760894,444.44949217815093,910.2086624919796,-82.81331390210106,512.6725494765566,702.4744719294257,-77.54232389494624,497.74314944366336,408.93078399550575,-97.63377003470626,321.570562924198,251.3281517301887,-70.72099497182295,224.957397750696,145.5326034455401,-13.220128276290184,152.42690915872933,150.07783013583753,-41.85323210450335,398.3367004843082,44.13727515720915,267.35156400170445,599.6219955091589,695.1279792177028,227.3401594388502,630.2036269663241,401.3639180565672,228.22210320736414,586.2801578096656,224.41611821410055,177.28708012544865,539.0239945828001,65.71944748924714,121.11159751132493,478.880178061049,40.61672199502591,163.12962994083733,740.2184751574763,54.113090329235334,0,,,0.0,0.0,0.0,0.0,0.0,0.0,0.0,0.0,0.0,0.0,0.0,0.0,1.0,0,,,0.0,0.0,0.0,0.0,0.0,0.0,0.0,0.0,0.0,0.0,0.0,0.0,1.0,0,,,0.0,0.0,0.0,0.0,0.0,0.0,0.0,0.0,0.0,0.0,0.0,0.0,1.0,0,,,0.0,0.0,0.0,0.0,0.0,0.0,0.0,0.0,0.0,0.0,0.0,0.0,1.0,0,,,0.0,0.0,0.0,0.0,0.0,0.0,0.0,0.0,0.0,0.0,0.0,0.0,1.0,0,,,0.0,0.0,0.0,0.0,0.0,0.0,0.0,0.0,0.0,0.0,0.0,0.0,1.0,0,,,0.0,0.0,0.0,0.0,0.0,0.0,0.0,0.0,0.0,0.0,0.0,0.0,1.0,0,,,0,0,0,0,0,0,0,0,0,0,0,0,0,0,0,0,0,0,0,,,0,0,0,0,0,0,0,0,0,0,0,0,0,0,0,0,0,0
1777532507.7572603,114547,1777532489.2881627,,,0,0,,,0,0,0,0,0,0,0.0,0.0,0.0,0.0,0.0,0.0,0.0,0.0,0.0,0.0,0.0,0.0,0.0,0.0,0.0,0.0,0.0,0.0,0.0,0.0,0.0,0.0,0.0,0.0,0.0,0.0,0.0,48.6968998360639,642.9451907672442,853.0428573969712,135.78921849380944,653.4499608545048,857.6134635486637,93.62362839817351,426.2918139216639,911.4622464636855,176.37620835909328,444.38858402554183,910.6070003983704,-81.99452796440254,515.1835561711109,702.9246361343643,-77.12054462682958,503.62794732062093,409.2807390832776,-97.0895617527167,324.81072469982064,254.36664089229808,-69.78293165734915,226.1875248361842,150.40776436729297,-11.926839070666606,155.0709132325576,158.12552818154478,-41.98955315654858,397.0466248190561,43.51748336251788,268.37121653017834,598.3798565986208,694.9965171903156,228.12994086565885,627.2300551710454,401.0747923223815,228.48989821028957,582.8406183483413,224.17855719356697,177.37906137980164,535.4545380632248,65.9098331238565,120.99822413249966,475.25211686274105,40.72590586346763,163.03065846641158,736.589479101377,54.05652584093307,0,,,0.0,0.0,0.0,0.0,0.0,0.0,0.0,0.0,0.0,0.0,0.0,0.0,1.0,0,,,0.0,0.0,0.0,0.0,0.0,0.0,0.0,0.0,0.0,0.0,0.0,0.0,1.0,0,,,0.0,0.0,0.0,0.0,0.0,0.0,0.0,0.0,0.0,0.0,0.0,0.0,1.0,0,,,0.0,0.0,0.0,0.0,0.0,0.0,0.0,0.0,0.0,0.0,0.0,0.0,1.0,0,,,0.0,0.0,0.0,0.0,0.0,0.0,0.0,0.0,0.0,0.0,0.0,0.0,1.0,0,,,0.0,0.0,0.0,0.0,0.0,0.0,0.0,0.0,0.0,0.0,0.0,0.0,1.0,0,,,0.0,0.0,0.0,0.0,0.0,0.0,0.0,0.0,0.0,0.0,0.0,0.0,1.0,0,,,0,0,0,0,0,0,0,0,0,0,0,0,0,0,0,0,0,0,0,,,0,0,0,0,0,0,0,0,0,0,0,0,0,0,0,0,0,0
1777532507.7572603,114548,1777532489.298162,,,0,0,,,0,0,0,0,0,0,0.0,0.0,0.0,0.0,0.0,0.0,0.0,0.0,0.0,0.0,0.0,0.0,0.0,0.0,0.0,0.0,0.0,0.0,0.0,0.0,0.0,0.0,0.0,0.0,0.0,0.0,0.0,50.00599420867784,643.0586599410743,853.6719470622961,137.11677846650724,653.2752493964265,857.8659268475869,94.39050917260433,426.30626446126047,912.0193387949896,177.2772529882082,444.2790751145399,911.0267951918319,-81.04460974543683,517.6780678798011,703.3357067820472,-76.67689178593815,509.36167917603206,409.5160459565647,-96.22008266193438,328.1988140357033,257.33628679816064,-68.93150643515544,227.94540103906212,155.33606380348903,-10.175459435440128,158.09322919515134,166.46157406857827,-42.14310447389281,395.64632577751553,42.77529719528998,269.2739935763883,597.0445423447019,694.8465200180611,228.93093078679559,624.2658166865623,400.8388213188118,228.7265858614216,579.44824993909,224.02695628228818,177.18492303403553,531.7220575718645,65.83180564460947,120.89732117538225,471.51923847530327,40.78727362701696,162.98414607197492,732.9028260582259,53.96464322775073,0,,,0.0,0.0,0.0,0.0,0.0,0.0,0.0,0.0,0.0,0.0,0.0,0.0,1.0,0,,,0.0,0.0,0.0,0.0,0.0,0.0,0.0,0.0,0.0,0.0,0.0,0.0,1.0,0,,,0.0,0.0,0.0,0.0,0.0,0.0,0.0,0.0,0.0,0.0,0.0,0.0,1.0,0,,,0.0,0.0,0.0,0.0,0.0,0.0,0.0,0.0,0.0,0.0,0.0,0.0,1.0,0,,,0.0,0.0,0.0,0.0,0.0,0.0,0.0,0.0,0.0,0.0,0.0,0.0,1.0,0,,,0.0,0.0,0.0,0.0,0.0,0.0,0.0,0.0,0.0,0.0,0.0,0.0,1.0,0,,,0.0,0.0,0.0,0.0,0.0,0.0,0.0,0.0,0.0,0.0,0.0,0.0,1.0,0,,,0,0,0,0,0,0,0,0,0,0,0,0,0,0,0,0,0,0,0,,,0,0,0,0,0,0,0,0,0,0,0,0,0,0,0,0,0,0
1777532507.758767,114549,1777532489.3116832,1777532489.311162,,0,0,0.5211830139160156,,1,0,1,0,0,0,0.0,0.0,0.0,0.0,0.0,0.0,0.0,0.0,0.0,0.0,0.0,0.0,0.0,0.0,0.0,0.0,0.0,0.0,0.0,0.0,0.0,0.0,0.0,0.0,0.0,0.0,0.0,51.306496365090354,643.0727234048285,854.269020062531,138.42988585502536,653.0700986514224,858.1112660379536,95.36399246502404,426.08851376943727,912.4427851559301,178.10586399061427,444.2176274616402,911.3046027806429,-80.19779457074276,520.1105469571232,703.8465466973031,-76.03395185639478,515.239532062674,409.92802173766614,-95.42595755697367,331.87058190611856,260.51900680312247,-67.477597966762,230.02129872714232,159.68777061142504,-8.484588797115329,161.7315185654483,174.51331021883752,-42.06107723449057,393.8299319735348,41.60913725706355,270.16655615110614,595.6580868728638,694.6954728753577,229.57099826021513,621.2457803119233,400.5506523844079,228.93447627517233,576.0351027589265,223.79781435374596,177.1490755268118,528.0770332644877,65.84683673373733,120.59373560832341,467.95477378869265,40.88459570967643,162.8000763643778,729.2496317822086,53.96270032350146,0,,,0.0,0.0,0.0,0.0,0.0,0.0,0.0,0.0,0.0,0.0,0.0,0.0,1.0,0,,,0.0,0.0,0.0,0.0,0.0,0.0,0.0,0.0,0.0,0.0,0.0,0.0,1.0,0,,,0.0,0.0,0.0,0.0,0.0,0.0,0.0,0.0,0.0,0.0,0.0,0.0,1.0,0,,,0.0,0.0,0.0,0.0,0.0,0.0,0.0,0.0,0.0,0.0,0.0,0.0,1.0,0,,,0.0,0.0,0.0,0.0,0.0,0.0,0.0,0.0,0.0,0.0,0.0,0.0,1.0,1,1777532489.311162,0.5211830139160156,3.1438,-8.5463,3.6846,0.3052,-0.1221,0.3662,-66.6046,-18.6438,-134.61,-0.0841,-0.5521,-0.7266,0.4003,0,,,0.0,0.0,0.0,0.0,0.0,0.0,0.0,0.0,0.0,0.0,0.0,0.0,1.0,0,,,0,0,0,0,0,0,0,0,0,0,0,0,0,0,0,0,0,0,0,,,0,0,0,0,0,0,0,0,0,0,0,0,0,0,0,0,0,0
1777532507.759302,114550,1777532489.3187695,1777532489.311162,,0,0,7.607460021972656,,1,0,1,0,0,0,0.0,0.0,0.0,0.0,0.0,0.0,0.0,0.0,0.0,0.0,0.0,0.0,0.0,0.0,0.0,0.0,0.0,0.0,0.0,0.0,0.0,0.0,0.0,0.0,0.0,0.0,0.0,52.54763819912753,642.8818886661601,854.8896872868743,139.68619857603946,652.7746217985552,858.3384139337595,96.15560901236967,425.8000676055219,912.9210422810705,179.08691846750696,443.6561888998485,911.6386144368007,-79.44718489994423,522.5763606667781,704.3578068765835,-75.36614369812368,521.085209971632,410.42852404469124,-94.40810371856604,335.5215106855623,263.42403114215017,-66.65429545797618,232.39773927191126,165.07940168101766,-6.380973723087422,165.41272187399616,182.5415234603028,-42.299002660421465,392.54756441494527,40.85399164438862,270.96517346998564,594.1547639937638,694.4967699401893,230.1793689042277,618.2873694292249,400.2375964141005,229.1425203680799,572.6362766583097,223.59944677541347,177.86405941674428,524.2705952335517,66.47936719375433,120.60524860250845,464.19263066899566,40.8118821658184,162.66758540156772,725.6118149668356,53.93276053121171,0,,,0.0,0.0,0.0,0.0,0.0,0.0,0.0,0.0,0.0,0.0,0.0,0.0,1.0,0,,,0.0,0.0,0.0,0.0,0.0,0.0,0.0,0.0,0.0,0.0,0.0,0.0,1.0,0,,,0.0,0.0,0.0,0.0,0.0,0.0,0.0,0.0,0.0,0.0,0.0,0.0,1.0,0,,,0.0,0.0,0.0,0.0,0.0,0.0,0.0,0.0,0.0,0.0,0.0,0.0,1.0,0,,,0.0,0.0,0.0,0.0,0.0,0.0,0.0,0.0,0.0,0.0,0.0,0.0,1.0,1,1777532489.311162,7.607460021972656,3.1438,-8.5463,3.6846,0.3052,-0.1221,0.3662,-66.6046,-18.6438,-134.61,-0.0841,-0.5521,-0.7266,0.4003,0,,,0.0,0.0,0.0,0.0,0.0,0.0,0.0,0.0,0.0,0.0,0.0,0.0,1.0,0,,,0,0,0,0,0,0,0,0,0,0,0,0,0,0,0,0,0,0,0,,,0,0,0,0,0,0,0,0,0,0,0,0,0,0,0,0,0,0
1777532507.759302,114551,1777532489.328771,1777532489.311162,,0,0,17.609119415283203,,1,0,1,0,0,0,0.0,0.0,0.0,0.0,0.0,0.0,0.0,0.0,0.0,0.0,0.0,0.0,0.0,0.0,0.0,0.0,0.0,0.0,0.0,0.0,0.0,0.0,0.0,0.0,0.0,0.0,0.0,53.771336682363895,642.6717846296262,855.4773846848018,140.90661882016195,652.373769610076,858.5771655794221,96.87548129355909,425.4859148109238,913.3887345897913,179.86362585433204,443.29302343524665,911.8496779117214,-78.64965314415355,524.867597317446,704.9135050104586,-74.57568656070225,526.9919569967022,411.04088641406435,-93.49215016827499,339.51002091622206,266.6268988965527,-65.6666223634382,235.32052548273177,170.2201395738997,-4.3594889109723605,169.84449862287792,189.828578051338,-42.742736474503374,391.2851923821486,40.03881889307891,271.62145881148166,592.6143284777773,694.3373522172986,230.7174980234716,615.3274203979873,399.9495983940866,229.3605400453666,569.3428907531985,223.50115595562423,177.81949884007398,520.5994961217826,66.48932768663853,120.33102695140812,460.5397043923132,40.87853409232407,162.5510028407818,721.8877691766139,53.91323960727542,0,,,0.0,0.0,0.0,0.0,0.0,0.0,0.0,0.0,0.0,0.0,0.0,0.0,1.0,0,,,0.0,0.0,0.0,0.0,0.0,0.0,0.0,0.0,0.0,0.0,0.0,0.0,1.0,0,,,0.0,0.0,0.0,0.0,0.0,0.0,0.0,0.0,0.0,0.0,0.0,0.0,1.0,0,,,0.0,0.0,0.0,0.0,0.0,0.0,0.0,0.0,0.0,0.0,0.0,0.0,1.0,0,,,0.0,0.0,0.0,0.0,0.0,0.0,0.0,0.0,0.0,0.0,0.0,0.0,1.0,1,1777532489.311162,17.609119415283203,3.1438,-8.5463,3.6846,0.3052,-0.1221,0.3662,-66.6046,-18.6438,-134.61,-0.0841,-0.5521,-0.7266,0.4003,0,,,0.0,0.0,0.0,0.0,0.0,0.0,0.0,0.0,0.0,0.0,0.0,0.0,1.0,0,,,0,0,0,0,0,0,0,0,0,0,0,0,0,0,0,0,0,0,0,,,0,0,0,0,0,0,0,0,0,0,0,0,0,0,0,0,0,0
1777532507.759302,114552,1777532489.3377743,,,0,0,,,0,0,0,0,0,0,0.0,0.0,0.0,0.0,0.0,0.0,0.0,0.0,0.0,0.0,0.0,0.0,0.0,0.0,0.0,0.0,0.0,0.0,0.0,0.0,0.0,0.0,0.0,0.0,0.0,0.0,0.0,54.91965798470385,642.3852188516545,856.0368797766337,142.05969602723778,651.9303856933617,858.7843678506571,97.63950321109955,424.982595042572,913.6776558819666,180.59785630914524,442.737897940985,912.1090065211511,-77.96204167668445,527.1852213495953,705.5598293039775,-73.73220412526254,532.6874290717064,411.82551826038804,-92.40583148731025,343.6557530124828,269.7376806316961,-64.32119263413706,238.1262236727536,174.4440530959148,-1.8963572995828957,174.61690413976444,197.02526157036777,-43.52953303086395,390.41648238551596,39.48794273706756,272.3354199574387,591.0913711868711,694.1367035318589,231.23935737771308,612.3950351356326,399.7273143487982,229.50457652323124,565.970957334004,223.29016424153275,177.67583266861516,517.0014394582425,66.54988452358434,120.27547756963921,456.96351858049303,40.92956667316769,162.4104439673814,718.2316978031167,53.875820354188804,0,,,0.0,0.0,0.0,0.0,0.0,0.0,0.0,0.0,0.0,0.0,0.0,0.0,1.0,0,,,0.0,0.0,0.0,0.0,0.0,0.0,0.0,0.0,0.0,0.0,0.0,0.0,1.0,0,,,0.0,0.0,0.0,0.0,0.0,0.0,0.0,0.0,0.0,0.0,0.0,0.0,1.0,0,,,0.0,0.0,0.0,0.0,0.0,0.0,0.0,0.0,0.0,0.0,0.0,0.0,1.0,0,,,0.0,0.0,0.0,0.0,0.0,0.0,0.0,0.0,0.0,0.0,0.0,0.0,1.0,0,,,0.0,0.0,0.0,0.0,0.0,0.0,0.0,0.0,0.0,0.0,0.0,0.0,1.0,0,,,0.0,0.0,0.0,0.0,0.0,0.0,0.0,0.0,0.0,0.0,0.0,0.0,1.0,0,,,0,0,0,0,0,0,0,0,0,0,0,0,0,0,0,0,0,0,0,,,0,0,0,0,0,0,0,0,0,0,0,0,0,0,0,0,0,0
1777532507.759302,114553,1777532489.348285,,,0,0,,,0,0,0,0,0,0,0.0,0.0,0.0,0.0,0.0,0.0,0.0,0.0,0.0,0.0,0.0,0.0,0.0,0.0,0.0,0.0,0.0,0.0,0.0,0.0,0.0,0.0,0.0,0.0,0.0,0.0,0.0,56.00427875294984,641.9607161395304,856.6463876958906,143.1567870751683,651.3673497058372,859.0392909714893,98.45965956937803,424.4833919893306,914.1865560921188,181.36504453514564,442.1026786947388,912.4038038508747,-77.24796034897143,529.2017672810781,706.1111008682902,-72.81105904982854,538.589270267324,412.6952348748506,-91.27542353420571,347.8266820546924,272.6893629590765,-63.4475856740583,240.9884258264664,178.58284307147238,0.5838637976891693,179.50468616592607,202.26493702472388,-44.94014897394027,391.2334713824256,40.15476027351944,272.91651564863,589.4891033969303,693.9786694222745,231.7174858134437,609.4540741582923,399.5311615989772,229.5854343187813,562.6135140425785,223.12547110800637,177.59094026560564,513.2742139761741,66.59598168067521,120.1046580667225,453.13443055899785,40.98802045427623,162.26471505340922,714.5383078450388,53.83507734865079,0,,,0.0,0.0,0.0,0.0,0.0,0.0,0.0,0.0,0.0,0.0,0.0,0.0,1.0,0,,,0.0,0.0,0.0,0.0,0.0,0.0,0.0,0.0,0.0,0.0,0.0,0.0,1.0,0,,,0.0,0.0,0.0,0.0,0.0,0.0,0.0,0.0,0.0,0.0,0.0,0.0,1.0,0,,,0.0,0.0,0.0,0.0,0.0,0.0,0.0,0.0,0.0,0.0,0.0,0.0,1.0,0,,,0.0,0.0,0.0,0.0,0.0,0.0,0.0,0.0,0.0,0.0,0.0,0.0,1.0,0,,,0.0,0.0,0.0,0.0,0.0,0.0,0.0,0.0,0.0,0.0,0.0,0.0,1.0,0,,,0.0,0.0,0.0,0.0,0.0,0.0,0.0,0.0,0.0,0.0,0.0,0.0,1.0,0,,,0,0,0,0,0,0,0,0,0,0,0,0,0,0,0,0,0,0,0,,,0,0,0,0,0,0,0,0,0,0,0,0,0,0,0,0,0,0
1777532507.7603114,114554,1777532489.358286,,,0,0,,,0,0,0,0,0,0,0.0,0.0,0.0,0.0,0.0,0.0,0.0,0.0,0.0,0.0,0.0,0.0,0.0,0.0,0.0,0.0,0.0,0.0,0.0,0.0,0.0,0.0,0.0,0.0,0.0,0.0,0.0,57.010623333605146,641.5248528535267,857.2183720957322,144.14604223607913,650.7656380134525,859.2769192371085,98.88188986944571,423.96007377158963,914.5295493472885,182.07400386339177,441.4544814458939,912.6395280676427,-76.70660942037217,531.1405995162439,706.83074260235,-71.93799611001585,544.2165088009145,413.70819009047864,-90.07068360302442,352.146350671261,275.5843033719488,-60.86862659934068,244.14686231671743,181.1275100823695,3.232052690371624,183.7517534601705,204.9702578832078,-46.56481992269734,394.2068721056476,42.46434551527981,273.47117236092464,587.818730159356,693.8196086534483,232.19322411779234,606.4216921890884,399.25727265636664,229.79950963632453,559.1949833523357,223.04496073793337,176.50615802573864,509.6302184772006,65.94059556533001,119.85094287479332,449.5253076045584,41.06746918739966,162.14833760772495,710.9089528642129,53.79352407043196,0,,,0.0,0.0,0.0,0.0,0.0,0.0,0.0,0.0,0.0,0.0,0.0,0.0,1.0,0,,,0.0,0.0,0.0,0.0,0.0,0.0,0.0,0.0,0.0,0.0,0.0,0.0,1.0,0,,,0.0,0.0,0.0,0.0,0.0,0.0,0.0,0.0,0.0,0.0,0.0,0.0,1.0,0,,,0.0,0.0,0.0,0.0,0.0,0.0,0.0,0.0,0.0,0.0,0.0,0.0,1.0,0,,,0.0,0.0,0.0,0.0,0.0,0.0,0.0,0.0,0.0,0.0,0.0,0.0,1.0,0,,,0.0,0.0,0.0,0.0,0.0,0.0,0.0,0.0,0.0,0.0,0.0,0.0,1.0,0,,,0.0,0.0,0.0,0.0,0.0,0.0,0.0,0.0,0.0,0.0,0.0,0.0,1.0,0,,,0,0,0,0,0,0,0,0,0,0,0,0,0,0,0,0,0,0,0,,,0,0,0,0,0,0,0,0,0,0,0,0,0,0,0,0,0,0
1777532507.7603114,114555,1777532489.368794,,,0,0,,,0,0,0,0,0,0,0.0,0.0,0.0,0.0,0.0,0.0,0.0,0.0,0.0,0.0,0.0,0.0,0.0,0.0,0.0,0.0,0.0,0.0,0.0,0.0,0.0,0.0,0.0,0.0,0.0,0.0,0.0,57.89651517864249,641.080724413554,857.8357693736791,145.00926306943214,650.1073511461339,859.5036309533771,99.53446185855991,423.32512414144014,914.8528622411156,182.6371226793195,440.8303718583384,912.8514441216312,-76.04847723029248,532.8325419949816,707.5841249766785,-70.99595558463363,549.6920073096344,414.75869456239116,-88.61655860763878,356.2725078456066,277.8822009000108,-59.09934570237298,247.48677196541476,183.96209393410348,6.10012258657384,187.83426136081806,206.0285471995686,-48.003062097087486,399.1095787019667,46.23080633367992,273.90719065172436,586.1394648543068,693.6404655503106,232.6661035440088,603.3340849086826,399.07646794558366,229.94038621426344,555.6867865852793,222.9102883706881,176.44159982637314,505.9683022286662,66.03182876433839,119.8379078358676,445.69791678486496,41.09252032289413,162.04925933248074,707.1294261678978,53.78496780529687,0,,,0.0,0.0,0.0,0.0,0.0,0.0,0.0,0.0,0.0,0.0,0.0,0.0,1.0,0,,,0.0,0.0,0.0,0.0,0.0,0.0,0.0,0.0,0.0,0.0,0.0,0.0,1.0,0,,,0.0,0.0,0.0,0.0,0.0,0.0,0.0,0.0,0.0,0.0,0.0,0.0,1.0,0,,,0.0,0.0,0.0,0.0,0.0,0.0,0.0,0.0,0.0,0.0,0.0,0.0,1.0,0,,,0.0,0.0,0.0,0.0,0.0,0.0,0.0,0.0,0.0,0.0,0.0,0.0,1.0,0,,,0.0,0.0,0.0,0.0,0.0,0.0,0.0,0.0,0.0,0.0,0.0,0.0,1.0,0,,,0.0,0.0,0.0,0.0,0.0,0.0,0.0,0.0,0.0,0.0,0.0,0.0,1.0,0,,,0,0,0,0,0,0,0,0,0,0,0,0,0,0,0,0,0,0,0,,,0,0,0,0,0,0,0,0,0,0,0,0,0,0,0,0,0,0
1777532507.7603114,114556,1777532489.3782983,,,0,0,,,0,0,0,0,0,0,0.0,0.0,0.0,0.0,0.0,0.0,0.0,0.0,0.0,0.0,0.0,0.0,0.0,0.0,0.0,0.0,0.0,0.0,0.0,0.0,0.0,0.0,0.0,0.0,0.0,0.0,0.0,58.66990396687317,640.4768556334367,858.4370527876363,145.79101641809234,649.400226298281,859.7368849759581,100.22460260726402,422.6168045300547,915.3694282377631,183.27040367224794,440.0883077678154,913.1411500743453,-75.66507148263742,534.4627930075399,708.4435058324822,-70.1670656371788,554.8356016383342,415.8528363810952,-87.26461234058327,360.73418344244266,279.99757199037606,-57.66840449255326,252.32461717811324,185.78340606042232,9.339873192739667,192.60580327508333,206.1639813786747,-49.206316041651505,405.18196377022866,49.84458944916978,274.37929973883627,584.485462628531,693.5144640496007,233.1250429641059,600.21649487108,398.90550388575963,230.1092961856449,552.2477613650792,222.8615641300546,177.0793240962761,502.0344474612017,66.61007670239647,119.47862555575531,442.0377510306714,41.189634821689616,161.90303849552308,703.3667489537254,53.72905826575027,0,,,0.0,0.0,0.0,0.0,0.0,0.0,0.0,0.0,0.0,0.0,0.0,0.0,1.0,0,,,0.0,0.0,0.0,0.0,0.0,0.0,0.0,0.0,0.0,0.0,0.0,0.0,1.0,0,,,0.0,0.0,0.0,0.0,0.0,0.0,0.0,0.0,0.0,0.0,0.0,0.0,1.0,0,,,0.0,0.0,0.0,0.0,0.0,0.0,0.0,0.0,0.0,0.0,0.0,0.0,1.0,0,,,0.0,0.0,0.0,0.0,0.0,0.0,0.0,0.0,0.0,0.0,0.0,0.0,1.0,0,,,0.0,0.0,0.0,0.0,0.0,0.0,0.0,0.0,0.0,0.0,0.0,0.0,1.0,0,,,0.0,0.0,0.0,0.0,0.0,0.0,0.0,0.0,0.0,0.0,0.0,0.0,1.0,0,,,0,0,0,0,0,0,0,0,0,0,0,0,0,0,0,0,0,0,0,,,0,0,0,0,0,0,0,0,0,0,0,0,0,0,0,0,0,0
1777532507.7603114,114557,1777532489.3917818,1777532489.3903034,,0,0,1.478433609008789,,1,0,1,0,0,0,0.0,0.0,0.0,0.0,0.0,0.0,0.0,0.0,0.0,0.0,0.0,0.0,0.0,0.0,0.0,0.0,0.0,0.0,0.0,0.0,0.0,0.0,0.0,0.0,0.0,0.0,0.0,59.39126551962871,639.8482776616702,859.0828094153297,146.5210706145021,648.6391147013802,859.952985027656,100.64309589190749,421.9310965712524,915.6825320204445,183.89421036777412,439.33557790666725,913.5664111122462,-75.11399629191065,535.7272883883996,709.3996402423987,-69.37393560089706,559.9190983147919,417.13454789474855,-85.68648112573464,365.3671429453086,281.7368479483261,-56.1127835430925,257.6911849014917,186.7003595516945,12.294859490113847,198.13485404971294,205.6689939855281,-50.29230072282919,412.04595550699133,52.729168150216324,274.75684873784076,582.7882923514937,693.3350223340477,233.5117552683078,597.1209526109799,398.71905920552,230.18329202851183,548.7322409618948,222.73759669681718,176.23571208151873,498.46222570442325,66.15350177410463,119.46511511662871,438.19331234848346,41.27082177651381,161.7779425791096,699.6281800921341,53.678054328014746,0,,,0.0,0.0,0.0,0.0,0.0,0.0,0.0,0.0,0.0,0.0,0.0,0.0,1.0,0,,,0.0,0.0,0.0,0.0,0.0,0.0,0.0,0.0,0.0,0.0,0.0,0.0,1.0,0,,,0.0,0.0,0.0,0.0,0.0,0.0,0.0,0.0,0.0,0.0,0.0,0.0,1.0,0,,,0.0,0.0,0.0,0.0,0.0,0.0,0.0,0.0,0.0,0.0,0.0,0.0,1.0,0,,,0.0,0.0,0.0,0.0,0.0,0.0,0.0,0.0,0.0,0.0,0.0,0.0,1.0,1,1777532489.3903034,1.478433609008789,3.1486,-8.5415,3.6894,0.2441,-0.061,0.3662,-66.6046,-18.6438,-134.61,-0.0841,-0.5521,-0.7266,0.4003,0,,,0.0,0.0,0.0,0.0,0.0,0.0,0.0,0.0,0.0,0.0,0.0,0.0,1.0,0,,,0,0,0,0,0,0,0,0,0,0,0,0,0,0,0,0,0,0,0,,,0,0,0,0,0,0,0,0,0,0,0,0,0,0,0,0,0,0
1777532507.7603114,114558,1777532489.397791,1777532489.3903034,,0,0,7.48753547668457,,1,0,1,0,0,0,0.0,0.0,0.0,0.0,0.0,0.0,0.0,0.0,0.0,0.0,0.0,0.0,0.0,0.0,0.0,0.0,0.0,0.0,0.0,0.0,0.0,0.0,0.0,0.0,0.0,0.0,0.0,60.08788691651194,639.2953195828674,859.7274912015669,147.202957186045,647.8011166275459,860.1982832692414,101.27570799767506,421.14490982664114,916.1719504860274,184.38208398131792,438.5527716085171,913.8290826566699,-74.81421702243718,536.9678891827766,710.4162856166416,-68.61687367004335,564.7739667949079,418.6220517811792,-84.32831412278317,370.344647424645,282.8936509504603,-54.712704886482314,263.4954480186303,187.33914729086672,14.261033382861475,203.9876979409154,204.2713535605706,-51.30700109957293,419.5350609642796,55.074457738721094,275.09132929530307,581.0282426294293,693.2323785064401,233.80158798783302,593.9821300988275,398.5436956725051,230.27146552888647,545.3130420638148,222.73964496989382,176.82031377800777,494.49960474057775,66.6998196932431,119.3328702043622,434.368961680557,41.342860187374114,161.6734182726715,695.7741398440442,53.695149940544006,0,,,0.0,0.0,0.0,0.0,0.0,0.0,0.0,0.0,0.0,0.0,0.0,0.0,1.0,0,,,0.0,0.0,0.0,0.0,0.0,0.0,0.0,0.0,0.0,0.0,0.0,0.0,1.0,0,,,0.0,0.0,0.0,0.0,0.0,0.0,0.0,0.0,0.0,0.0,0.0,0.0,1.0,0,,,0.0,0.0,0.0,0.0,0.0,0.0,0.0,0.0,0.0,0.0,0.0,0.0,1.0,0,,,0.0,0.0,0.0,0.0,0.0,0.0,0.0,0.0,0.0,0.0,0.0,0.0,1.0,1,1777532489.3903034,7.48753547668457,3.1486,-8.5415,3.6894,0.2441,-0.061,0.3662,-66.6046,-18.6438,-134.61,-0.0841,-0.5521,-0.7266,0.4003,0,,,0.0,0.0,0.0,0.0,0.0,0.0,0.0,0.0,0.0,0.0,0.0,0.0,1.0,0,,,0,0,0,0,0,0,0,0,0,0,0,0,0,0,0,0,0,0,0,,,0,0,0,0,0,0,0,0,0,0,0,0,0,0,0,0,0,0
1777532507.7618158,114559,1777532489.4077914,1777532489.3903034,,0,0,17.48800277709961,,1,0,1,0,0,0,0.0,0.0,0.0,0.0,0.0,0.0,0.0,0.0,0.0,0.0,0.0,0.0,0.0,0.0,0.0,0.0,0.0,0.0,0.0,0.0,0.0,0.0,0.0,0.0,0.0,0.0,0.0,60.72451918136726,638.5758715929192,860.413933104952,147.84153542209177,646.9926740893297,860.4403686801288,102.01053795800809,420.34258237983056,916.7526150233048,184.92500947595786,437.70682245685157,914.0973519616424,-74.43812638360305,537.9462312876432,711.4944879710832,-67.99878639441303,569.548924342399,420.14501322358495,-82.87409014887926,375.5295189448124,283.57999299683036,-53.076648484843375,269.88290422734747,186.70597920632528,15.896314691216675,210.22718996892277,202.08710652884088,-52.336912576347466,427.75895112774106,56.87001500607835,275.3896782791227,579.3103989784427,693.098359927181,233.99872664639415,590.87569188512,398.39446676304794,230.2926926151929,541.8064501388084,222.68909513859657,176.8205037045784,490.7564445152591,66.85177635997344,119.00671871148705,430.5468958875575,41.522722216458426,161.50148463212537,692.0085352965917,53.66902748167665,0,,,0.0,0.0,0.0,0.0,0.0,0.0,0.0,0.0,0.0,0.0,0.0,0.0,1.0,0,,,0.0,0.0,0.0,0.0,0.0,0.0,0.0,0.0,0.0,0.0,0.0,0.0,1.0,0,,,0.0,0.0,0.0,0.0,0.0,0.0,0.0,0.0,0.0,0.0,0.0,0.0,1.0,0,,,0.0,0.0,0.0,0.0,0.0,0.0,0.0,0.0,0.0,0.0,0.0,0.0,1.0,0,,,0.0,0.0,0.0,0.0,0.0,0.0,0.0,0.0,0.0,0.0,0.0,0.0,1.0,1,1777532489.3903034,17.48800277709961,3.1486,-8.5415,3.6894,0.2441,-0.061,0.3662,-66.6046,-18.6438,-134.61,-0.0841,-0.5521,-0.7266,0.4003,0,,,0.0,0.0,0.0,0.0,0.0,0.0,0.0,0.0,0.0,0.0,0.0,0.0,1.0,0,,,0,0,0,0,0,0,0,0,0,0,0,0,0,0,0,0,0,0,0,,,0,0,0,0,0,0,0,0,0,0,0,0,0,0,0,0,0,0
1777532507.7618158,114560,1777532489.4183009,,,0,0,,,0,0,0,0,0,0,0.0,0.0,0.0,0.0,0.0,0.0,0.0,0.0,0.0,0.0,0.0,0.0,0.0,0.0,0.0,0.0,0.0,0.0,0.0,0.0,0.0,0.0,0.0,0.0,0.0,0.0,0.0,61.334552314792695,637.8246950375753,861.0787430902424,148.44260909066648,646.1149917707038,860.6703109611367,102.49952602638058,419.465054387161,917.0909928734451,185.56529195170165,436.89362131228603,914.3882467502491,-74.02574959079308,538.7485672788088,712.5425804515434,-67.47353460509693,574.2107414734777,421.72058138427747,-81.52332912076272,381.04875137119706,283.64080481420467,-51.76173163077155,276.6006976925986,185.62254572673578,17.522756354742402,217.2123502511374,199.10460361348524,-53.33594976469925,436.7826396544157,58.29480637479257,275.67129578151696,577.5452573231378,692.9613338242532,234.1571828099854,587.7236635827055,398.30164869409344,230.23019079531306,538.2110427435526,222.6310448220928,175.7059673751978,487.00097054532233,66.25870484500545,118.87107609564036,426.7844938358087,41.52252453647398,161.40441309266754,688.1690479386142,53.658722469796665,0,,,0.0,0.0,0.0,0.0,0.0,0.0,0.0,0.0,0.0,0.0,0.0,0.0,1.0,0,,,0.0,0.0,0.0,0.0,0.0,0.0,0.0,0.0,0.0,0.0,0.0,0.0,1.0,0,,,0.0,0.0,0.0,0.0,0.0,0.0,0.0,0.0,0.0,0.0,0.0,0.0,1.0,0,,,0.0,0.0,0.0,0.0,0.0,0.0,0.0,0.0,0.0,0.0,0.0,0.0,1.0,0,,,0.0,0.0,0.0,0.0,0.0,0.0,0.0,0.0,0.0,0.0,0.0,0.0,1.0,0,,,0.0,0.0,0.0,0.0,0.0,0.0,0.0,0.0,0.0,0.0,0.0,0.0,1.0,0,,,0.0,0.0,0.0,0.0,0.0,0.0,0.0,0.0,0.0,0.0,0.0,0.0,1.0,0,,,0,0,0,0,0,0,0,0,0,0,0,0,0,0,0,0,0,0,0,,,0,0,0,0,0,0,0,0,0,0,0,0,0,0,0,0,0,0
1777532507.7618158,114561,1777532489.4283009,,,0,0,,,0,0,0,0,0,0,0.0,0.0,0.0,0.0,0.0,0.0,0.0,0.0,0.0,0.0,0.0,0.0,0.0,0.0,0.0,0.0,0.0,0.0,0.0,0.0,0.0,0.0,0.0,0.0,0.0,0.0,0.0,61.8654057472157,636.8847882318297,861.7000028781816,148.9720057984594,645.2620731326649,860.8476668358496,103.30017066350788,418.5684987882356,917.722367594253,186.18975918894807,436.0088041802332,914.6103061969492,-73.66964074817378,539.3453345553859,713.5288454497693,-66.83890733662118,578.5351605381065,423.242820023022,-80.44049451995883,386.6988002972673,283.4127329789231,-51.152700416622004,283.6061084378087,183.85860217835264,19.03113713286572,224.65942821775045,195.137068399481,-54.66393332062218,446.7527558829299,59.65723789917019,275.90099937209874,575.8094420931654,692.8573734492657,234.33263770838806,584.5034024978552,398.173222271219,230.28688002592872,534.6908928340345,222.66791505819327,176.30964046103065,482.9753797760511,66.77175672717428,118.73895376472082,422.94474355078313,41.63270018217895,161.17990857990836,684.3319347284092,53.6460897280621,0,,,0.0,0.0,0.0,0.0,0.0,0.0,0.0,0.0,0.0,0.0,0.0,0.0,1.0,0,,,0.0,0.0,0.0,0.0,0.0,0.0,0.0,0.0,0.0,0.0,0.0,0.0,1.0,0,,,0.0,0.0,0.0,0.0,0.0,0.0,0.0,0.0,0.0,0.0,0.0,0.0,1.0,0,,,0.0,0.0,0.0,0.0,0.0,0.0,0.0,0.0,0.0,0.0,0.0,0.0,1.0,0,,,0.0,0.0,0.0,0.0,0.0,0.0,0.0,0.0,0.0,0.0,0.0,0.0,1.0,0,,,0.0,0.0,0.0,0.0,0.0,0.0,0.0,0.0,0.0,0.0,0.0,0.0,1.0,0,,,0.0,0.0,0.0,0.0,0.0,0.0,0.0,0.0,0.0,0.0,0.0,0.0,1.0,0,,,0,0,0,0,0,0,0,0,0,0,0,0,0,0,0,0,0,0,0,,,0,0,0,0,0,0,0,0,0,0,0,0,0,0,0,0,0,0
1777532507.7618158,114562,1777532489.4383116,,,0,0,,,0,0,0,0,0,0,0.0,0.0,0.0,0.0,0.0,0.0,0.0,0.0,0.0,0.0,0.0,0.0,0.0,0.0,0.0,0.0,0.0,0.0,0.0,0.0,0.0,0.0,0.0,0.0,0.0,0.0,0.0,61.8654057472157,636.8847882318297,861.7000028781816,149.4411556188929,644.3799916189602,861.0347501419596,103.81762750702919,417.65158152309294,918.0330498655574,186.822598170357,435.1434650963552,914.9727737799292,-73.47994890574057,539.9801261813205,714.4705056714481,-66.16606699725672,582.8454925188069,424.7356266786138,-79.43666560385454,392.6084539083316,282.6088428721852,-49.86116050304328,291.8742725841636,180.9853028244397,20.311677929095424,232.37275141053084,190.46443591905822,-55.757800767693865,457.3599680843364,60.8804354123213,276.1095772148717,574.1173136523882,692.723078026759,234.53470946137318,581.2491439665532,398.0666148484759,230.29794228442324,531.0528254129955,222.60685311070125,176.08774852341392,479.20746897284033,66.71924506301009,118.58929107266951,419.1184042181576,41.688759830259784,161.04919809773506,680.5292144984533,53.5905497354928,0,,,0.0,0.0,0.0,0.0,0.0,0.0,0.0,0.0,0.0,0.0,0.0,0.0,1.0,0,,,0.0,0.0,0.0,0.0,0.0,0.0,0.0,0.0,0.0,0.0,0.0,0.0,1.0,0,,,0.0,0.0,0.0,0.0,0.0,0.0,0.0,0.0,0.0,0.0,0.0,0.0,1.0,0,,,0.0,0.0,0.0,0.0,0.0,0.0,0.0,0.0,0.0,0.0,0.0,0.0,1.0,0,,,0.0,0.0,0.0,0.0,0.0,0.0,0.0,0.0,0.0,0.0,0.0,0.0,1.0,0,,,0.0,0.0,0.0,0.0,0.0,0.0,0.0,0.0,0.0,0.0,0.0,0.0,1.0,0,,,0.0,0.0,0.0,0.0,0.0,0.0,0.0,0.0,0.0,0.0,0.0,0.0,1.0,0,,,0,0,0,0,0,0,0,0,0,0,0,0,0,0,0,0,0,0,0,,,0,0,0,0,0,0,0,0,0,0,0,0,0,0,0,0,0,0
1777532507.7628222,114563,1777532489.4485989,,,0,0,,,0,0,0,0,0,0,0.0,0.0,0.0,0.0,0.0,0.0,0.0,0.0,0.0,0.0,0.0,0.0,0.0,0.0,0.0,0.0,0.0,0.0,0.0,0.0,0.0,0.0,0.0,0.0,0.0,0.0,0.0,61.8654057472157,636.8847882318297,861.7000028781816,149.83526540964218,643.4501017686503,861.1462522867017,104.25185723758105,416.7250669400593,918.356662404378,187.36395239942556,434.25414217991784,915.1739183799402,-73.30086790576303,540.4741461754733,715.3805717122228,-65.63376428237932,587.053708364879,426.23724144987165,-78.49511944221173,398.9542501044561,281.35797512762514,-48.92881120942781,300.06104219530147,177.46849898871608,21.3689057602588,240.74125323810392,184.36843343311335,-56.78346402248287,468.87635925350594,62.13955886478421,276.3336309406516,572.3870291876794,692.6875028553533,234.77061391862577,577.8475335257125,397.9692337017692,230.34670268673221,527.4753820012887,222.62931936214642,175.79599632235914,475.3626358207672,66.7356219858185,118.30683437753889,415.32117908000316,41.835593974471294,160.907816875209,676.7242308944133,53.56771969330246,0,,,0.0,0.0,0.0,0.0,0.0,0.0,0.0,0.0,0.0,0.0,0.0,0.0,1.0,0,,,0.0,0.0,0.0,0.0,0.0,0.0,0.0,0.0,0.0,0.0,0.0,0.0,1.0,0,,,0.0,0.0,0.0,0.0,0.0,0.0,0.0,0.0,0.0,0.0,0.0,0.0,1.0,0,,,0.0,0.0,0.0,0.0,0.0,0.0,0.0,0.0,0.0,0.0,0.0,0.0,1.0,0,,,0.0,0.0,0.0,0.0,0.0,0.0,0.0,0.0,0.0,0.0,0.0,0.0,1.0,0,,,0.0,0.0,0.0,0.0,0.0,0.0,0.0,0.0,0.0,0.0,0.0,0.0,1.0,0,,,0.0,0.0,0.0,0.0,0.0,0.0,0.0,0.0,0.0,0.0,0.0,0.0,1.0,0,,,0,0,0,0,0,0,0,0,0,0,0,0,0,0,0,0,0,0,0,,,0,0,0,0,0,0,0,0,0,0,0,0,0,0,0,0,0,0
1777532507.7628222,114564,1777532489.4586806,,,0,0,,,0,0,0,0,0,0,0.0,0.0,0.0,0.0,0.0,0.0,0.0,0.0,0.0,0.0,0.0,0.0,0.0,0.0,0.0,0.0,0.0,0.0,0.0,0.0,0.0,0.0,0.0,0.0,0.0,0.0,0.0,61.8654057472157,636.8847882318297,861.7000028781816,150.16228823969962,642.494197266862,861.2420589197832,104.92121504699765,415.7506896998681,918.80898059512,187.49320104506012,433.8385624845504,915.3870393015965,-73.14714667390751,540.698804242633,716.298270301369,-64.94587601744858,590.9886205340077,427.6832257493946,-77.7967433127946,405.4385198691383,279.5012065575734,-48.588843904164754,309.15122607979595,173.45713413846252,22.160480239572074,249.56736844115,178.10446833735298,-57.73851608064591,481.0952907654136,63.02755313806219,276.5752888553888,570.6615855713263,692.5600474481217,235.03372998643863,574.4583205471947,397.89771609362043,230.39498692072496,523.8624569847884,222.5798900002096,175.8101531834035,471.5343318032311,66.82210821207765,118.23950489827641,411.5829811770643,41.84105459341735,160.71702201604785,672.9366916551276,53.58845817264116,0,,,0.0,0.0,0.0,0.0,0.0,0.0,0.0,0.0,0.0,0.0,0.0,0.0,1.0,0,,,0.0,0.0,0.0,0.0,0.0,0.0,0.0,0.0,0.0,0.0,0.0,0.0,1.0,0,,,0.0,0.0,0.0,0.0,0.0,0.0,0.0,0.0,0.0,0.0,0.0,0.0,1.0,0,,,0.0,0.0,0.0,0.0,0.0,0.0,0.0,0.0,0.0,0.0,0.0,0.0,1.0,0,,,0.0,0.0,0.0,0.0,0.0,0.0,0.0,0.0,0.0,0.0,0.0,0.0,1.0,0,,,0.0,0.0,0.0,0.0,0.0,0.0,0.0,0.0,0.0,0.0,0.0,0.0,1.0,0,,,0.0,0.0,0.0,0.0,0.0,0.0,0.0,0.0,0.0,0.0,0.0,0.0,1.0,0,,,0,0,0,0,0,0,0,0,0,0,0,0,0,0,0,0,0,0,0,,,0,0,0,0,0,0,0,0,0,0,0,0,0,0,0,0,0,0
1777532507.7628222,114565,1777532489.4716814,1777532489.4716814,,0,0,0.0,,1,0,1,0,0,0,0.0,0.0,0.0,0.0,0.0,0.0,0.0,0.0,0.0,0.0,0.0,0.0,0.0,0.0,0.0,0.0,0.0,0.0,0.0,0.0,0.0,0.0,0.0,0.0,0.0,0.0,0.0,61.8654057472157,636.8847882318297,861.7000028781816,150.42290350108604,641.4935737258791,861.3028831044074,105.45421182140248,414.7469728999158,919.1363724901253,188.38826775881904,432.64703013666104,915.7040617632254,-73.03085647427486,540.9595110653602,717.1335159953161,-64.531875937694,594.8474735600538,429.059416794059,-77.11606220696449,412.39060900423965,277.14218150057906,-48.298146626168304,318.63390128374164,168.97358107810018,22.38723792809713,259.04364688108643,170.63439504656668,-58.81761973625523,493.593265674225,63.69552993775398,276.7992612072746,568.9422163741601,692.5059122742522,235.2976435442349,571.0483257269524,397.8432517083939,230.42981957207192,520.1596296752517,222.52582312019314,175.65225841227948,467.7777645569314,66.79229705577171,117.92066539323139,407.7548993303832,41.82203961324532,160.61339689617193,669.1418136228108,53.55109619197837,0,,,0.0,0.0,0.0,0.0,0.0,0.0,0.0,0.0,0.0,0.0,0.0,0.0,1.0,0,,,0.0,0.0,0.0,0.0,0.0,0.0,0.0,0.0,0.0,0.0,0.0,0.0,1.0,0,,,0.0,0.0,0.0,0.0,0.0,0.0,0.0,0.0,0.0,0.0,0.0,0.0,1.0,0,,,0.0,0.0,0.0,0.0,0.0,0.0,0.0,0.0,0.0,0.0,0.0,0.0,1.0,0,,,0.0,0.0,0.0,0.0,0.0,0.0,0.0,0.0,0.0,0.0,0.0,0.0,1.0,1,1777532489.4716814,0.0,3.1295,-8.5319,3.7085,0.061,-0.2441,0.3662,-66.6046,-18.6438,-134.61,-0.0841,-0.5521,-0.7266,0.4003,0,,,0.0,0.0,0.0,0.0,0.0,0.0,0.0,0.0,0.0,0.0,0.0,0.0,1.0,0,,,0,0,0,0,0,0,0,0,0,0,0,0,0,0,0,0,0,0,0,,,0,0,0,0,0,0,0,0,0,0,0,0,0,0,0,0,0,0
1777532507.7628222,114566,1777532489.4783084,1777532489.4716814,,0,0,6.627082824707031,,1,0,1,0,0,0,0.0,0.0,0.0,0.0,0.0,0.0,0.0,0.0,0.0,0.0,0.0,0.0,0.0,0.0,0.0,0.0,0.0,0.0,0.0,0.0,0.0,0.0,0.0,0.0,0.0,0.0,0.0,61.8654057472157,636.8847882318297,861.7000028781816,150.61535748296947,640.4659385641532,861.2940646778529,106.14013251257059,413.65546209425503,919.4093672027165,188.9146137015901,431.7228265499424,915.983511776379,-72.96192604726143,541.0314857398557,717.9568519359304,-63.97232103897442,598.4623190852357,430.4114002550193,-76.69216652453728,419.6426626160125,274.1964438632074,-47.952025184982716,328.7578078953034,163.71703190516212,22.749933719998104,269.27512649989706,163.05877037519713,-60.031733523823,507.12945654236535,64.18113997825147,276.98240888004057,567.1634552698324,692.4061206457669,235.54925901091426,567.5634919499436,397.6824967488823,230.5698203615768,516.6079284528812,222.5230823792642,175.5272921724933,463.98149109083147,66.76968393298908,117.78529771938162,403.9253822627729,41.76604855473204,160.50766641658652,665.405391599525,53.561646692877474,0,,,0.0,0.0,0.0,0.0,0.0,0.0,0.0,0.0,0.0,0.0,0.0,0.0,1.0,0,,,0.0,0.0,0.0,0.0,0.0,0.0,0.0,0.0,0.0,0.0,0.0,0.0,1.0,0,,,0.0,0.0,0.0,0.0,0.0,0.0,0.0,0.0,0.0,0.0,0.0,0.0,1.0,0,,,0.0,0.0,0.0,0.0,0.0,0.0,0.0,0.0,0.0,0.0,0.0,0.0,1.0,0,,,0.0,0.0,0.0,0.0,0.0,0.0,0.0,0.0,0.0,0.0,0.0,0.0,1.0,1,1777532489.4716814,6.627082824707031,3.1295,-8.5319,3.7085,0.061,-0.2441,0.3662,-66.6046,-18.6438,-134.61,-0.0841,-0.5521,-0.7266,0.4003,0,,,0.0,0.0,0.0,0.0,0.0,0.0,0.0,0.0,0.0,0.0,0.0,0.0,1.0,0,,,0,0,0,0,0,0,0,0,0,0,0,0,0,0,0,0,0,0,0,,,0,0,0,0,0,0,0,0,0,0,0,0,0,0,0,0,0,0
1777532507.7628222,114567,1777532489.488307,1777532489.4716814,,0,0,16.625642776489258,,1,0,1,0,0,0,0.0,0.0,0.0,0.0,0.0,0.0,0.0,0.0,0.0,0.0,0.0,0.0,0.0,0.0,0.0,0.0,0.0,0.0,0.0,0.0,0.0,0.0,0.0,0.0,0.0,0.0,0.0,61.8654057472157,636.8847882318297,861.7000028781816,150.7304304195884,639.4616749886935,861.2209118292712,106.64785886225701,412.621461691208,919.8248175685902,189.31150367830364,430.81312937219946,916.2590621179193,-72.9729201476373,541.1194995029236,718.7753424874206,-63.478074887355824,602.0641354669621,431.7120453000509,-76.52958859220846,427.336925096471,270.88511710785906,-47.81508117054346,339.41357108572896,158.14037743044722,23.026631921562934,280.0167657600863,155.16651719373306,-60.7602706688605,520.6863369921701,64.14591340040849,277.17204142082977,565.3832226888691,692.3271001336011,235.81327575487774,564.0456000908197,397.56822123706866,230.63386536254086,512.9442098742654,222.45390058933316,175.57177287332638,460.28443419628087,66.77244478571288,117.67058373570697,400.3188079920852,41.80849196325328,160.3181851396821,661.6728563084018,53.55416591939605,0,,,0.0,0.0,0.0,0.0,0.0,0.0,0.0,0.0,0.0,0.0,0.0,0.0,1.0,0,,,0.0,0.0,0.0,0.0,0.0,0.0,0.0,0.0,0.0,0.0,0.0,0.0,1.0,0,,,0.0,0.0,0.0,0.0,0.0,0.0,0.0,0.0,0.0,0.0,0.0,0.0,1.0,0,,,0.0,0.0,0.0,0.0,0.0,0.0,0.0,0.0,0.0,0.0,0.0,0.0,1.0,0,,,0.0,0.0,0.0,0.0,0.0,0.0,0.0,0.0,0.0,0.0,0.0,0.0,1.0,1,1777532489.4716814,16.625642776489258,3.1295,-8.5319,3.7085,0.061,-0.2441,0.3662,-66.6046,-18.6438,-134.61,-0.0841,-0.5521,-0.7266,0.4003,0,,,0.0,0.0,0.0,0.0,0.0,0.0,0.0,0.0,0.0,0.0,0.0,0.0,1.0,0,,,0,0,0,0,0,0,0,0,0,0,0,0,0,0,0,0,0,0,0,,,0,0,0,0,0,0,0,0,0,0,0,0,0,0,0,0,0,0
1777532507.7638211,114568,1777532489.4983084,,,0,0,,,0,0,0,0,0,0,0.0,0.0,0.0,0.0,0.0,0.0,0.0,0.0,0.0,0.0,0.0,0.0,0.0,0.0,0.0,0.0,0.0,0.0,0.0,0.0,0.0,0.0,0.0,0.0,0.0,0.0,0.0,61.8654057472157,636.8847882318297,861.7000028781816,150.84743811399318,638.3427625753933,861.1160129267778,107.22419518425306,411.5343168667128,920.1868238177469,189.6481223631049,429.8940454451437,916.4748726869424,-73.06898200872054,541.2221579461902,719.6610395982171,-62.956236736062955,605.5452364604847,433.004695019611,-76.45493944107216,435.28802122869064,267.32937122130744,-47.94741556199312,350.41102318348555,152.22585129709262,23.012602044162968,291.4589297484411,146.9336725626647,-61.841346857083145,534.8681658939713,64.28077914069158,277.3076127182159,563.53419610555,692.2552438137844,236.10971790429255,560.6033544982952,397.47485688159475,230.7016377391809,509.3007391400066,222.4116339697288,175.34663160100652,456.461296137231,66.7809864187357,117.89427112901298,396.82231379489764,42.816660306704925,160.23384847674686,657.9041685485964,53.521197069597534,0,,,0.0,0.0,0.0,0.0,0.0,0.0,0.0,0.0,0.0,0.0,0.0,0.0,1.0,0,,,0.0,0.0,0.0,0.0,0.0,0.0,0.0,0.0,0.0,0.0,0.0,0.0,1.0,0,,,0.0,0.0,0.0,0.0,0.0,0.0,0.0,0.0,0.0,0.0,0.0,0.0,1.0,0,,,0.0,0.0,0.0,0.0,0.0,0.0,0.0,0.0,0.0,0.0,0.0,0.0,1.0,0,,,0.0,0.0,0.0,0.0,0.0,0.0,0.0,0.0,0.0,0.0,0.0,0.0,1.0,0,,,0.0,0.0,0.0,0.0,0.0,0.0,0.0,0.0,0.0,0.0,0.0,0.0,1.0,0,,,0.0,0.0,0.0,0.0,0.0,0.0,0.0,0.0,0.0,0.0,0.0,0.0,1.0,0,,,0,0,0,0,0,0,0,0,0,0,0,0,0,0,0,0,0,0,0,,,0,0,0,0,0,0,0,0,0,0,0,0,0,0,0,0,0,0
1777532507.7638211,114569,1777532489.5088189,,,0,0,,,0,0,0,0,0,0,0.0,0.0,0.0,0.0,0.0,0.0,0.0,0.0,0.0,0.0,0.0,0.0,0.0,0.0,0.0,0.0,0.0,0.0,0.0,0.0,0.0,0.0,0.0,0.0,0.0,0.0,0.0,61.8654057472157,636.8847882318297,861.7000028781816,150.9836948598646,637.187564423039,860.9890181324398,107.52746015819874,410.4529759970817,920.4179845941126,190.047946803788,428.88440282425216,916.7126083522285,-73.26677782837498,541.3006465118651,720.4231883550071,-62.685975502174365,609.0811741886633,434.23587486446326,-76.67542675214072,443.6064250217038,263.52751722542234,-48.19296208526943,361.88515921662446,146.14401216741015,22.638414908308732,303.195591591611,138.54831864259086,-62.65565663970401,548.9609607696362,63.96012064271945,277.40492299676504,561.6118132410897,692.1096978260016,236.29563323342882,557.1402528062063,397.325725811283,230.62305452567608,505.57934975423274,222.30015744308204,175.3951003318481,452.72386427659865,66.84981542820987,117.15562665205262,392.7415101776492,41.87465449601476,160.0216298070165,654.1094771949274,53.52057501701453,0,,,0.0,0.0,0.0,0.0,0.0,0.0,0.0,0.0,0.0,0.0,0.0,0.0,1.0,0,,,0.0,0.0,0.0,0.0,0.0,0.0,0.0,0.0,0.0,0.0,0.0,0.0,1.0,0,,,0.0,0.0,0.0,0.0,0.0,0.0,0.0,0.0,0.0,0.0,0.0,0.0,1.0,0,,,0.0,0.0,0.0,0.0,0.0,0.0,0.0,0.0,0.0,0.0,0.0,0.0,1.0,0,,,0.0,0.0,0.0,0.0,0.0,0.0,0.0,0.0,0.0,0.0,0.0,0.0,1.0,0,,,0.0,0.0,0.0,0.0,0.0,0.0,0.0,0.0,0.0,0.0,0.0,0.0,1.0,0,,,0.0,0.0,0.0,0.0,0.0,0.0,0.0,0.0,0.0,0.0,0.0,0.0,1.0,0,,,0,0,0,0,0,0,0,0,0,0,0,0,0,0,0,0,0,0,0,,,0,0,0,0,0,0,0,0,0,0,0,0,0,0,0,0,0,0
1777532507.7638211,114570,1777532489.5184639,,,0,0,,,0,0,0,0,0,0,0.0,0.0,0.0,0.0,0.0,0.0,0.0,0.0,0.0,0.0,0.0,0.0,0.0,0.0,0.0,0.0,0.0,0.0,0.0,0.0,0.0,0.0,0.0,0.0,0.0,0.0,0.0,61.8654057472157,636.8847882318297,861.7000028781816,151.11103993085896,636.042462403933,860.8132383534346,107.65739774985701,409.39948456295434,920.6119788546638,190.33884315982007,427.7701216740311,916.9500583619791,-73.43993616763868,541.3513481149032,721.220069997253,-62.26171164949025,612.130780912008,435.37898789409496,-77.02705465185765,452.05941911286664,259.7665743429976,-48.785465248716605,373.9566416580576,139.85793294953046,21.99870517200877,315.4411181483095,130.49348449426887,-63.24567666647151,563.4672936699247,63.74704853530397,277.5559958679211,559.7140453613484,691.9980541992048,236.4401366872521,553.613049403561,397.2380711222197,230.6850016540641,501.99334710679403,222.2974730028504,174.45067906897933,449.0622425217647,66.55878637831432,117.10972091904803,389.17796557323334,41.82952288108421,159.97283250457494,650.4797887723934,53.58893653206041,0,,,0.0,0.0,0.0,0.0,0.0,0.0,0.0,0.0,0.0,0.0,0.0,0.0,1.0,0,,,0.0,0.0,0.0,0.0,0.0,0.0,0.0,0.0,0.0,0.0,0.0,0.0,1.0,0,,,0.0,0.0,0.0,0.0,0.0,0.0,0.0,0.0,0.0,0.0,0.0,0.0,1.0,0,,,0.0,0.0,0.0,0.0,0.0,0.0,0.0,0.0,0.0,0.0,0.0,0.0,1.0,0,,,0.0,0.0,0.0,0.0,0.0,0.0,0.0,0.0,0.0,0.0,0.0,0.0,1.0,0,,,0.0,0.0,0.0,0.0,0.0,0.0,0.0,0.0,0.0,0.0,0.0,0.0,1.0,0,,,0.0,0.0,0.0,0.0,0.0,0.0,0.0,0.0,0.0,0.0,0.0,0.0,1.0,0,,,0,0,0,0,0,0,0,0,0,0,0,0,0,0,0,0,0,0,0,,,0,0,0,0,0,0,0,0,0,0,0,0,0,0,0,0,0,0
1777532507.764365,114571,1777532489.5286515,,,0,0,,,0,0,0,0,0,0,0.0,0.0,0.0,0.0,0.0,0.0,0.0,0.0,0.0,0.0,0.0,0.0,0.0,0.0,0.0,0.0,0.0,0.0,0.0,0.0,0.0,0.0,0.0,0.0,0.0,0.0,0.0,61.8654057472157,636.8847882318297,861.7000028781816,151.2461867094586,634.9508667799277,860.6481901805661,107.86991620984469,408.3189441646691,920.7943085110425,190.49375098364885,426.81634852737966,917.1700333579442,-73.71545184249926,541.2836359916196,721.874168963481,-62.133684739168885,615.1930586814436,436.6482546353188,-77.47266241103351,460.71552875912334,256.10857906030685,-49.46056540615082,386.3775631365705,133.680076970125,21.102959228194234,328.1363376561327,122.33940590719614,-63.80867048393866,578.3064651608719,63.41421908191027,277.7065770266641,557.7352002486152,691.8476032984242,236.58499377447754,550.1651199382968,397.1480793468401,230.5592456370622,498.2562900381158,222.16816310609408,174.75901183442673,445.1862465031621,66.72881751253713,116.93716708074874,385.47460466249703,41.914398649001484,159.7709857823255,646.7222169261706,53.58879368899862,0,,,0.0,0.0,0.0,0.0,0.0,0.0,0.0,0.0,0.0,0.0,0.0,0.0,1.0,0,,,0.0,0.0,0.0,0.0,0.0,0.0,0.0,0.0,0.0,0.0,0.0,0.0,1.0,0,,,0.0,0.0,0.0,0.0,0.0,0.0,0.0,0.0,0.0,0.0,0.0,0.0,1.0,0,,,0.0,0.0,0.0,0.0,0.0,0.0,0.0,0.0,0.0,0.0,0.0,0.0,1.0,0,,,0.0,0.0,0.0,0.0,0.0,0.0,0.0,0.0,0.0,0.0,0.0,0.0,1.0,0,,,0.0,0.0,0.0,0.0,0.0,0.0,0.0,0.0,0.0,0.0,0.0,0.0,1.0,0,,,0.0,0.0,0.0,0.0,0.0,0.0,0.0,0.0,0.0,0.0,0.0,0.0,1.0,0,,,0,0,0,0,0,0,0,0,0,0,0,0,0,0,0,0,0,0,0,,,0,0,0,0,0,0,0,0,0,0,0,0,0,0,0,0,0,0
1777532507.764365,114572,1777532489.5388393,,,0,0,,,0,0,0,0,0,0,0.0,0.0,0.0,0.0,0.0,0.0,0.0,0.0,0.0,0.0,0.0,0.0,0.0,0.0,0.0,0.0,0.0,0.0,0.0,0.0,0.0,0.0,0.0,0.0,0.0,0.0,0.0,61.8654057472157,636.8847882318297,861.7000028781816,151.37597157573921,633.7854522176215,860.443204481918,107.96275940848926,407.2539800009161,921.070566749744,190.60920140406256,425.6579703449562,917.2812751858571,-73.99394118379057,541.148366411425,722.5306472152844,-62.01011608309691,617.8533379734869,437.92554738870103,-77.93858187827774,469.4873570734512,252.60970860966637,-50.28912496337426,399.38597509679204,127.6206721756512,20.173689237635013,341.2185094304143,114.56581176643927,-64.18750163886806,593.2996586127963,63.120405749409926,277.7506722850601,555.7368151879389,691.6618376978811,236.71944220044017,546.673614024694,397.0050314150098,230.6170514334915,494.6681079724623,222.16152374351438,174.7093026408736,441.49955854812583,66.74268527745436,116.72636253347586,381.64030710746,41.87179216544079,159.586272908053,642.9307301520209,53.56379996327052,0,,,0.0,0.0,0.0,0.0,0.0,0.0,0.0,0.0,0.0,0.0,0.0,0.0,1.0,0,,,0.0,0.0,0.0,0.0,0.0,0.0,0.0,0.0,0.0,0.0,0.0,0.0,1.0,0,,,0.0,0.0,0.0,0.0,0.0,0.0,0.0,0.0,0.0,0.0,0.0,0.0,1.0,0,,,0.0,0.0,0.0,0.0,0.0,0.0,0.0,0.0,0.0,0.0,0.0,0.0,1.0,0,,,0.0,0.0,0.0,0.0,0.0,0.0,0.0,0.0,0.0,0.0,0.0,0.0,1.0,0,,,0.0,0.0,0.0,0.0,0.0,0.0,0.0,0.0,0.0,0.0,0.0,0.0,1.0,0,,,0.0,0.0,0.0,0.0,0.0,0.0,0.0,0.0,0.0,0.0,0.0,0.0,1.0,0,,,0,0,0,0,0,0,0,0,0,0,0,0,0,0,0,0,0,0,0,,,0,0,0,0,0,0,0,0,0,0,0,0,0,0,0,0,0,0
1777532507.764365,114573,1777532489.5484078,,,0,0,,,0,0,0,0,0,0,0.0,0.0,0.0,0.0,0.0,0.0,0.0,0.0,0.0,0.0,0.0,0.0,0.0,0.0,0.0,0.0,0.0,0.0,0.0,0.0,0.0,0.0,0.0,0.0,0.0,0.0,0.0,61.8654057472157,636.8847882318297,861.7000028781816,151.5118986235933,632.6022913734402,860.2231273148878,107.80188557304481,406.21895391659865,921.1981535919149,190.61927216678995,424.4909016591823,917.3758610462986,-74.25316407100769,540.9491903703085,723.1502850449958,-61.97904777332542,620.4059895118638,439.1240564849848,-78.5270286293301,478.31421646908757,249.1745947346844,-51.14858465882164,412.6163791969214,121.75177445963467,19.171694816553515,354.67045810493204,106.95086329801175,-64.58783930957067,608.3063227148391,62.964795720208485,277.76975900252773,553.7146067453072,691.522517118765,236.85456548516862,543.2299741297508,396.8914475118908,230.50975542167808,490.92358138941466,222.05985859322513,174.50992308497473,437.6373295020405,66.75879440915702,116.52704786359274,377.99765610377557,41.90334709875635,159.5004818840202,639.1677314314876,53.59046576481452,0,,,0.0,0.0,0.0,0.0,0.0,0.0,0.0,0.0,0.0,0.0,0.0,0.0,1.0,0,,,0.0,0.0,0.0,0.0,0.0,0.0,0.0,0.0,0.0,0.0,0.0,0.0,1.0,0,,,0.0,0.0,0.0,0.0,0.0,0.0,0.0,0.0,0.0,0.0,0.0,0.0,1.0,0,,,0.0,0.0,0.0,0.0,0.0,0.0,0.0,0.0,0.0,0.0,0.0,0.0,1.0,0,,,0.0,0.0,0.0,0.0,0.0,0.0,0.0,0.0,0.0,0.0,0.0,0.0,1.0,0,,,0.0,0.0,0.0,0.0,0.0,0.0,0.0,0.0,0.0,0.0,0.0,0.0,1.0,0,,,0.0,0.0,0.0,0.0,0.0,0.0,0.0,0.0,0.0,0.0,0.0,0.0,1.0,0,,,0,0,0,0,0,0,0,0,0,0,0,0,0,0,0,0,0,0,0,,,0,0,0,0,0,0,0,0,0,0,0,0,0,0,0,0,0,0
1777532507.764365,114574,1777532489.5579205,,,0,0,,,0,0,0,0,0,0,0.0,0.0,0.0,0.0,0.0,0.0,0.0,0.0,0.0,0.0,0.0,0.0,0.0,0.0,0.0,0.0,0.0,0.0,0.0,0.0,0.0,0.0,0.0,0.0,0.0,0.0,0.0,61.8654057472157,636.8847882318297,861.7000028781816,151.64796955325997,631.3947775900235,860.0068409877107,107.8382634666321,405.1258693070879,921.323575875634,190.5542664760198,423.4211021603989,917.4405568491285,-74.65817681762324,540.7273270169673,723.7408080744644,-62.14325209596743,622.9924425447444,440.3390531982125,-79.16188212920937,487.4242970989254,245.79559007981817,-51.94612769533268,425.91568521659946,116.08305599994112,18.324231551151914,368.1823446943318,100.09466068896351,-64.96395386454726,623.4858201452834,63.15395170511573,277.7543517744855,551.6934474235856,691.3407451623104,236.94738060871887,539.8523112426445,396.79603271616475,230.52146376849825,487.36453403016947,222.0715296781728,173.96298254794644,433.855901944407,66.53251548694898,116.52409775447673,374.2966425366631,41.87097065501839,159.29747779590906,635.4363010430933,53.63961651324444,0,,,0.0,0.0,0.0,0.0,0.0,0.0,0.0,0.0,0.0,0.0,0.0,0.0,1.0,0,,,0.0,0.0,0.0,0.0,0.0,0.0,0.0,0.0,0.0,0.0,0.0,0.0,1.0,0,,,0.0,0.0,0.0,0.0,0.0,0.0,0.0,0.0,0.0,0.0,0.0,0.0,1.0,0,,,0.0,0.0,0.0,0.0,0.0,0.0,0.0,0.0,0.0,0.0,0.0,0.0,1.0,0,,,0.0,0.0,0.0,0.0,0.0,0.0,0.0,0.0,0.0,0.0,0.0,0.0,1.0,0,,,0.0,0.0,0.0,0.0,0.0,0.0,0.0,0.0,0.0,0.0,0.0,0.0,1.0,0,,,0.0,0.0,0.0,0.0,0.0,0.0,0.0,0.0,0.0,0.0,0.0,0.0,1.0,0,,,0,0,0,0,0,0,0,0,0,0,0,0,0,0,0,0,0,0,0,,,0,0,0,0,0,0,0,0,0,0,0,0,0,0,0,0,0,0
1777532507.764365,114575,1777532489.568079,,,0,0,,,0,0,0,0,0,0,0.0,0.0,0.0,0.0,0.0,0.0,0.0,0.0,0.0,0.0,0.0,0.0,0.0,0.0,0.0,0.0,0.0,0.0,0.0,0.0,0.0,0.0,0.0,0.0,0.0,0.0,0.0,61.8654057472157,636.8847882318297,861.7000028781816,151.76435930869687,630.197819903144,859.773186823505,107.68360803625116,404.04989880212,921.3811666272345,190.4858609914857,422.23277626045297,917.4574159115979,-75.10233498609591,540.5723553787441,724.245052255723,-62.240570879891216,625.367708017452,441.43628264067905,-79.78310359461412,496.4889184371177,242.57456172276474,-52.69731309918775,439.3866370729925,110.81225471240403,17.486543080646292,382.12893265913635,93.15314452593243,-65.25684736549262,638.4681577523755,63.82094396712803,277.7404284836384,549.640780993354,691.1256881969309,237.00561659413884,536.5454606752273,396.6334598876181,230.3647858669223,483.6845109543405,221.9718035648748,173.6193683882064,430.08113575822574,66.34939142509972,116.3431420000668,370.6293233077506,41.82968642446456,159.13177283945762,631.6730367240274,53.607230012437604,0,,,0.0,0.0,0.0,0.0,0.0,0.0,0.0,0.0,0.0,0.0,0.0,0.0,1.0,0,,,0.0,0.0,0.0,0.0,0.0,0.0,0.0,0.0,0.0,0.0,0.0,0.0,1.0,0,,,0.0,0.0,0.0,0.0,0.0,0.0,0.0,0.0,0.0,0.0,0.0,0.0,1.0,0,,,0.0,0.0,0.0,0.0,0.0,0.0,0.0,0.0,0.0,0.0,0.0,0.0,1.0,0,,,0.0,0.0,0.0,0.0,0.0,0.0,0.0,0.0,0.0,0.0,0.0,0.0,1.0,0,,,0.0,0.0,0.0,0.0,0.0,0.0,0.0,0.0,0.0,0.0,0.0,0.0,1.0,0,,,0.0,0.0,0.0,0.0,0.0,0.0,0.0,0.0,0.0,0.0,0.0,0.0,1.0,0,,,0,0,0,0,0,0,0,0,0,0,0,0,0,0,0,0,0,0,0,,,0,0,0,0,0,0,0,0,0,0,0,0,0,0,0,0,0,0
1777532507.764365,114576,1777532489.5824974,1777532489.5824974,,0,0,0.9992122650146484,,1,0,2,0,0,0,0.0,0.0,0.0,0.0,0.0,0.0,0.0,0.0,0.0,0.0,0.0,0.0,0.0,0.0,0.0,0.0,0.0,0.0,0.0,0.0,0.0,0.0,0.0,0.0,0.0,0.0,0.0,61.8654057472157,636.8847882318297,861.7000028781816,151.88755616386874,628.9922485425132,859.5587451122007,107.43106916121353,402.9900109134543,921.4114014201516,190.112847775658,421.06789102048367,917.5287197245337,-75.45979534582766,540.338066835591,724.6997929155863,-62.402795235518596,627.7745491626331,442.4426428109134,-80.48941099635337,505.8937004744263,239.57757027444285,-53.574362081619924,453.09267216110084,105.89706243121003,16.432160751607455,396.2650197296255,86.46171207013674,-65.44595330415677,653.4165929686126,64.82294467927248,277.71154382713496,547.6212029381504,690.941827333614,236.9987486319181,533.2571988572118,396.49397082829324,230.33358100207982,480.1416430009733,221.96250596574964,173.8882841826027,426.208980515932,66.7283497105607,116.29749990907357,366.75991664830286,41.99572393578446,158.91643662325447,627.8121452708931,53.639703621572764,0,,,0.0,0.0,0.0,0.0,0.0,0.0,0.0,0.0,0.0,0.0,0.0,0.0,1.0,0,,,0.0,0.0,0.0,0.0,0.0,0.0,0.0,0.0,0.0,0.0,0.0,0.0,1.0,0,,,0.0,0.0,0.0,0.0,0.0,0.0,0.0,0.0,0.0,0.0,0.0,0.0,1.0,0,,,0.0,0.0,0.0,0.0,0.0,0.0,0.0,0.0,0.0,0.0,0.0,0.0,1.0,0,,,0.0,0.0,0.0,0.0,0.0,0.0,0.0,0.0,0.0,0.0,0.0,0.0,1.0,1,1777532489.5814981,0.9992122650146484,3.1343,-8.5319,3.6989,0.0,-0.2441,0.3662,-66.6046,-18.6438,-134.61,-0.0841,-0.5521,-0.7266,0.4003,1,1777532489.5824974,0.0,0.9905,1.6604,9.8479,1.4648,-1.0986,0.1221,11.1346,-5.4163,77.0251,0.0465,-0.0971,0.6155,0.7808,0,,,0,0,0,0,0,0,0,0,0,0,0,0,0,0,0,0,0,0,0,,,0,0,0,0,0,0,0,0,0,0,0,0,0,0,0,0,0,0
1777532507.7658834,114577,1777532489.5882404,1777532489.5824974,,0,0,6.742238998413086,,1,0,2,0,0,0,0.0,0.0,0.0,0.0,0.0,0.0,0.0,0.0,0.0,0.0,0.0,0.0,0.0,0.0,0.0,0.0,0.0,0.0,0.0,0.0,0.0,0.0,0.0,0.0,0.0,0.0,0.0,61.8654057472157,636.8847882318297,861.7000028781816,152.00298472370912,627.776757782912,859.3185454451142,107.09896784413664,401.9729548892796,921.4396668422418,189.9432748158318,419.81620343189087,917.4824687834096,-75.77973228893323,540.0356801765831,725.0362135596195,-62.526475433756076,630.1454464350081,443.3679653028729,-81.4140302350262,515.1777312140962,236.8298359532557,-54.280677270208706,466.5538849245371,101.46590244215828,15.632152030154868,410.3318560536273,80.4269602995955,-65.58223772646011,668.2448487794999,66.18981972830683,277.65581670275304,545.6280558808296,690.7761102206922,236.93741883792163,529.978626414011,396.35521131527196,230.13102560044263,476.46266618379826,221.890526873271,173.37079787058184,422.3485401783771,66.5062545513111,116.1100178139515,363.1160031530322,41.86779876438142,158.7573952962345,624.0273483186108,53.631644370317154,0,,,0.0,0.0,0.0,0.0,0.0,0.0,0.0,0.0,0.0,0.0,0.0,0.0,1.0,0,,,0.0,0.0,0.0,0.0,0.0,0.0,0.0,0.0,0.0,0.0,0.0,0.0,1.0,0,,,0.0,0.0,0.0,0.0,0.0,0.0,0.0,0.0,0.0,0.0,0.0,0.0,1.0,0,,,0.0,0.0,0.0,0.0,0.0,0.0,0.0,0.0,0.0,0.0,0.0,0.0,1.0,0,,,0.0,0.0,0.0,0.0,0.0,0.0,0.0,0.0,0.0,0.0,0.0,0.0,1.0,1,1777532489.5814981,6.742238998413086,3.1343,-8.5319,3.6989,0.0,-0.2441,0.3662,-66.6046,-18.6438,-134.61,-0.0841,-0.5521,-0.7266,0.4003,1,1777532489.5824974,5.7430267333984375,0.9905,1.6604,9.8479,1.4648,-1.0986,0.1221,11.1346,-5.4163,77.0251,0.0465,-0.0971,0.6155,0.7808,0,,,0,0,0,0,0,0,0,0,0,0,0,0,0,0,0,0,0,0,0,,,0,0,0,0,0,0,0,0,0,0,0,0,0,0,0,0,0,0
1777532507.7658834,114578,1777532489.598272,1777532489.5824974,,0,0,16.77393913269043,,1,0,2,0,0,0,0.0,0.0,0.0,0.0,0.0,0.0,0.0,0.0,0.0,0.0,0.0,0.0,0.0,0.0,0.0,0.0,0.0,0.0,0.0,0.0,0.0,0.0,0.0,0.0,0.0,0.0,0.0,61.8654057472157,636.8847882318297,861.7000028781816,152.12254429403885,626.580511641605,859.0760013937221,106.89600979103581,400.88535780786856,921.4014534454027,189.65783608759983,418.58779658875375,917.4951425368746,-76.14880806053635,539.8904047738226,725.3633177047532,-62.68119779682928,632.6108192805352,444.2703544248197,-82.02257037844394,524.5279064693482,234.19255590730023,-55.050978732057175,480.1459959498385,97.65839931922258,15.01512249903529,424.7372078076575,74.86036954805708,-65.31507002794879,682.8951709520978,67.67917246584618,277.50984812932575,543.6536165957536,690.5480894307073,236.88513930717485,526.7378277471464,396.20486100822853,230.06950177493965,472.9234368839357,221.9089676771028,173.169165922018,418.59757318801945,66.49561864860759,116.03007563174705,359.08788993243104,41.951250281702876,158.6584712472216,620.1567244209143,53.66554481897556,0,,,0.0,0.0,0.0,0.0,0.0,0.0,0.0,0.0,0.0,0.0,0.0,0.0,1.0,0,,,0.0,0.0,0.0,0.0,0.0,0.0,0.0,0.0,0.0,0.0,0.0,0.0,1.0,0,,,0.0,0.0,0.0,0.0,0.0,0.0,0.0,0.0,0.0,0.0,0.0,0.0,1.0,0,,,0.0,0.0,0.0,0.0,0.0,0.0,0.0,0.0,0.0,0.0,0.0,0.0,1.0,0,,,0.0,0.0,0.0,0.0,0.0,0.0,0.0,0.0,0.0,0.0,0.0,0.0,1.0,1,1777532489.5814981,16.77393913269043,3.1343,-8.5319,3.6989,0.0,-0.2441,0.3662,-66.6046,-18.6438,-134.61,-0.0841,-0.5521,-0.7266,0.4003,1,1777532489.5824974,15.774726867675781,0.9905,1.6604,9.8479,1.4648,-1.0986,0.1221,11.1346,-5.4163,77.0251,0.0465,-0.0971,0.6155,0.7808,0,,,0,0,0,0,0,0,0,0,0,0,0,0,0,0,0,0,0,0,0,,,0,0,0,0,0,0,0,0,0,0,0,0,0,0,0,0,0,0
1777532507.7658834,114579,1777532489.6084375,,,0,0,,,0,0,0,0,0,0,0.0,0.0,0.0,0.0,0.0,0.0,0.0,0.0,0.0,0.0,0.0,0.0,0.0,0.0,0.0,0.0,0.0,0.0,0.0,0.0,0.0,0.0,0.0,0.0,0.0,0.0,0.0,61.8654057472157,636.8847882318297,861.7000028781816,152.2278637542434,625.3718884606867,858.8208023795743,106.37956100976217,399.90702207386255,921.3021588436296,189.36480600271497,417.35141513485104,917.4155700960516,-76.5894325787426,539.6586186345577,725.5695290814516,-62.85257973828781,635.029515807556,445.17638009003366,-82.4526167276006,534.1077637451519,231.83299337243315,-55.698329309784526,493.7928096315966,93.95965095377427,14.04284364482719,438.6336559445201,70.02708841969933,-64.78949945691203,697.1750480770088,69.17327523266954,277.39626494423396,541.7235494936214,690.3162472728403,236.82811032753648,523.4959737602765,396.041404462591,229.9444980948055,469.33076764980365,221.88175343843977,173.0462858462892,414.67702244461094,66.61437772413291,115.77822332787674,355.32069243975945,41.946163852364755,158.5121058519187,616.3282601144782,53.731495406885756,0,,,0.0,0.0,0.0,0.0,0.0,0.0,0.0,0.0,0.0,0.0,0.0,0.0,1.0,0,,,0.0,0.0,0.0,0.0,0.0,0.0,0.0,0.0,0.0,0.0,0.0,0.0,1.0,0,,,0.0,0.0,0.0,0.0,0.0,0.0,0.0,0.0,0.0,0.0,0.0,0.0,1.0,0,,,0.0,0.0,0.0,0.0,0.0,0.0,0.0,0.0,0.0,0.0,0.0,0.0,1.0,0,,,0.0,0.0,0.0,0.0,0.0,0.0,0.0,0.0,0.0,0.0,0.0,0.0,1.0,0,,,0.0,0.0,0.0,0.0,0.0,0.0,0.0,0.0,0.0,0.0,0.0,0.0,1.0,0,,,0.0,0.0,0.0,0.0,0.0,0.0,0.0,0.0,0.0,0.0,0.0,0.0,1.0,0,,,0,0,0,0,0,0,0,0,0,0,0,0,0,0,0,0,0,0,0,,,0,0,0,0,0,0,0,0,0,0,0,0,0,0,0,0,0,0
1777532507.766891,114580,1777532489.6193495,,,0,0,,,0,0,0,0,0,0,0.0,0.0,0.0,0.0,0.0,0.0,0.0,0.0,0.0,0.0,0.0,0.0,0.0,0.0,0.0,0.0,0.0,0.0,0.0,0.0,0.0,0.0,0.0,0.0,0.0,0.0,0.0,61.8654057472157,636.8847882318297,861.7000028781816,152.30357971606884,624.2224737251971,858.5315376007269,105.81610346558163,399.01164252660783,921.3255716683759,188.85425458103035,416.24117375379495,917.4248204020139,-77.11429880195435,539.3611484325686,725.7529850262989,-63.111050794466514,637.3379014920712,446.07070478221675,-83.26676409269122,543.7415596128424,229.8665483285163,-56.37562406783692,507.30008631890865,90.91278470388691,13.273376928533313,452.31050076787506,65.80354903730864,-64.10830065527132,711.3177698640162,70.84113632752675,277.2361726863884,539.8546569436776,690.1421623186395,236.73997710795723,520.2739607995497,395.906929487246,229.7964377810651,465.6756565616311,221.84011438251414,172.40432059788253,411.3188305204145,66.64640228385656,115.47749324699691,351.36704514760095,42.006630084827094,158.36074260172964,612.3634084698891,53.708327500547774,0,,,0.0,0.0,0.0,0.0,0.0,0.0,0.0,0.0,0.0,0.0,0.0,0.0,1.0,0,,,0.0,0.0,0.0,0.0,0.0,0.0,0.0,0.0,0.0,0.0,0.0,0.0,1.0,0,,,0.0,0.0,0.0,0.0,0.0,0.0,0.0,0.0,0.0,0.0,0.0,0.0,1.0,0,,,0.0,0.0,0.0,0.0,0.0,0.0,0.0,0.0,0.0,0.0,0.0,0.0,1.0,0,,,0.0,0.0,0.0,0.0,0.0,0.0,0.0,0.0,0.0,0.0,0.0,0.0,1.0,0,,,0.0,0.0,0.0,0.0,0.0,0.0,0.0,0.0,0.0,0.0,0.0,0.0,1.0,0,,,0.0,0.0,0.0,0.0,0.0,0.0,0.0,0.0,0.0,0.0,0.0,0.0,1.0,0,,,0,0,0,0,0,0,0,0,0,0,0,0,0,0,0,0,0,0,0,,,0,0,0,0,0,0,0,0,0,0,0,0,0,0,0,0,0,0
1777532507.766891,114581,1777532489.628457,,,0,0,,,0,0,0,0,0,0,0.0,0.0,0.0,0.0,0.0,0.0,0.0,0.0,0.0,0.0,0.0,0.0,0.0,0.0,0.0,0.0,0.0,0.0,0.0,0.0,0.0,0.0,0.0,0.0,0.0,0.0,0.0,61.8654057472157,636.8847882318297,861.7000028781816,152.34701943733097,623.0686906927025,858.2032540279725,105.50588963904531,398.0268345445301,921.2366219922328,188.4841687272464,415.04026713047085,917.3201729768682,-77.5787309339016,539.0695038172771,725.9140963682032,-63.23207329537907,639.5083320267368,446.96787464846585,-83.90536602575757,553.0282840458646,228.10459434671407,-57.10754598046189,520.5489415708591,88.20248219812922,12.114940713690778,465.64105864894265,61.996072127942284,-63.16627745616828,725.106825893932,72.40952698222314,276.98548229815503,537.9585977901107,689.8821693719646,236.68289355554057,517.098281264003,395.785045603928,229.6526601425412,462.0839850565135,221.8011421555044,172.57589906017358,407.1718011864856,66.67380166608802,115.41642598953435,347.61794467217436,42.100942409270274,158.16686673243322,608.3975782609773,53.70535110959004,0,,,0.0,0.0,0.0,0.0,0.0,0.0,0.0,0.0,0.0,0.0,0.0,0.0,1.0,0,,,0.0,0.0,0.0,0.0,0.0,0.0,0.0,0.0,0.0,0.0,0.0,0.0,1.0,0,,,0.0,0.0,0.0,0.0,0.0,0.0,0.0,0.0,0.0,0.0,0.0,0.0,1.0,0,,,0.0,0.0,0.0,0.0,0.0,0.0,0.0,0.0,0.0,0.0,0.0,0.0,1.0,0,,,0.0,0.0,0.0,0.0,0.0,0.0,0.0,0.0,0.0,0.0,0.0,0.0,1.0,0,,,0.0,0.0,0.0,0.0,0.0,0.0,0.0,0.0,0.0,0.0,0.0,0.0,1.0,0,,,0.0,0.0,0.0,0.0,0.0,0.0,0.0,0.0,0.0,0.0,0.0,0.0,1.0,0,,,0,0,0,0,0,0,0,0,0,0,0,0,0,0,0,0,0,0,0,,,0,0,0,0,0,0,0,0,0,0,0,0,0,0,0,0,0,0
