Timestamp,Vicon_Frame_Num,Vicon_Recv_Timestamp,IMU_Recv_Timestamp,Planter_Recv_Timestamp,Vicon_Gap_Flag,Vicon_Gap_Size,IMU_Stale_ms,Planter_Stale_ms,IMU_Matched_Flag,Planter_Matched_Flag,Vicon_LASI_X,Vicon_LASI_Y,Vicon_LASI_Z,Vicon_RASI_X,Vicon_RASI_Y,Vicon_RASI_Z,Vicon_LPSI_X,Vicon_LPSI_Y,Vicon_LPSI_Z,Vicon_RPSI_X,Vicon_RPSI_Y,Vicon_RPSI_Z,Vicon_LTHI_X,Vicon_LTHI_Y,Vicon_LTHI_Z,Vicon_LKNE_X,Vicon_LKNE_Y,Vicon_LKNE_Z,Vicon_LTIB_X,Vicon_LTIB_Y,Vicon_LTIB_Z,Vicon_LANK_X,Vicon_LANK_Y,Vicon_LANK_Z,Vicon_LHEE_X,Vicon_LHEE_Y,Vicon_LHEE_Z,Vicon_LTOE_X,Vicon_LTOE_Y,Vicon_LTOE_Z,Vicon_RTHI_X,Vicon_RTHI_Y,Vicon_RTHI_Z,Vicon_RKNE_X,Vicon_RKNE_Y,Vicon_RKNE_Z,Vicon_RTIB_X,Vicon_RTIB_Y,Vicon_RTIB_Z,Vicon_RANK_X,Vicon_RANK_Y,Vicon_RANK_Z,Vicon_RHEE_X,Vicon_RHEE_Y,Vicon_RHEE_Z,Vicon_RTOE_X,Vicon_RTOE_Y,Vicon_RTOE_Z,IMU_Trunk_Acc_X,IMU_Trunk_Acc_Y,IMU_Trunk_Acc_Z,IMU_Trunk_Gyro_X,IMU_Trunk_Gyro_Y,IMU_Trunk_Gyro_Z,IMU_Trunk_Roll,IMU_Trunk_Pitch,IMU_Trunk_Yaw,IMU_Trunk_Quat_x,IMU_Trunk_Quat_y,IMU_Trunk_Quat_z,IMU_Trunk_Quat_w,IMU_L_Femur_Acc_X,IMU_L_Femur_Acc_Y,IMU_L_Femur_Acc_Z,IMU_L_Femur_Gyro_X,IMU_L_Femur_Gyro_Y,IMU_L_Femur_Gyro_Z,IMU_L_Femur_Roll,IMU_L_Femur_Pitch,IMU_L_Femur_Yaw,IMU_L_Femur_Quat_x,IMU_L_Femur_Quat_y,IMU_L_Femur_Quat_z,IMU_L_Femur_Quat_w,IMU_L_Tibia_Acc_X,IMU_L_Tibia_Acc_Y,IMU_L_Tibia_Acc_Z,IMU_L_Tibia_Gyro_X,IMU_L_Tibia_Gyro_Y,IMU_L_Tibia_Gyro_Z,IMU_L_Tibia_Roll,IMU_L_Tibia_Pitch,IMU_L_Tibia_Yaw,IMU_L_Tibia_Quat_x,IMU_L_Tibia_Quat_y,IMU_L_Tibia_Quat_z,IMU_L_Tibia_Quat_w,IMU_L_Foot_Acc_X,IMU_L_Foot_Acc_Y,IMU_L_Foot_Acc_Z,IMU_L_Foot_Gyro_X,IMU_L_Foot_Gyro_Y,IMU_L_Foot_Gyro_Z,IMU_L_Foot_Roll,IMU_L_Foot_Pitch,IMU_L_Foot_Yaw,IMU_L_Foot_Quat_x,IMU_L_Foot_Quat_y,IMU_L_Foot_Quat_z,IMU_L_Foot_Quat_w,IMU_R_Femur_Acc_X,IMU_R_Femur_Acc_Y,IMU_R_Femur_Acc_Z,IMU_R_Femur_Gyro_X,IMU_R_Femur_Gyro_Y,IMU_R_Femur_Gyro_Z,IMU_R_Femur_Roll,IMU_R_Femur_Pitch,IMU_R_Femur_Yaw,IMU_R_Femur_Quat_x,IMU_R_Femur_Quat_y,IMU_R_Femur_Quat_z,IMU_R_Femur_Quat_w,IMU_R_Tibia_Acc_X,IMU_R_Tibia_Acc_Y,IMU_R_Tibia_Acc_Z,IMU_R_Tibia_Gyro_X,IMU_R_Tibia_Gyro_Y,IMU_R_Tibia_Gyro_Z,IMU_R_Tibia_Roll,IMU_R_Tibia_Pitch,IMU_R_Tibia_Yaw,IMU_R_Tibia_Quat_x,IMU_R_Tibia_Quat_y,IMU_R_Tibia_Quat_z,IMU_R_Tibia_Quat_w,IMU_R_Foot_Acc_X,IMU_R_Foot_Acc_Y,IMU_R_Foot_Acc_Z,IMU_R_Foot_Gyro_X,IMU_R_Foot_Gyro_Y,IMU_R_Foot_Gyro_Z,IMU_R_Foot_Roll,IMU_R_Foot_Pitch,IMU_R_Foot_Yaw,IMU_R_Foot_Quat_x,IMU_R_Foot_Quat_y,IMU_R_Foot_Quat_z,IMU_R_Foot_Quat_w,Planter_Left_0,Planter_Left_1,Planter_Left_2,Planter_Left_3,Planter_Left_4,Planter_Left_5,Planter_Left_6,Planter_Left_7,Planter_Left_8,Planter_Left_9,Planter_Left_10,Planter_Left_11,Planter_Left_12,Planter_Left_13,Planter_Left_14,Planter_Left_15,Planter_Left_16,Planter_Left_17,Planter_Right_0,Planter_Right_1,Planter_Right_2,Planter_Right_3,Planter_Right_4,Planter_Right_5,Planter_Right_6,Planter_Right_7,Planter_Right_8,Planter_Right_9,Planter_Right_10,Planter_Right_11,Planter_Right_12,Planter_Right_13,Planter_Right_14,Planter_Right_15,Planter_Right_16,Planter_Right_17
1777353601.9990363,122,1777353584.14065,,,0,0,,,0,0,0.0,0.0,0.0,0.0,0.0,0.0,0.0,0.0,0.0,0.0,0.0,0.0,0.0,0.0,0.0,0.0,0.0,0.0,0.0,0.0,0.0,0.0,0.0,0.0,0.0,0.0,0.0,0.0,0.0,0.0,0.0,0.0,0.0,0.0,0.0,0.0,0.0,0.0,0.0,0.0,0.0,0.0,0.0,0.0,0.0,0.0,0.0,0.0,0.0,0.0,0.0,0.0,0.0,0.0,0.0,0.0,0.0,0.0,0.0,0.0,0.0,0.0,0.0,0.0,0.0,0.0,0.0,0.0,0.0,0.0,0.0,0.0,0.0,0.0,0.0,0.0,0.0,0.0,0.0,0.0,0.0,0.0,0.0,0.0,0.0,0.0,0.0,1.0,0.0,0.0,0.0,0.0,0.0,0.0,0.0,0.0,0.0,0.0,0.0,0.0,1.0,0.0,0.0,0.0,0.0,0.0,0.0,0.0,0.0,0.0,0.0,0.0,0.0,1.0,0.0,0.0,0.0,0.0,0.0,0.0,0.0,0.0,0.0,0.0,0.0,0.0,1.0,0.0,0.0,0.0,0.0,0.0,0.0,0.0,0.0,0.0,0.0,0.0,0.0,1.0,0.0,0.0,0.0,0.0,0.0,0.0,0.0,0.0,0.0,0.0,0.0,0.0,1.0,0.0,0.0,0.0,0.0,0.0,0.0,0.0,0.0,0.0,0.0,0.0,0.0,1.0,0,0,0,0,0,0,0,0,0,0,0,0,0,0,0,0,0,0,0,0,0,0,0,0,0,0,0,0,0,0,0,0,0,0,0,0
1777353601.9990363,123,1777353584.1448655,,,0,0,,,0,0,0.0,0.0,0.0,0.0,0.0,0.0,0.0,0.0,0.0,0.0,0.0,0.0,0.0,0.0,0.0,0.0,0.0,0.0,0.0,0.0,0.0,0.0,0.0,0.0,0.0,0.0,0.0,750.7326049804688,602.0465087890625,1123.381591796875,999.92333984375,635.5299072265625,1125.655029296875,799.8226318359375,423.1705627441406,1149.46435546875,961.1773071289062,425.7740783691406,1154.0091552734375,680.1190185546875,569.4202270507812,875.8501586914062,693.2669677734375,665.4779052734375,637.4556884765625,688.1817626953125,549.0331420898438,518.1536865234375,712.5985717773438,447.51922607421875,346.1316223144531,804.10009765625,343.8985900878906,313.93084716796875,681.2645874023438,557.4185791015625,203.1421661376953,1054.736572265625,583.1151733398438,801.4299926757812,998.2969360351562,545.6349487304688,568.9889526367188,1006.9374389648438,526.5192260742188,433.0624084472656,954.9866333007812,495.9825744628906,224.5353546142578,887.7055053710938,418.2420654296875,166.60548400878906,937.2376708984375,680.1837768554688,177.19248962402344,0.0,0.0,0.0,0.0,0.0,0.0,0.0,0.0,0.0,0.0,0.0,0.0,1.0,0.0,0.0,0.0,0.0,0.0,0.0,0.0,0.0,0.0,0.0,0.0,0.0,1.0,0.0,0.0,0.0,0.0,0.0,0.0,0.0,0.0,0.0,0.0,0.0,0.0,1.0,0.0,0.0,0.0,0.0,0.0,0.0,0.0,0.0,0.0,0.0,0.0,0.0,1.0,0.0,0.0,0.0,0.0,0.0,0.0,0.0,0.0,0.0,0.0,0.0,0.0,1.0,0.0,0.0,0.0,0.0,0.0,0.0,0.0,0.0,0.0,0.0,0.0,0.0,1.0,0.0,0.0,0.0,0.0,0.0,0.0,0.0,0.0,0.0,0.0,0.0,0.0,1.0,0,0,0,0,0,0,0,0,0,0,0,0,0,0,0,0,0,0,0,0,0,0,0,0,0,0,0,0,0,0,0,0,0,0,0,0
1777353601.9990363,124,1777353584.1588671,,,0,0,,,0,0,0.0,0.0,0.0,0.0,0.0,0.0,0.0,0.0,0.0,0.0,0.0,0.0,0.0,0.0,0.0,0.0,0.0,0.0,0.0,0.0,0.0,0.0,0.0,0.0,0.0,0.0,0.0,751.6363525390625,600.9732666015625,1124.02685546875,1000.8937377929688,634.1060791015625,1125.6912841796875,800.4561157226562,421.9654235839844,1150.32568359375,961.8098754882812,424.5146179199219,1154.564697265625,681.2907104492188,567.6981811523438,876.9029541015625,694.1215209960938,667.3352661132812,639.0455322265625,688.8297119140625,554.764892578125,514.8742065429688,712.9949951171875,460.1236877441406,338.9763488769531,803.73046875,357.84747314453125,301.5335693359375,681.0092163085938,576.6216430664062,201.42176818847656,1055.0264892578125,579.8667602539062,801.1897583007812,998.529052734375,540.4757690429688,569.0702514648438,1007.0850830078125,520.3736572265625,433.2459716796875,955.0408325195312,488.56170654296875,224.87820434570312,887.9164428710938,410.6844787597656,166.8716583251953,937.4236450195312,672.5853881835938,177.17160034179688,0.0,0.0,0.0,0.0,0.0,0.0,0.0,0.0,0.0,0.0,0.0,0.0,1.0,0.0,0.0,0.0,0.0,0.0,0.0,0.0,0.0,0.0,0.0,0.0,0.0,1.0,0.0,0.0,0.0,0.0,0.0,0.0,0.0,0.0,0.0,0.0,0.0,0.0,1.0,0.0,0.0,0.0,0.0,0.0,0.0,0.0,0.0,0.0,0.0,0.0,0.0,1.0,0.0,0.0,0.0,0.0,0.0,0.0,0.0,0.0,0.0,0.0,0.0,0.0,1.0,0.0,0.0,0.0,0.0,0.0,0.0,0.0,0.0,0.0,0.0,0.0,0.0,1.0,0.0,0.0,0.0,0.0,0.0,0.0,0.0,0.0,0.0,0.0,0.0,0.0,1.0,0,0,0,0,0,0,0,0,0,0,0,0,0,0,0,0,0,0,0,0,0,0,0,0,0,0,0,0,0,0,0,0,0,0,0,0
1777353601.9990363,125,1777353584.1685617,,,0,0,,,0,0,0.0,0.0,0.0,0.0,0.0,0.0,0.0,0.0,0.0,0.0,0.0,0.0,0.0,0.0,0.0,0.0,0.0,0.0,0.0,0.0,0.0,0.0,0.0,0.0,0.0,0.0,0.0,752.4549560546875,599.9257202148438,1124.56298828125,1001.7786865234375,632.710693359375,1125.64599609375,800.994384765625,420.8021240234375,1151.1094970703125,962.3407592773438,423.2796936035156,1155.0579833984375,682.4700927734375,565.6964721679688,877.6956787109375,695.0728149414062,668.6448974609375,640.2631225585938,689.39892578125,560.4224853515625,511.0672302246094,713.1737060546875,473.27374267578125,331.3432312011719,803.0868530273438,372.6243896484375,288.5310974121094,680.6837158203125,596.3222045898438,199.55528259277344,1055.25146484375,576.60888671875,800.921875,998.7395629882812,535.2908325195312,569.1236572265625,1007.2107543945312,514.2064208984375,433.40130615234375,955.080810546875,481.1337890625,225.200439453125,888.1200561523438,403.1255187988281,167.10968017578125,937.6098022460938,664.9747924804688,177.14198303222656,0.0,0.0,0.0,0.0,0.0,0.0,0.0,0.0,0.0,0.0,0.0,0.0,1.0,0.0,0.0,0.0,0.0,0.0,0.0,0.0,0.0,0.0,0.0,0.0,0.0,1.0,0.0,0.0,0.0,0.0,0.0,0.0,0.0,0.0,0.0,0.0,0.0,0.0,1.0,0.0,0.0,0.0,0.0,0.0,0.0,0.0,0.0,0.0,0.0,0.0,0.0,1.0,0.0,0.0,0.0,0.0,0.0,0.0,0.0,0.0,0.0,0.0,0.0,0.0,1.0,0.0,0.0,0.0,0.0,0.0,0.0,0.0,0.0,0.0,0.0,0.0,0.0,1.0,0.0,0.0,0.0,0.0,0.0,0.0,0.0,0.0,0.0,0.0,0.0,0.0,1.0,0,0,0,0,0,0,0,0,0,0,0,0,0,0,0,0,0,0,0,0,0,0,0,0,0,0,0,0,0,0,0,0,0,0,0,0
1777353601.9990363,126,1777353584.182112,,,0,0,,,0,0,0.0,0.0,0.0,0.0,0.0,0.0,0.0,0.0,0.0,0.0,0.0,0.0,0.0,0.0,0.0,0.0,0.0,0.0,0.0,0.0,0.0,0.0,0.0,0.0,0.0,0.0,0.0,753.1875,598.90869140625,1124.9779052734375,1002.5751342773438,631.3543090820312,1125.5135498046875,801.4390869140625,419.6877136230469,1151.805419921875,962.7717895507812,422.0779113769531,1155.483154296875,683.61865234375,563.4727783203125,878.23046875,696.1044311523438,669.4055786132812,641.0958251953125,689.89404296875,566.0193481445312,506.7983093261719,713.16357421875,486.96368408203125,323.38262939453125,802.3005981445312,388.2542419433594,275.1551818847656,680.2474365234375,616.41015625,197.64703369140625,1055.41650390625,573.3462524414062,800.6232299804688,998.9343872070312,530.0806884765625,569.146484375,1007.3194580078125,508.0209655761719,433.5253601074219,955.1093139648438,473.69921875,225.50112915039062,888.31298828125,395.56201171875,167.31666564941406,937.7979125976562,657.3517456054688,177.1077423095703,0.0,0.0,0.0,0.0,0.0,0.0,0.0,0.0,0.0,0.0,0.0,0.0,1.0,0.0,0.0,0.0,0.0,0.0,0.0,0.0,0.0,0.0,0.0,0.0,0.0,1.0,0.0,0.0,0.0,0.0,0.0,0.0,0.0,0.0,0.0,0.0,0.0,0.0,1.0,0.0,0.0,0.0,0.0,0.0,0.0,0.0,0.0,0.0,0.0,0.0,0.0,1.0,0.0,0.0,0.0,0.0,0.0,0.0,0.0,0.0,0.0,0.0,0.0,0.0,1.0,0.0,0.0,0.0,0.0,0.0,0.0,0.0,0.0,0.0,0.0,0.0,0.0,1.0,0.0,0.0,0.0,0.0,0.0,0.0,0.0,0.0,0.0,0.0,0.0,0.0,1.0,0,0,0,0,0,0,0,0,0,0,0,0,0,0,0,0,0,0,0,0,0,0,0,0,0,0,0,0,0,0,0,0,0,0,0,0
1777353601.9990363,127,1777353584.1932452,,,0,0,,,0,0,0.0,0.0,0.0,0.0,0.0,0.0,0.0,0.0,0.0,0.0,0.0,0.0,0.0,0.0,0.0,0.0,0.0,0.0,0.0,0.0,0.0,0.0,0.0,0.0,0.0,0.0,0.0,753.834228515625,597.92822265625,1125.2615966796875,1003.2820434570312,630.0457153320312,1125.2904052734375,801.7913208007812,418.6291198730469,1152.4034423828125,963.1044921875,420.9168701171875,1155.8350830078125,684.6975708007812,561.0859375,878.5134887695312,697.197265625,669.6233520507812,641.5391235351562,690.3173828125,571.5682983398438,502.1422119140625,712.9969482421875,501.17523193359375,315.2514343261719,801.4917602539062,404.7344055175781,261.6664733886719,679.6817626953125,636.7687377929688,195.80142211914062,1055.527587890625,570.0839233398438,800.2919921875,999.1187744140625,524.8475952148438,569.1380004882812,1007.4166259765625,501.8221740722656,433.6175842285156,955.1301879882812,466.2588806152344,225.7810821533203,888.4935913085938,387.9912109375,167.49281311035156,937.9909057617188,649.7174682617188,177.07411193847656,0.0,0.0,0.0,0.0,0.0,0.0,0.0,0.0,0.0,0.0,0.0,0.0,1.0,0.0,0.0,0.0,0.0,0.0,0.0,0.0,0.0,0.0,0.0,0.0,0.0,1.0,0.0,0.0,0.0,0.0,0.0,0.0,0.0,0.0,0.0,0.0,0.0,0.0,1.0,0.0,0.0,0.0,0.0,0.0,0.0,0.0,0.0,0.0,0.0,0.0,0.0,1.0,0.0,0.0,0.0,0.0,0.0,0.0,0.0,0.0,0.0,0.0,0.0,0.0,1.0,0.0,0.0,0.0,0.0,0.0,0.0,0.0,0.0,0.0,0.0,0.0,0.0,1.0,0.0,0.0,0.0,0.0,0.0,0.0,0.0,0.0,0.0,0.0,0.0,0.0,1.0,0,0,0,0,0,0,0,0,0,0,0,0,0,0,0,0,0,0,0,0,0,0,0,0,0,0,0,0,0,0,0,0,0,0,0,0
1777353601.9990363,128,1777353584.1942437,,,0,0,,,0,0,0.0,0.0,0.0,0.0,0.0,0.0,0.0,0.0,0.0,0.0,0.0,0.0,0.0,0.0,0.0,0.0,0.0,0.0,0.0,0.0,0.0,0.0,0.0,0.0,0.0,0.0,0.0,754.3964233398438,596.9913940429688,1125.4066162109375,1003.8999633789062,628.79150390625,1124.974609375,802.0516357421875,417.63323974609375,1152.8953857421875,963.3402099609375,419.80316162109375,1156.1087646484375,685.6705322265625,558.5928955078125,878.5540771484375,698.3308715820312,669.3135375976562,641.5968017578125,690.6693115234375,577.079345703125,497.1828918457031,712.7077026367188,515.8733520507812,307.1098327636719,800.7516479492188,422.0257568359375,248.3282470703125,679.0014038085938,657.2841796875,194.13075256347656,1055.5911865234375,566.8271484375,799.927734375,999.2973022460938,519.5955200195312,569.0994873046875,1007.5078735351562,495.6160583496094,433.6795349121094,955.14794921875,458.81427001953125,226.04270935058594,888.66259765625,380.4113464355469,167.64183044433594,938.1925048828125,642.074462890625,177.0462188720703,0.0,0.0,0.0,0.0,0.0,0.0,0.0,0.0,0.0,0.0,0.0,0.0,1.0,0.0,0.0,0.0,0.0,0.0,0.0,0.0,0.0,0.0,0.0,0.0,0.0,1.0,0.0,0.0,0.0,0.0,0.0,0.0,0.0,0.0,0.0,0.0,0.0,0.0,1.0,0.0,0.0,0.0,0.0,0.0,0.0,0.0,0.0,0.0,0.0,0.0,0.0,1.0,0.0,0.0,0.0,0.0,0.0,0.0,0.0,0.0,0.0,0.0,0.0,0.0,1.0,0.0,0.0,0.0,0.0,0.0,0.0,0.0,0.0,0.0,0.0,0.0,0.0,1.0,0.0,0.0,0.0,0.0,0.0,0.0,0.0,0.0,0.0,0.0,0.0,0.0,1.0,0,0,0,0,0,0,0,0,0,0,0,0,0,0,0,0,0,0,0,0,0,0,0,0,0,0,0,0,0,0,0,0,0,0,0,0
1777353601.9990363,129,1777353584.20704,,,0,0,,,0,0,0.0,0.0,0.0,0.0,0.0,0.0,0.0,0.0,0.0,0.0,0.0,0.0,0.0,0.0,0.0,0.0,0.0,0.0,0.0,0.0,0.0,0.0,0.0,0.0,0.0,0.0,0.0,754.8758544921875,596.1062622070312,1125.408203125,1004.4307250976562,627.5966186523438,1124.5662841796875,802.2201538085938,416.7066345214844,1153.2740478515625,963.4801635742188,418.7424011230469,1156.299560546875,686.5065307617188,556.0458374023438,878.36328125,699.4850463867188,668.5018920898438,641.2811279296875,690.9498291015625,582.5582885742188,492.0125427246094,712.3304443359375,531.002197265625,299.1170654296875,800.1309814453125,440.0467529296875,235.38232421875,678.261474609375,677.8515014648438,192.759521484375,1055.6143798828125,563.5814208984375,799.5310668945312,999.4736328125,514.330322265625,569.03369140625,1007.5982666015625,489.40960693359375,433.7147216796875,955.1674194335938,451.3674621582031,226.2897491455078,888.8229370117188,372.8215637207031,167.77047729492188,938.406005859375,634.4260864257812,177.02783203125,0.0,0.0,0.0,0.0,0.0,0.0,0.0,0.0,0.0,0.0,0.0,0.0,1.0,0.0,0.0,0.0,0.0,0.0,0.0,0.0,0.0,0.0,0.0,0.0,0.0,1.0,0.0,0.0,0.0,0.0,0.0,0.0,0.0,0.0,0.0,0.0,0.0,0.0,1.0,0.0,0.0,0.0,0.0,0.0,0.0,0.0,0.0,0.0,0.0,0.0,0.0,1.0,0.0,0.0,0.0,0.0,0.0,0.0,0.0,0.0,0.0,0.0,0.0,0.0,1.0,0.0,0.0,0.0,0.0,0.0,0.0,0.0,0.0,0.0,0.0,0.0,0.0,1.0,0.0,0.0,0.0,0.0,0.0,0.0,0.0,0.0,0.0,0.0,0.0,0.0,1.0,0,0,0,0,0,0,0,0,0,0,0,0,0,0,0,0,0,0,0,0,0,0,0,0,0,0,0,0,0,0,0,0,0,0,0,0
1777353601.9990363,130,1777353584.217291,,,0,0,,,0,0,0.0,0.0,0.0,0.0,0.0,0.0,0.0,0.0,0.0,0.0,0.0,0.0,0.0,0.0,0.0,0.0,0.0,0.0,0.0,0.0,0.0,0.0,0.0,0.0,0.0,0.0,0.0,755.2752075195312,595.281494140625,1125.2647705078125,1004.8773803710938,626.4646606445312,1124.06787109375,802.2965698242188,415.8557434082031,1153.5340576171875,963.5252075195312,417.7393493652344,1156.404052734375,687.1819458007812,553.4907836914062,877.9534912109375,700.6412963867188,667.2256469726562,640.6124877929688,691.15966796875,588.0049438476562,486.72967529296875,711.898681640625,546.4812622070312,291.4264831542969,799.634765625,458.6709899902344,223.03155517578125,677.5590209960938,698.3753662109375,191.82322692871094,1055.60400390625,560.3526000976562,799.1035766601562,999.64990234375,509.05975341796875,568.9442749023438,1007.6917724609375,483.2104187011719,433.7278747558594,955.1928100585938,443.9209899902344,226.5269317626953,888.97900390625,365.2222900390625,167.88760375976562,938.6331176757812,626.7760620117188,177.0203857421875,0.0,0.0,0.0,0.0,0.0,0.0,0.0,0.0,0.0,0.0,0.0,0.0,1.0,0.0,0.0,0.0,0.0,0.0,0.0,0.0,0.0,0.0,0.0,0.0,0.0,1.0,0.0,0.0,0.0,0.0,0.0,0.0,0.0,0.0,0.0,0.0,0.0,0.0,1.0,0.0,0.0,0.0,0.0,0.0,0.0,0.0,0.0,0.0,0.0,0.0,0.0,1.0,0.0,0.0,0.0,0.0,0.0,0.0,0.0,0.0,0.0,0.0,0.0,0.0,1.0,0.0,0.0,0.0,0.0,0.0,0.0,0.0,0.0,0.0,0.0,0.0,0.0,1.0,0.0,0.0,0.0,0.0,0.0,0.0,0.0,0.0,0.0,0.0,0.0,0.0,1.0,0,0,0,0,0,0,0,0,0,0,0,0,0,0,0,0,0,0,0,0,0,0,0,0,0,0,0,0,0,0,0,0,0,0,0,0
1777353601.9990363,131,1777353584.2314146,,,0,0,,,0,0,0.0,0.0,0.0,0.0,0.0,0.0,0.0,0.0,0.0,0.0,0.0,0.0,0.0,0.0,0.0,0.0,0.0,0.0,0.0,0.0,0.0,0.0,0.0,0.0,0.0,0.0,0.0,755.5972900390625,594.5263061523438,1124.9775390625,1005.2437133789062,625.3976440429688,1123.4832763671875,802.2804565429688,415.086669921875,1153.671630859375,963.4763793945312,416.7980651855469,1156.4193115234375,687.6817016601562,550.9679565429688,877.3377075195312,701.784423828125,665.533447265625,639.6185913085938,691.3011474609375,593.412109375,481.4361877441406,711.4439086914062,562.2020263671875,284.1792297363281,799.22705078125,477.7281799316406,211.43124389648438,677.0277099609375,718.76318359375,191.4602813720703,1055.5662841796875,557.1470947265625,798.6472778320312,999.82666015625,503.79278564453125,568.835693359375,1007.7909545898438,477.0263977050781,433.7246398925781,955.2273559570312,436.4776306152344,226.75967407226562,889.1355590820312,357.6148986816406,168.0027313232422,938.8733520507812,619.1279907226562,177.02243041992188,0.0,0.0,0.0,0.0,0.0,0.0,0.0,0.0,0.0,0.0,0.0,0.0,1.0,0.0,0.0,0.0,0.0,0.0,0.0,0.0,0.0,0.0,0.0,0.0,0.0,1.0,0.0,0.0,0.0,0.0,0.0,0.0,0.0,0.0,0.0,0.0,0.0,0.0,1.0,0.0,0.0,0.0,0.0,0.0,0.0,0.0,0.0,0.0,0.0,0.0,0.0,1.0,0.0,0.0,0.0,0.0,0.0,0.0,0.0,0.0,0.0,0.0,0.0,0.0,1.0,0.0,0.0,0.0,0.0,0.0,0.0,0.0,0.0,0.0,0.0,0.0,0.0,1.0,0.0,0.0,0.0,0.0,0.0,0.0,0.0,0.0,0.0,0.0,0.0,0.0,1.0,0,0,0,0,0,0,0,0,0,0,0,0,0,0,0,0,0,0,0,0,0,0,0,0,0,0,0,0,0,0,0,0,0,0,0,0
1777353601.9990363,132,1777353584.2460642,,,0,0,,,0,0,0.0,0.0,0.0,0.0,0.0,0.0,0.0,0.0,0.0,0.0,0.0,0.0,0.0,0.0,0.0,0.0,0.0,0.0,0.0,0.0,0.0,0.0,0.0,0.0,0.0,0.0,0.0,755.8453369140625,593.85009765625,1124.550537109375,1005.5338134765625,624.39697265625,1122.8187255859375,802.1712646484375,414.4051513671875,1153.6846923828125,963.33447265625,415.92193603515625,1156.3433837890625,687.9998779296875,548.5125122070312,876.5299682617188,702.9032592773438,663.4852905273438,638.3331298828125,691.3787231445312,598.764404296875,476.23321533203125,710.99462890625,578.026611328125,277.497802734375,798.8422241210938,497.0073547363281,200.69024658203125,676.8251953125,738.9138793945312,191.7976837158203,1055.5062255859375,553.971923828125,798.1647338867188,1000.002685546875,498.53985595703125,568.7125854492188,1007.8963623046875,470.8655090332031,433.7111511230469,955.2730102539062,429.0404052734375,226.9937286376953,889.296875,350.0018310546875,168.12481689453125,939.1238403320312,611.4851684570312,177.02981567382812,0.0,0.0,0.0,0.0,0.0,0.0,0.0,0.0,0.0,0.0,0.0,0.0,1.0,0.0,0.0,0.0,0.0,0.0,0.0,0.0,0.0,0.0,0.0,0.0,0.0,1.0,0.0,0.0,0.0,0.0,0.0,0.0,0.0,0.0,0.0,0.0,0.0,0.0,1.0,0.0,0.0,0.0,0.0,0.0,0.0,0.0,0.0,0.0,0.0,0.0,0.0,1.0,0.0,0.0,0.0,0.0,0.0,0.0,0.0,0.0,0.0,0.0,0.0,0.0,1.0,0.0,0.0,0.0,0.0,0.0,0.0,0.0,0.0,0.0,0.0,0.0,0.0,1.0,0.0,0.0,0.0,0.0,0.0,0.0,0.0,0.0,0.0,0.0,0.0,0.0,1.0,0,0,0,0,0,0,0,0,0,0,0,0,0,0,0,0,0,0,0,0,0,0,0,0,0,0,0,0,0,0,0,0,0,0,0,0
1777353601.9990363,133,1777353584.246415,,,0,0,,,0,0,0.0,0.0,0.0,0.0,0.0,0.0,0.0,0.0,0.0,0.0,0.0,0.0,0.0,0.0,0.0,0.0,0.0,0.0,0.0,0.0,0.0,0.0,0.0,0.0,0.0,0.0,0.0,756.0226440429688,593.26220703125,1123.9908447265625,1005.7520141601562,623.4634399414062,1122.0816650390625,801.9685668945312,413.8164978027344,1153.5731201171875,963.1004638671875,415.11383056640625,1156.175537109375,688.1390991210938,546.15673828125,875.545654296875,703.9913940429688,661.1506958007812,636.7945556640625,691.399658203125,604.0372924804688,471.2162780761719,710.5770263671875,593.787841796875,271.47918701171875,798.3993530273438,516.2598876953125,190.88124084472656,677.1157836914062,758.7047729492188,192.93240356445312,1055.427001953125,550.8348388671875,797.6583862304688,1000.174560546875,493.3124084472656,568.5795288085938,1008.006591796875,464.73565673828125,433.6936950683594,955.330078125,421.61224365234375,227.2349853515625,889.4662475585938,342.38568115234375,168.2613983154297,939.3795166015625,603.8504638671875,177.03662109375,0.0,0.0,0.0,0.0,0.0,0.0,0.0,0.0,0.0,0.0,0.0,0.0,1.0,0.0,0.0,0.0,0.0,0.0,0.0,0.0,0.0,0.0,0.0,0.0,0.0,1.0,0.0,0.0,0.0,0.0,0.0,0.0,0.0,0.0,0.0,0.0,0.0,0.0,1.0,0.0,0.0,0.0,0.0,0.0,0.0,0.0,0.0,0.0,0.0,0.0,0.0,1.0,0.0,0.0,0.0,0.0,0.0,0.0,0.0,0.0,0.0,0.0,0.0,0.0,1.0,0.0,0.0,0.0,0.0,0.0,0.0,0.0,0.0,0.0,0.0,0.0,0.0,1.0,0.0,0.0,0.0,0.0,0.0,0.0,0.0,0.0,0.0,0.0,0.0,0.0,1.0,0,0,0,0,0,0,0,0,0,0,0,0,0,0,0,0,0,0,0,0,0,0,0,0,0,0,0,0,0,0,0,0,0,0,0,0
1777353601.9990363,134,1777353584.2566206,,,0,0,,,0,0,0.0,0.0,0.0,0.0,0.0,0.0,0.0,0.0,0.0,0.0,0.0,0.0,0.0,0.0,0.0,0.0,0.0,0.0,0.0,0.0,0.0,0.0,0.0,0.0,0.0,0.0,0.0,756.1322631835938,592.7716064453125,1123.3077392578125,1005.902587890625,622.5974731445312,1121.2808837890625,801.6719970703125,413.3255920410156,1153.3389892578125,962.7752685546875,414.3763732910156,1155.916015625,688.1102294921875,543.9315185546875,874.4019165039062,705.0473022460938,658.60693359375,635.0445556640625,691.3753051757812,609.1963500976562,466.46990966796875,710.2160034179688,609.2927856445312,266.1893310546875,797.816650390625,535.20458984375,182.05372619628906,678.0496826171875,777.9812622070312,194.91275024414062,1055.329345703125,547.7446899414062,797.1304931640625,1000.3368530273438,488.1228332519531,568.4409790039062,1008.1181030273438,458.6449279785156,433.67864990234375,955.3975830078125,414.1962585449219,227.48944091796875,889.645751953125,334.7690124511719,168.41778564453125,939.634521484375,596.2257690429688,177.0367889404297,0.0,0.0,0.0,0.0,0.0,0.0,0.0,0.0,0.0,0.0,0.0,0.0,1.0,0.0,0.0,0.0,0.0,0.0,0.0,0.0,0.0,0.0,0.0,0.0,0.0,1.0,0.0,0.0,0.0,0.0,0.0,0.0,0.0,0.0,0.0,0.0,0.0,0.0,1.0,0.0,0.0,0.0,0.0,0.0,0.0,0.0,0.0,0.0,0.0,0.0,0.0,1.0,0.0,0.0,0.0,0.0,0.0,0.0,0.0,0.0,0.0,0.0,0.0,0.0,1.0,0.0,0.0,0.0,0.0,0.0,0.0,0.0,0.0,0.0,0.0,0.0,0.0,1.0,0.0,0.0,0.0,0.0,0.0,0.0,0.0,0.0,0.0,0.0,0.0,0.0,1.0,0,0,0,0,0,0,0,0,0,0,0,0,0,0,0,0,0,0,0,0,0,0,0,0,0,0,0,0,0,0,0,0,0,0,0,0
1777353601.9990363,135,1777353584.2686203,,,0,0,,,0,0,0.0,0.0,0.0,0.0,0.0,0.0,0.0,0.0,0.0,0.0,0.0,0.0,0.0,0.0,0.0,0.0,0.0,0.0,0.0,0.0,0.0,0.0,0.0,0.0,0.0,0.0,0.0,756.1773071289062,592.3867797851562,1122.5130615234375,1005.9892578125,621.7996826171875,1120.426025390625,801.2815551757812,412.9367980957031,1152.9862060546875,962.3599853515625,413.7120361328125,1155.56640625,687.9313354492188,541.8681030273438,873.117919921875,706.07373046875,655.9361572265625,633.1260986328125,691.3230590820312,614.1971435546875,462.0625305175781,709.9363403320312,624.3282470703125,261.65887451171875,797.0279541015625,553.5370483398438,174.24261474609375,679.7438354492188,796.55322265625,197.723388671875,1055.2117919921875,544.7111206054688,796.5828857421875,1000.4821166992188,482.9844055175781,568.301025390625,1008.2254638671875,452.6016845703125,433.67230224609375,955.4729614257812,406.7954406738281,227.76307678222656,889.8361206054688,327.1539001464844,168.5966339111328,939.8828735351562,588.6116943359375,177.0255126953125,0.0,0.0,0.0,0.0,0.0,0.0,0.0,0.0,0.0,0.0,0.0,0.0,1.0,0.0,0.0,0.0,0.0,0.0,0.0,0.0,0.0,0.0,0.0,0.0,0.0,1.0,0.0,0.0,0.0,0.0,0.0,0.0,0.0,0.0,0.0,0.0,0.0,0.0,1.0,0.0,0.0,0.0,0.0,0.0,0.0,0.0,0.0,0.0,0.0,0.0,0.0,1.0,0.0,0.0,0.0,0.0,0.0,0.0,0.0,0.0,0.0,0.0,0.0,0.0,1.0,0.0,0.0,0.0,0.0,0.0,0.0,0.0,0.0,0.0,0.0,0.0,0.0,1.0,0.0,0.0,0.0,0.0,0.0,0.0,0.0,0.0,0.0,0.0,0.0,0.0,1.0,0,0,0,0,0,0,0,0,0,0,0,0,0,0,0,0,0,0,0,0,0,0,0,0,0,0,0,0,0,0,0,0,0,0,0,0
1777353601.9990363,136,1777353584.2804601,,,0,0,,,0,0,0.0,0.0,0.0,0.0,0.0,0.0,0.0,0.0,0.0,0.0,0.0,0.0,0.0,0.0,0.0,0.0,0.0,0.0,0.0,0.0,0.0,0.0,0.0,0.0,0.0,0.0,0.0,756.1602172851562,592.1156616210938,1121.62060546875,1006.0154418945312,621.0708618164062,1119.527587890625,800.7975463867188,412.65399169921875,1152.5208740234375,961.8555908203125,413.1231994628906,1155.1297607421875,687.6264038085938,539.99853515625,871.7151489257812,707.0770263671875,653.2223510742188,631.0827026367188,691.2672119140625,618.986083984375,458.04248046875,709.7640380859375,638.6686401367188,257.8815002441406,795.9949340820312,570.9407958984375,167.47108459472656,682.266845703125,814.1983642578125,201.2752685546875,1055.0699462890625,541.7447509765625,796.0170288085938,1000.6011352539062,477.9112854003906,568.1633911132812,1008.3214721679688,446.6148986816406,433.6806945800781,955.552734375,399.41278076171875,228.06195068359375,890.0371704101562,319.54193115234375,168.7977752685547,940.1192016601562,581.008056640625,176.99996948242188,0.0,0.0,0.0,0.0,0.0,0.0,0.0,0.0,0.0,0.0,0.0,0.0,1.0,0.0,0.0,0.0,0.0,0.0,0.0,0.0,0.0,0.0,0.0,0.0,0.0,1.0,0.0,0.0,0.0,0.0,0.0,0.0,0.0,0.0,0.0,0.0,0.0,0.0,1.0,0.0,0.0,0.0,0.0,0.0,0.0,0.0,0.0,0.0,0.0,0.0,0.0,1.0,0.0,0.0,0.0,0.0,0.0,0.0,0.0,0.0,0.0,0.0,0.0,0.0,1.0,0.0,0.0,0.0,0.0,0.0,0.0,0.0,0.0,0.0,0.0,0.0,0.0,1.0,0.0,0.0,0.0,0.0,0.0,0.0,0.0,0.0,0.0,0.0,0.0,0.0,1.0,0,0,0,0,0,0,0,0,0,0,0,0,0,0,0,0,0,0,0,0,0,0,0,0,0,0,0,0,0,0,0,0,0,0,0,0
1777353601.9990363,137,1777353584.2927115,,,0,0,,,0,0,0.0,0.0,0.0,0.0,0.0,0.0,0.0,0.0,0.0,0.0,0.0,0.0,0.0,0.0,0.0,0.0,0.0,0.0,0.0,0.0,0.0,0.0,0.0,0.0,0.0,0.0,0.0,756.0830688476562,591.965087890625,1120.64599609375,1005.9837036132812,620.4124145507812,1118.5968017578125,800.2205200195312,412.48046875,1151.950927734375,961.2634887695312,412.6122131347656,1154.610107421875,687.2239379882812,538.3560180664062,870.2171630859375,708.06591796875,650.5479125976562,628.9566650390625,691.23876953125,623.5020751953125,454.4355163574219,709.7262573242188,652.0853881835938,254.81451416015625,794.71484375,587.0978393554688,161.74862670898438,685.6314697265625,830.6714477539062,205.40090942382812,1054.8974609375,538.8572998046875,795.4339599609375,1000.6830444335938,472.9183654785156,568.031494140625,1008.3975830078125,440.6940002441406,433.70965576171875,955.6321411132812,392.0512390136719,228.39212036132812,890.247802734375,311.9340515136719,169.0184326171875,940.33935546875,573.4136962890625,176.95962524414062,0.0,0.0,0.0,0.0,0.0,0.0,0.0,0.0,0.0,0.0,0.0,0.0,1.0,0.0,0.0,0.0,0.0,0.0,0.0,0.0,0.0,0.0,0.0,0.0,0.0,1.0,0.0,0.0,0.0,0.0,0.0,0.0,0.0,0.0,0.0,0.0,0.0,0.0,1.0,0.0,0.0,0.0,0.0,0.0,0.0,0.0,0.0,0.0,0.0,0.0,0.0,1.0,0.0,0.0,0.0,0.0,0.0,0.0,0.0,0.0,0.0,0.0,0.0,0.0,1.0,0.0,0.0,0.0,0.0,0.0,0.0,0.0,0.0,0.0,0.0,0.0,0.0,1.0,0.0,0.0,0.0,0.0,0.0,0.0,0.0,0.0,0.0,0.0,0.0,0.0,1.0,0,0,0,0,0,0,0,0,0,0,0,0,0,0,0,0,0,0,0,0,0,0,0,0,0,0,0,0,0,0,0,0,0,0,0,0
1777353601.9990363,138,1777353584.2937114,,,0,0,,,0,0,0.0,0.0,0.0,0.0,0.0,0.0,0.0,0.0,0.0,0.0,0.0,0.0,0.0,0.0,0.0,0.0,0.0,0.0,0.0,0.0,0.0,0.0,0.0,0.0,0.0,0.0,0.0,755.9473266601562,591.941162109375,1119.6060791015625,1005.89599609375,619.8262939453125,1117.6451416015625,799.5516357421875,412.41900634765625,1151.2864990234375,960.5848999023438,412.1814270019531,1154.0130615234375,686.755126953125,536.973876953125,868.6495971679688,709.0497436523438,647.990966796875,626.7882690429688,691.2733154296875,627.6792602539062,451.2444763183594,709.850830078125,664.3574829101562,252.3825225830078,793.2222900390625,601.6995849609375,157.06491088867188,689.7942504882812,845.7184448242188,209.85687255859375,1054.6856689453125,536.061279296875,794.83447265625,1000.7160034179688,468.021240234375,567.9083251953125,1008.444091796875,434.84869384765625,433.764892578125,955.7056884765625,384.7134094238281,228.75978088378906,890.46630859375,304.3305969238281,169.2535858154297,940.5418701171875,565.8270263671875,176.9063720703125,0.0,0.0,0.0,0.0,0.0,0.0,0.0,0.0,0.0,0.0,0.0,0.0,1.0,0.0,0.0,0.0,0.0,0.0,0.0,0.0,0.0,0.0,0.0,0.0,0.0,1.0,0.0,0.0,0.0,0.0,0.0,0.0,0.0,0.0,0.0,0.0,0.0,0.0,1.0,0.0,0.0,0.0,0.0,0.0,0.0,0.0,0.0,0.0,0.0,0.0,0.0,1.0,0.0,0.0,0.0,0.0,0.0,0.0,0.0,0.0,0.0,0.0,0.0,0.0,1.0,0.0,0.0,0.0,0.0,0.0,0.0,0.0,0.0,0.0,0.0,0.0,0.0,1.0,0.0,0.0,0.0,0.0,0.0,0.0,0.0,0.0,0.0,0.0,0.0,0.0,1.0,0,0,0,0,0,0,0,0,0,0,0,0,0,0,0,0,0,0,0,0,0,0,0,0,0,0,0,0,0,0,0,0,0,0,0,0
1777353601.9990363,139,1777353584.305134,,,0,0,,,0,0,0.0,0.0,0.0,0.0,0.0,0.0,0.0,0.0,0.0,0.0,0.0,0.0,0.0,0.0,0.0,0.0,0.0,0.0,0.0,0.0,0.0,0.0,0.0,0.0,0.0,0.0,0.0,755.7537841796875,592.0487060546875,1118.518798828125,1005.7534790039062,619.31494140625,1116.6842041015625,798.7922973632812,412.47174072265625,1150.5394287109375,959.8214721679688,411.8331298828125,1153.345458984375,686.2520141601562,535.8840942382812,867.0391235351562,710.0372314453125,645.621826171875,624.614990234375,691.4078369140625,631.4512939453125,448.4506530761719,710.1640625,675.282958984375,250.4835662841797,791.5863037109375,614.4578247070312,153.3819580078125,694.6611938476562,859.093505859375,214.33612060546875,1054.424560546875,533.3699951171875,794.218994140625,1000.6876220703125,463.2360534667969,567.796875,1008.45068359375,429.08868408203125,433.8519592285156,955.7669677734375,377.401611328125,229.17144775390625,890.6898803710938,296.731689453125,169.49659729003906,940.7288818359375,558.2468872070312,176.8443603515625,0.0,0.0,0.0,0.0,0.0,0.0,0.0,0.0,0.0,0.0,0.0,0.0,1.0,0.0,0.0,0.0,0.0,0.0,0.0,0.0,0.0,0.0,0.0,0.0,0.0,1.0,0.0,0.0,0.0,0.0,0.0,0.0,0.0,0.0,0.0,0.0,0.0,0.0,1.0,0.0,0.0,0.0,0.0,0.0,0.0,0.0,0.0,0.0,0.0,0.0,0.0,1.0,0.0,0.0,0.0,0.0,0.0,0.0,0.0,0.0,0.0,0.0,0.0,0.0,1.0,0.0,0.0,0.0,0.0,0.0,0.0,0.0,0.0,0.0,0.0,0.0,0.0,1.0,0.0,0.0,0.0,0.0,0.0,0.0,0.0,0.0,0.0,0.0,0.0,0.0,1.0,0,0,0,0,0,0,0,0,0,0,0,0,0,0,0,0,0,0,0,0,0,0,0,0,0,0,0,0,0,0,0,0,0,0,0,0
1777353601.9990363,140,1777353584.315223,,,0,0,,,0,0,0.0,0.0,0.0,0.0,0.0,0.0,0.0,0.0,0.0,0.0,0.0,0.0,0.0,0.0,0.0,0.0,0.0,0.0,0.0,0.0,0.0,0.0,0.0,0.0,0.0,0.0,0.0,755.5025024414062,592.2915649414062,1117.4031982421875,1005.5565795898438,618.8814086914062,1115.7259521484375,797.9442749023438,412.64013671875,1149.7230224609375,958.9747924804688,411.56939697265625,1152.615478515625,685.7454833984375,535.1157836914062,865.4132080078125,711.0350341796875,643.5009765625,622.4705200195312,691.6768798828125,634.7559204101562,446.0173034667969,710.6874389648438,684.689697265625,248.9977569580078,789.9019775390625,625.1187133789062,150.628662109375,700.0967407226562,870.5767822265625,218.49160766601562,1054.1036376953125,530.797607421875,793.5882568359375,1000.5856323242188,458.5797119140625,567.6998291015625,1008.4066162109375,423.423095703125,433.9765319824219,955.8087768554688,370.117431640625,229.63417053222656,890.9144287109375,289.1374816894531,169.74014282226562,940.9054565429688,550.6731567382812,176.77789306640625,0.0,0.0,0.0,0.0,0.0,0.0,0.0,0.0,0.0,0.0,0.0,0.0,1.0,0.0,0.0,0.0,0.0,0.0,0.0,0.0,0.0,0.0,0.0,0.0,0.0,1.0,0.0,0.0,0.0,0.0,0.0,0.0,0.0,0.0,0.0,0.0,0.0,0.0,1.0,0.0,0.0,0.0,0.0,0.0,0.0,0.0,0.0,0.0,0.0,0.0,0.0,1.0,0.0,0.0,0.0,0.0,0.0,0.0,0.0,0.0,0.0,0.0,0.0,0.0,1.0,0.0,0.0,0.0,0.0,0.0,0.0,0.0,0.0,0.0,0.0,0.0,0.0,1.0,0.0,0.0,0.0,0.0,0.0,0.0,0.0,0.0,0.0,0.0,0.0,0.0,1.0,0,0,0,0,0,0,0,0,0,0,0,0,0,0,0,0,0,0,0,0,0,0,0,0,0,0,0,0,0,0,0,0,0,0,0,0
1777353601.9990363,141,1777353584.3271856,,,0,0,,,0,0,0.0,0.0,0.0,0.0,0.0,0.0,0.0,0.0,0.0,0.0,0.0,0.0,0.0,0.0,0.0,0.0,0.0,0.0,0.0,0.0,0.0,0.0,0.0,0.0,0.0,0.0,0.0,755.1929931640625,592.6720581054688,1116.2781982421875,1005.304931640625,618.5289306640625,1114.7822265625,797.0098266601562,412.9248962402344,1148.852294921875,958.0466918945312,411.3919982910156,1151.8323974609375,685.2633056640625,534.69287109375,863.799072265625,712.04638671875,641.6768798828125,620.3846435546875,692.1079711914062,637.5406494140625,443.8948059082031,711.4329833984375,692.446533203125,247.7977294921875,788.2778930664062,633.4791259765625,148.70361328125,705.93408203125,879.9931030273438,221.96949768066406,1053.7120361328125,528.3589477539062,792.9431762695312,1000.3985595703125,454.0699157714844,567.6199951171875,1008.3012084960938,417.8604431152344,434.1445617675781,955.823486328125,362.8619079589844,230.1558380126953,891.1343994140625,281.54840087890625,169.97793579101562,941.077880859375,543.1066284179688,176.70965576171875,0.0,0.0,0.0,0.0,0.0,0.0,0.0,0.0,0.0,0.0,0.0,0.0,1.0,0.0,0.0,0.0,0.0,0.0,0.0,0.0,0.0,0.0,0.0,0.0,0.0,1.0,0.0,0.0,0.0,0.0,0.0,0.0,0.0,0.0,0.0,0.0,0.0,0.0,1.0,0.0,0.0,0.0,0.0,0.0,0.0,0.0,0.0,0.0,0.0,0.0,0.0,1.0,0.0,0.0,0.0,0.0,0.0,0.0,0.0,0.0,0.0,0.0,0.0,0.0,1.0,0.0,0.0,0.0,0.0,0.0,0.0,0.0,0.0,0.0,0.0,0.0,0.0,1.0,0.0,0.0,0.0,0.0,0.0,0.0,0.0,0.0,0.0,0.0,0.0,0.0,1.0,0,0,0,0,0,0,0,0,0,0,0,0,0,0,0,0,0,0,0,0,0,0,0,0,0,0,0,0,0,0,0,0,0,0,0,0
1777353601.9990363,142,1777353584.342731,,,0,0,,,0,0,0.0,0.0,0.0,0.0,0.0,0.0,0.0,0.0,0.0,0.0,0.0,0.0,0.0,0.0,0.0,0.0,0.0,0.0,0.0,0.0,0.0,0.0,0.0,0.0,0.0,0.0,0.0,754.8240966796875,593.1913452148438,1115.1629638671875,1004.9974365234375,618.2609252929688,1113.864990234375,795.9913330078125,413.325927734375,1147.9429931640625,957.0390625,411.3020935058594,1151.006591796875,684.8284912109375,534.6318969726562,862.2229614257812,713.0703735351562,640.1845092773438,618.3829956054688,692.7180786132812,639.7681884765625,442.0271301269531,712.3986206054688,698.4724731445312,246.76028442382812,786.8187255859375,639.4046020507812,147.48822021484375,711.9862670898438,887.228759765625,224.447509765625,1053.240234375,526.0692138671875,792.2854614257812,1000.1162719726562,449.7257080078125,567.560302734375,1008.1246337890625,412.4087829589844,434.3625793457031,955.80322265625,355.6355895996094,230.74549865722656,891.3429565429688,273.9655456542969,170.2074432373047,941.2525634765625,535.5491333007812,176.6399383544922,0.0,0.0,0.0,0.0,0.0,0.0,0.0,0.0,0.0,0.0,0.0,0.0,1.0,0.0,0.0,0.0,0.0,0.0,0.0,0.0,0.0,0.0,0.0,0.0,0.0,1.0,0.0,0.0,0.0,0.0,0.0,0.0,0.0,0.0,0.0,0.0,0.0,0.0,1.0,0.0,0.0,0.0,0.0,0.0,0.0,0.0,0.0,0.0,0.0,0.0,0.0,1.0,0.0,0.0,0.0,0.0,0.0,0.0,0.0,0.0,0.0,0.0,0.0,0.0,1.0,0.0,0.0,0.0,0.0,0.0,0.0,0.0,0.0,0.0,0.0,0.0,0.0,1.0,0.0,0.0,0.0,0.0,0.0,0.0,0.0,0.0,0.0,0.0,0.0,0.0,1.0,0,0,0,0,0,0,0,0,0,0,0,0,0,0,0,0,0,0,0,0,0,0,0,0,0,0,0,0,0,0,0,0,0,0,0,0
1777353601.9990363,143,1777353584.3527517,,,0,0,,,0,0,0.0,0.0,0.0,0.0,0.0,0.0,0.0,0.0,0.0,0.0,0.0,0.0,0.0,0.0,0.0,0.0,0.0,0.0,0.0,0.0,0.0,0.0,0.0,0.0,0.0,0.0,0.0,754.394287109375,593.848876953125,1114.0765380859375,1004.6325073242188,618.0803833007812,1112.986083984375,794.8915405273438,413.8420104980469,1147.0118408203125,955.9540405273438,411.3000793457031,1150.149658203125,684.4575805664062,534.9406127929688,860.70947265625,714.1016845703125,639.044921875,616.487060546875,693.5101318359375,641.4201049804688,440.3588562011719,713.56396484375,702.7440795898438,245.77774047851562,785.6063232421875,642.8477783203125,146.8633270263672,718.0553588867188,892.2450561523438,225.6735382080078,1052.679931640625,523.9443969726562,791.6175537109375,999.7311401367188,445.5684814453125,567.5237426757812,1007.8685302734375,407.0762023925781,434.6379089355469,955.7409057617188,348.4391174316406,231.4137725830078,891.5324096679688,266.39056396484375,170.43341064453125,941.434814453125,528.0026245117188,176.56654357910156,0.0,0.0,0.0,0.0,0.0,0.0,0.0,0.0,0.0,0.0,0.0,0.0,1.0,0.0,0.0,0.0,0.0,0.0,0.0,0.0,0.0,0.0,0.0,0.0,0.0,1.0,0.0,0.0,0.0,0.0,0.0,0.0,0.0,0.0,0.0,0.0,0.0,0.0,1.0,0.0,0.0,0.0,0.0,0.0,0.0,0.0,0.0,0.0,0.0,0.0,0.0,1.0,0.0,0.0,0.0,0.0,0.0,0.0,0.0,0.0,0.0,0.0,0.0,0.0,1.0,0.0,0.0,0.0,0.0,0.0,0.0,0.0,0.0,0.0,0.0,0.0,0.0,1.0,0.0,0.0,0.0,0.0,0.0,0.0,0.0,0.0,0.0,0.0,0.0,0.0,1.0,0,0,0,0,0,0,0,0,0,0,0,0,0,0,0,0,0,0,0,0,0,0,0,0,0,0,0,0,0,0,0,0,0,0,0,0
1777353601.9990363,144,1777353584.3537521,,,0,0,,,0,0,0.0,0.0,0.0,0.0,0.0,0.0,0.0,0.0,0.0,0.0,0.0,0.0,0.0,0.0,0.0,0.0,0.0,0.0,0.0,0.0,0.0,0.0,0.0,0.0,0.0,0.0,0.0,753.901611328125,594.6425170898438,1113.037109375,1004.2080078125,617.9896240234375,1112.1572265625,793.7135009765625,414.4710388183594,1146.0760498046875,954.793701171875,411.38531494140625,1149.2734375,684.1598510742188,535.6163330078125,859.2809448242188,715.1304931640625,638.2650756835938,614.714599609375,694.4715576171875,642.5000610351562,438.8416748046875,714.888916015625,705.2982788085938,244.7674560546875,784.6849975585938,643.8643798828125,146.72019958496094,723.9403076171875,895.0851440429688,225.49986267089844,1052.025634765625,522.0005493164062,790.9430541992188,999.2384033203125,441.622802734375,567.5133666992188,1007.5269165039062,401.8721008300781,434.9788818359375,955.6310424804688,341.27392578125,232.17327880859375,891.696044921875,258.82598876953125,170.6715850830078,941.6281127929688,520.46875,176.48545837402344,0.0,0.0,0.0,0.0,0.0,0.0,0.0,0.0,0.0,0.0,0.0,0.0,1.0,0.0,0.0,0.0,0.0,0.0,0.0,0.0,0.0,0.0,0.0,0.0,0.0,1.0,0.0,0.0,0.0,0.0,0.0,0.0,0.0,0.0,0.0,0.0,0.0,0.0,1.0,0.0,0.0,0.0,0.0,0.0,0.0,0.0,0.0,0.0,0.0,0.0,0.0,1.0,0.0,0.0,0.0,0.0,0.0,0.0,0.0,0.0,0.0,0.0,0.0,0.0,1.0,0.0,0.0,0.0,0.0,0.0,0.0,0.0,0.0,0.0,0.0,0.0,0.0,1.0,0.0,0.0,0.0,0.0,0.0,0.0,0.0,0.0,0.0,0.0,0.0,0.0,1.0,0,0,0,0,0,0,0,0,0,0,0,0,0,0,0,0,0,0,0,0,0,0,0,0,0,0,0,0,0,0,0,0,0,0,0,0
1777353601.9990363,145,1777353584.3657582,,,0,0,,,0,0,0.0,0.0,0.0,0.0,0.0,0.0,0.0,0.0,0.0,0.0,0.0,0.0,0.0,0.0,0.0,0.0,0.0,0.0,0.0,0.0,0.0,0.0,0.0,0.0,0.0,0.0,0.0,753.3440551757812,595.5682983398438,1112.06201171875,1003.7213745117188,617.9898681640625,1111.389892578125,792.4603271484375,415.20953369140625,1145.15283203125,953.5603637695312,411.555908203125,1148.390625,683.9368896484375,536.6455078125,857.9569702148438,716.1430053710938,637.8385009765625,613.080322265625,695.5732421875,643.0343627929688,437.4396057128906,716.3148803710938,706.231689453125,243.677978515625,784.0576782226562,642.623291015625,146.96310424804688,729.44580078125,895.8731689453125,223.90750122070312,1051.274658203125,520.2544555664062,790.2670288085938,998.6375122070312,437.9179382324219,567.5323486328125,1007.0975341796875,396.8088073730469,435.3950500488281,955.4708251953125,334.1433410644531,233.03915405273438,891.8294677734375,251.2757568359375,170.95156860351562,941.8336181640625,512.9478149414062,176.39207458496094,0.0,0.0,0.0,0.0,0.0,0.0,0.0,0.0,0.0,0.0,0.0,0.0,1.0,0.0,0.0,0.0,0.0,0.0,0.0,0.0,0.0,0.0,0.0,0.0,0.0,1.0,0.0,0.0,0.0,0.0,0.0,0.0,0.0,0.0,0.0,0.0,0.0,0.0,1.0,0.0,0.0,0.0,0.0,0.0,0.0,0.0,0.0,0.0,0.0,0.0,0.0,1.0,0.0,0.0,0.0,0.0,0.0,0.0,0.0,0.0,0.0,0.0,0.0,0.0,1.0,0.0,0.0,0.0,0.0,0.0,0.0,0.0,0.0,0.0,0.0,0.0,0.0,1.0,0.0,0.0,0.0,0.0,0.0,0.0,0.0,0.0,0.0,0.0,0.0,0.0,1.0,0,0,0,0,0,0,0,0,0,0,0,0,0,0,0,0,0,0,0,0,0,0,0,0,0,0,0,0,0,0,0,0,0,0,0,0
1777353601.9990363,146,1777353584.3772056,,,0,0,,,0,0,0.0,0.0,0.0,0.0,0.0,0.0,0.0,0.0,0.0,0.0,0.0,0.0,0.0,0.0,0.0,0.0,0.0,0.0,0.0,0.0,0.0,0.0,0.0,0.0,0.0,0.0,0.0,752.7196655273438,596.620361328125,1111.16748046875,1003.169921875,618.0807495117188,1110.6947021484375,791.1353149414062,416.05291748046875,1144.259033203125,952.25634765625,411.8084411621094,1147.514404296875,683.7828979492188,538.0036010742188,856.754150390625,717.1221313476562,637.7465209960938,611.5962524414062,696.7705078125,643.0708618164062,436.1318664550781,717.7698974609375,705.6937255859375,242.4910888671875,783.692138671875,639.4021606445312,147.50599670410156,734.393310546875,894.8048706054688,221.0148468017578,1050.427734375,518.7233276367188,789.5958251953125,997.9325561523438,434.4890441894531,567.5834350585938,1006.582275390625,391.9034423828125,435.8973083496094,955.2616577148438,327.0538330078125,234.02951049804688,891.9320068359375,243.74598693847656,171.31800842285156,942.0501098632812,505.4383544921875,176.28280639648438,0.0,0.0,0.0,0.0,0.0,0.0,0.0,0.0,0.0,0.0,0.0,0.0,1.0,0.0,0.0,0.0,0.0,0.0,0.0,0.0,0.0,0.0,0.0,0.0,0.0,1.0,0.0,0.0,0.0,0.0,0.0,0.0,0.0,0.0,0.0,0.0,0.0,0.0,1.0,0.0,0.0,0.0,0.0,0.0,0.0,0.0,0.0,0.0,0.0,0.0,0.0,1.0,0.0,0.0,0.0,0.0,0.0,0.0,0.0,0.0,0.0,0.0,0.0,0.0,1.0,0.0,0.0,0.0,0.0,0.0,0.0,0.0,0.0,0.0,0.0,0.0,0.0,1.0,0.0,0.0,0.0,0.0,0.0,0.0,0.0,0.0,0.0,0.0,0.0,0.0,1.0,0,0,0,0,0,0,0,0,0,0,0,0,0,0,0,0,0,0,0,0,0,0,0,0,0,0,0,0,0,0,0,0,0,0,0,0
1777353601.9990363,147,1777353584.3882902,,,0,0,,,0,0,0.0,0.0,0.0,0.0,0.0,0.0,0.0,0.0,0.0,0.0,0.0,0.0,0.0,0.0,0.0,0.0,0.0,0.0,0.0,0.0,0.0,0.0,0.0,0.0,0.0,0.0,0.0,752.0265502929688,597.7909545898438,1110.3680419921875,1002.5509643554688,618.2599487304688,1110.0821533203125,789.7420043945312,416.9952392578125,1143.41064453125,950.884033203125,412.13787841796875,1146.657470703125,683.685302734375,539.6560668945312,855.6861572265625,718.0485229492188,637.9598388671875,610.2717895507812,698.0048828125,642.6755981445312,434.9129333496094,719.1763916015625,703.8748779296875,241.2192840576172,783.5358276367188,634.5632934570312,148.26817321777344,738.6362915039062,892.1292114257812,217.0662078857422,1049.48974609375,517.4249267578125,788.9374389648438,997.133056640625,431.3782958984375,567.669189453125,1005.9887084960938,387.1800842285156,436.4980163574219,955.0100708007812,320.0168762207031,235.16580200195312,892.0079956054688,236.24557495117188,171.82974243164062,942.273681640625,497.9370422363281,176.15672302246094,0.0,0.0,0.0,0.0,0.0,0.0,0.0,0.0,0.0,0.0,0.0,0.0,1.0,0.0,0.0,0.0,0.0,0.0,0.0,0.0,0.0,0.0,0.0,0.0,0.0,1.0,0.0,0.0,0.0,0.0,0.0,0.0,0.0,0.0,0.0,0.0,0.0,0.0,1.0,0.0,0.0,0.0,0.0,0.0,0.0,0.0,0.0,0.0,0.0,0.0,0.0,1.0,0.0,0.0,0.0,0.0,0.0,0.0,0.0,0.0,0.0,0.0,0.0,0.0,1.0,0.0,0.0,0.0,0.0,0.0,0.0,0.0,0.0,0.0,0.0,0.0,0.0,1.0,0.0,0.0,0.0,0.0,0.0,0.0,0.0,0.0,0.0,0.0,0.0,0.0,1.0,0,0,0,0,0,0,0,0,0,0,0,0,0,0,0,0,0,0,0,0,0,0,0,0,0,0,0,0,0,0,0,0,0,0,0,0
1777353601.9990363,148,1777353584.4000268,,,0,0,,,0,0,0.0,0.0,0.0,0.0,0.0,0.0,0.0,0.0,0.0,0.0,0.0,0.0,0.0,0.0,0.0,0.0,0.0,0.0,0.0,0.0,0.0,0.0,0.0,0.0,0.0,0.0,0.0,751.2633666992188,599.070556640625,1109.6767578125,1001.8621826171875,618.5226440429688,1109.5615234375,788.283935546875,418.029296875,1142.6229248046875,949.4459228515625,412.5374450683594,1145.832763671875,683.626220703125,541.5595092773438,854.7636108398438,718.90185546875,638.4398193359375,609.1136474609375,699.208251953125,641.927490234375,433.7903137207031,720.4608154296875,700.9898071289062,239.89920043945312,783.5297241210938,628.5101318359375,149.1728057861328,742.07763671875,888.1234741210938,212.3990478515625,1048.4693603515625,516.3779296875,788.3010864257812,996.254638671875,428.6355285644531,567.7914428710938,1005.3302612304688,382.67132568359375,437.21087646484375,954.7285766601562,313.0504150390625,236.47305297851562,892.0670166015625,228.78643798828125,172.556640625,942.4982299804688,490.4388427734375,176.01681518554688,0.0,0.0,0.0,0.0,0.0,0.0,0.0,0.0,0.0,0.0,0.0,0.0,1.0,0.0,0.0,0.0,0.0,0.0,0.0,0.0,0.0,0.0,0.0,0.0,0.0,1.0,0.0,0.0,0.0,0.0,0.0,0.0,0.0,0.0,0.0,0.0,0.0,0.0,1.0,0.0,0.0,0.0,0.0,0.0,0.0,0.0,0.0,0.0,0.0,0.0,0.0,1.0,0.0,0.0,0.0,0.0,0.0,0.0,0.0,0.0,0.0,0.0,0.0,0.0,1.0,0.0,0.0,0.0,0.0,0.0,0.0,0.0,0.0,0.0,0.0,0.0,0.0,1.0,0.0,0.0,0.0,0.0,0.0,0.0,0.0,0.0,0.0,0.0,0.0,0.0,1.0,0,0,0,0,0,0,0,0,0,0,0,0,0,0,0,0,0,0,0,0,0,0,0,0,0,0,0,0,0,0,0,0,0,0,0,0
1777353601.9990363,149,1777353584.4087994,,,0,0,,,0,0,0.0,0.0,0.0,0.0,0.0,0.0,0.0,0.0,0.0,0.0,0.0,0.0,0.0,0.0,0.0,0.0,0.0,0.0,0.0,0.0,0.0,0.0,0.0,0.0,0.0,0.0,0.0,750.4293212890625,600.4476928710938,1109.1043701171875,1001.1016845703125,618.8616333007812,1109.14111328125,786.7649536132812,419.1465759277344,1141.9091796875,947.9445190429688,412.9986267089844,1145.052001953125,683.583984375,543.6636352539062,853.9940795898438,719.6627807617188,639.1401977539062,608.1253662109375,700.3079833984375,640.91064453125,432.78033447265625,721.5620727539062,697.2572631835938,238.58229064941406,783.6182250976562,621.634765625,150.1489715576172,744.68603515625,883.0670776367188,207.39454650878906,1047.3790283203125,515.6017456054688,787.6972045898438,995.3190307617188,426.318359375,567.951171875,1004.6267700195312,378.4197692871094,438.0508117675781,954.4362182617188,306.18084716796875,237.9799041748047,892.1231689453125,221.38345336914062,173.57415771484375,942.7159423828125,482.937744140625,175.87054443359375,0.0,0.0,0.0,0.0,0.0,0.0,0.0,0.0,0.0,0.0,0.0,0.0,1.0,0.0,0.0,0.0,0.0,0.0,0.0,0.0,0.0,0.0,0.0,0.0,0.0,1.0,0.0,0.0,0.0,0.0,0.0,0.0,0.0,0.0,0.0,0.0,0.0,0.0,1.0,0.0,0.0,0.0,0.0,0.0,0.0,0.0,0.0,0.0,0.0,0.0,0.0,1.0,0.0,0.0,0.0,0.0,0.0,0.0,0.0,0.0,0.0,0.0,0.0,0.0,1.0,0.0,0.0,0.0,0.0,0.0,0.0,0.0,0.0,0.0,0.0,0.0,0.0,1.0,0.0,0.0,0.0,0.0,0.0,0.0,0.0,0.0,0.0,0.0,0.0,0.0,1.0,0,0,0,0,0,0,0,0,0,0,0,0,0,0,0,0,0,0,0,0,0,0,0,0,0,0,0,0,0,0,0,0,0,0,0,0
1777353601.9990363,150,1777353584.4212325,,,0,0,,,0,0,0.0,0.0,0.0,0.0,0.0,0.0,0.0,0.0,0.0,0.0,0.0,0.0,0.0,0.0,0.0,0.0,0.0,0.0,0.0,0.0,0.0,0.0,0.0,0.0,0.0,0.0,0.0,749.5245361328125,601.909423828125,1108.6595458984375,1000.2686767578125,619.2666015625,1108.8277587890625,785.1887817382812,420.33734130859375,1141.2808837890625,946.3824462890625,413.5110778808594,1144.326416015625,683.534912109375,545.9132690429688,853.3818359375,720.3143920898438,640.0081176757812,607.3063354492188,701.2337036132812,639.7060546875,431.9029235839844,722.4388427734375,692.8807373046875,237.32455444335938,783.7536010742188,614.274169921875,151.1342315673828,746.5036010742188,877.2188110351562,202.42294311523438,1046.2353515625,515.116455078125,787.13671875,994.3541870117188,424.4910888671875,568.1484985351562,1003.9044799804688,374.47845458984375,439.03350830078125,954.158203125,299.44427490234375,239.7182159423828,892.193115234375,214.05462646484375,174.9564208984375,942.9186401367188,475.42803955078125,175.72921752929688,0.0,0.0,0.0,0.0,0.0,0.0,0.0,0.0,0.0,0.0,0.0,0.0,1.0,0.0,0.0,0.0,0.0,0.0,0.0,0.0,0.0,0.0,0.0,0.0,0.0,1.0,0.0,0.0,0.0,0.0,0.0,0.0,0.0,0.0,0.0,0.0,0.0,0.0,1.0,0.0,0.0,0.0,0.0,0.0,0.0,0.0,0.0,0.0,0.0,0.0,0.0,1.0,0.0,0.0,0.0,0.0,0.0,0.0,0.0,0.0,0.0,0.0,0.0,0.0,1.0,0.0,0.0,0.0,0.0,0.0,0.0,0.0,0.0,0.0,0.0,0.0,0.0,1.0,0.0,0.0,0.0,0.0,0.0,0.0,0.0,0.0,0.0,0.0,0.0,0.0,1.0,0,0,0,0,0,0,0,0,0,0,0,0,0,0,0,0,0,0,0,0,0,0,0,0,0,0,0,0,0,0,0,0,0,0,0,0
1777353601.9990363,151,1777353584.4318197,,,0,0,,,0,0,0.0,0.0,0.0,0.0,0.0,0.0,0.0,0.0,0.0,0.0,0.0,0.0,0.0,0.0,0.0,0.0,0.0,0.0,0.0,0.0,0.0,0.0,0.0,0.0,0.0,0.0,0.0,748.5499267578125,603.4412231445312,1108.34814453125,999.36328125,619.7245483398438,1108.6263427734375,783.5594482421875,421.59088134765625,1140.7471923828125,944.7623291015625,414.0628967285156,1143.665771484375,683.4547729492188,548.2506713867188,852.9276123046875,720.8445434570312,640.9851684570312,606.6508178710938,701.9257202148438,638.3818969726562,431.17626953125,723.0728759765625,688.0325927734375,236.1776580810547,783.89892578125,606.6842651367188,152.0761260986328,747.6381225585938,870.8014526367188,197.79690551757812,1045.0576171875,514.9421997070312,786.6307373046875,993.3934936523438,423.22314453125,568.3824462890625,1003.1951293945312,370.9104309082031,440.1750793457031,953.9253540039062,292.8879089355469,241.72227478027344,892.2921752929688,206.8221435546875,176.7699737548828,943.0989990234375,467.9062194824219,175.60577392578125,0.0,0.0,0.0,0.0,0.0,0.0,0.0,0.0,0.0,0.0,0.0,0.0,1.0,0.0,0.0,0.0,0.0,0.0,0.0,0.0,0.0,0.0,0.0,0.0,0.0,1.0,0.0,0.0,0.0,0.0,0.0,0.0,0.0,0.0,0.0,0.0,0.0,0.0,1.0,0.0,0.0,0.0,0.0,0.0,0.0,0.0,0.0,0.0,0.0,0.0,0.0,1.0,0.0,0.0,0.0,0.0,0.0,0.0,0.0,0.0,0.0,0.0,0.0,0.0,1.0,0.0,0.0,0.0,0.0,0.0,0.0,0.0,0.0,0.0,0.0,0.0,0.0,1.0,0.0,0.0,0.0,0.0,0.0,0.0,0.0,0.0,0.0,0.0,0.0,0.0,1.0,0,0,0,0,0,0,0,0,0,0,0,0,0,0,0,0,0,0,0,0,0,0,0,0,0,0,0,0,0,0,0,0,0,0,0,0
1777353601.9990363,152,1777353584.4435563,,,0,0,,,0,0,0.0,0.0,0.0,0.0,0.0,0.0,0.0,0.0,0.0,0.0,0.0,0.0,0.0,0.0,0.0,0.0,0.0,0.0,0.0,0.0,0.0,0.0,0.0,0.0,0.0,0.0,0.0,747.5078735351562,605.0276489257812,1108.17333984375,998.38720703125,620.2199096679688,1108.5400390625,781.8809814453125,422.8953857421875,1140.314697265625,943.0870361328125,414.640869140625,1143.0782470703125,683.3206176757812,550.6173706054688,852.6278076171875,721.2468872070312,642.0082397460938,606.1476440429688,702.3429565429688,636.9860229492188,430.6124267578125,723.4692993164062,682.8465576171875,235.18270874023438,784.0287475585938,599.0342407226562,152.93341064453125,748.2402954101562,863.9938354492188,193.7422332763672,1043.868408203125,515.0983276367188,786.18994140625,992.4744873046875,422.5862121582031,568.651123046875,1002.5352783203125,367.78753662109375,441.4911193847656,953.7727661132812,286.5704345703125,244.027587890625,892.4320068359375,199.71470642089844,179.0719757080078,943.253173828125,460.37384033203125,175.51174926757812,0.0,0.0,0.0,0.0,0.0,0.0,0.0,0.0,0.0,0.0,0.0,0.0,1.0,0.0,0.0,0.0,0.0,0.0,0.0,0.0,0.0,0.0,0.0,0.0,0.0,1.0,0.0,0.0,0.0,0.0,0.0,0.0,0.0,0.0,0.0,0.0,0.0,0.0,1.0,0.0,0.0,0.0,0.0,0.0,0.0,0.0,0.0,0.0,0.0,0.0,0.0,1.0,0.0,0.0,0.0,0.0,0.0,0.0,0.0,0.0,0.0,0.0,0.0,0.0,1.0,0.0,0.0,0.0,0.0,0.0,0.0,0.0,0.0,0.0,0.0,0.0,0.0,1.0,0.0,0.0,0.0,0.0,0.0,0.0,0.0,0.0,0.0,0.0,0.0,0.0,1.0,0,0,0,0,0,0,0,0,0,0,0,0,0,0,0,0,0,0,0,0,0,0,0,0,0,0,0,0,0,0,0,0,0,0,0,0
1777353601.9990363,153,1777353584.4435563,,,0,0,,,0,0,0.0,0.0,0.0,0.0,0.0,0.0,0.0,0.0,0.0,0.0,0.0,0.0,0.0,0.0,0.0,0.0,0.0,0.0,0.0,0.0,0.0,0.0,0.0,0.0,0.0,0.0,0.0,746.40185546875,606.6522216796875,1108.1348876953125,997.3435668945312,620.7346801757812,1108.5692138671875,780.1575317382812,424.2383117675781,1139.98681640625,941.359375,415.23052978515625,1142.56982421875,683.111572265625,552.956298828125,852.4744262695312,721.521728515625,643.01025390625,605.7794189453125,702.4697875976562,635.5409545898438,430.21435546875,723.6533813476562,677.4164428710938,234.36671447753906,784.129150390625,591.4171752929688,153.67813110351562,748.473876953125,856.9320068359375,190.3867645263672,1042.6915283203125,515.6018676757812,785.823974609375,991.6377563476562,422.6507873535156,568.9517822265625,1001.9640502929688,365.18817138671875,442.9958801269531,953.7374267578125,280.5619812011719,246.6692352294922,892.6200561523438,192.77139282226562,181.9148712158203,943.3831176757812,452.8406066894531,175.45372009277344,0.0,0.0,0.0,0.0,0.0,0.0,0.0,0.0,0.0,0.0,0.0,0.0,1.0,0.0,0.0,0.0,0.0,0.0,0.0,0.0,0.0,0.0,0.0,0.0,0.0,1.0,0.0,0.0,0.0,0.0,0.0,0.0,0.0,0.0,0.0,0.0,0.0,0.0,1.0,0.0,0.0,0.0,0.0,0.0,0.0,0.0,0.0,0.0,0.0,0.0,0.0,1.0,0.0,0.0,0.0,0.0,0.0,0.0,0.0,0.0,0.0,0.0,0.0,0.0,1.0,0.0,0.0,0.0,0.0,0.0,0.0,0.0,0.0,0.0,0.0,0.0,0.0,1.0,0.0,0.0,0.0,0.0,0.0,0.0,0.0,0.0,0.0,0.0,0.0,0.0,1.0,0,0,0,0,0,0,0,0,0,0,0,0,0,0,0,0,0,0,0,0,0,0,0,0,0,0,0,0,0,0,0,0,0,0,0,0
1777353601.9990363,154,1777353584.4556355,,,0,0,,,0,0,0.0,0.0,0.0,0.0,0.0,0.0,0.0,0.0,0.0,0.0,0.0,0.0,0.0,0.0,0.0,0.0,0.0,0.0,0.0,0.0,0.0,0.0,0.0,0.0,0.0,0.0,0.0,745.2368774414062,608.2979736328125,1108.22900390625,996.2373046875,621.2489624023438,1108.7115478515625,778.393310546875,425.6065368652344,1139.7645263671875,939.5824584960938,415.81683349609375,1142.144775390625,682.809814453125,555.2131958007812,852.4546508789062,721.6751708984375,643.9212646484375,605.5234985351562,702.31982421875,634.0419311523438,429.9743957519531,723.6650390625,671.8021240234375,233.7412567138672,784.1957397460938,583.8693237304688,154.29774475097656,748.489501953125,849.7147827148438,187.76358032226562,1041.5526123046875,516.4660034179688,785.5407104492188,990.9243774414062,423.4819030761719,569.281494140625,1001.5211181640625,363.1939392089844,444.7010192871094,953.856201171875,274.9429626464844,249.68031311035156,892.8609008789062,186.0461883544922,185.35421752929688,943.4982299804688,445.32757568359375,175.42987060546875,0.0,0.0,0.0,0.0,0.0,0.0,0.0,0.0,0.0,0.0,0.0,0.0,1.0,0.0,0.0,0.0,0.0,0.0,0.0,0.0,0.0,0.0,0.0,0.0,0.0,1.0,0.0,0.0,0.0,0.0,0.0,0.0,0.0,0.0,0.0,0.0,0.0,0.0,1.0,0.0,0.0,0.0,0.0,0.0,0.0,0.0,0.0,0.0,0.0,0.0,0.0,1.0,0.0,0.0,0.0,0.0,0.0,0.0,0.0,0.0,0.0,0.0,0.0,0.0,1.0,0.0,0.0,0.0,0.0,0.0,0.0,0.0,0.0,0.0,0.0,0.0,0.0,1.0,0.0,0.0,0.0,0.0,0.0,0.0,0.0,0.0,0.0,0.0,0.0,0.0,1.0,0,0,0,0,0,0,0,0,0,0,0,0,0,0,0,0,0,0,0,0,0,0,0,0,0,0,0,0,0,0,0,0,0,0,0,0
1777353601.9990363,155,1777353584.4681687,,,0,0,,,0,0,0.0,0.0,0.0,0.0,0.0,0.0,0.0,0.0,0.0,0.0,0.0,0.0,0.0,0.0,0.0,0.0,0.0,0.0,0.0,0.0,0.0,0.0,0.0,0.0,0.0,0.0,0.0,744.01953125,609.94775390625,1108.4486083984375,995.0751953125,621.741943359375,1108.9617919921875,776.5928344726562,426.9864501953125,1139.6453857421875,937.7598266601562,416.3843078613281,1141.8050537109375,682.4007568359375,557.338134765625,852.5509033203125,721.71826171875,644.6701049804688,605.3526000976562,701.9351196289062,632.4592895507812,429.8746643066406,723.5529174804688,666.0372924804688,233.3028106689453,784.2315673828125,576.3912963867188,154.79464721679688,748.4098510742188,842.4111328125,185.82762145996094,1040.4765625,517.6980590820312,785.3461303710938,990.3738403320312,425.13482666015625,569.6373901367188,1001.2440185546875,361.88580322265625,446.6147766113281,954.1625366210938,269.80145263671875,253.09005737304688,893.1572875976562,179.61280822753906,189.45616149902344,943.616455078125,437.8691101074219,175.4269561767578,0.0,0.0,0.0,0.0,0.0,0.0,0.0,0.0,0.0,0.0,0.0,0.0,1.0,0.0,0.0,0.0,0.0,0.0,0.0,0.0,0.0,0.0,0.0,0.0,0.0,1.0,0.0,0.0,0.0,0.0,0.0,0.0,0.0,0.0,0.0,0.0,0.0,0.0,1.0,0.0,0.0,0.0,0.0,0.0,0.0,0.0,0.0,0.0,0.0,0.0,0.0,1.0,0.0,0.0,0.0,0.0,0.0,0.0,0.0,0.0,0.0,0.0,0.0,0.0,1.0,0.0,0.0,0.0,0.0,0.0,0.0,0.0,0.0,0.0,0.0,0.0,0.0,1.0,0.0,0.0,0.0,0.0,0.0,0.0,0.0,0.0,0.0,0.0,0.0,0.0,1.0,0,0,0,0,0,0,0,0,0,0,0,0,0,0,0,0,0,0,0,0,0,0,0,0,0,0,0,0,0,0,0,0,0,0,0,0
1777353601.9990363,156,1777353584.4801943,,,0,0,,,0,0,0.0,0.0,0.0,0.0,0.0,0.0,0.0,0.0,0.0,0.0,0.0,0.0,0.0,0.0,0.0,0.0,0.0,0.0,0.0,0.0,0.0,0.0,0.0,0.0,0.0,0.0,0.0,742.7576904296875,611.5843505859375,1108.782470703125,993.8655395507812,622.1921997070312,1109.311767578125,774.7608032226562,428.3641357421875,1139.62451171875,935.8953247070312,416.91754150390625,1141.550048828125,681.8733520507812,559.28662109375,852.7418212890625,721.66455078125,645.1870727539062,605.2366943359375,701.3800659179688,630.7432250976562,429.8883056640625,723.3682250976562,660.1382446289062,233.03468322753906,784.2445068359375,568.9653930664062,155.18280029296875,748.323974609375,835.0669555664062,184.48098754882812,1039.4879150390625,519.2979125976562,785.2437744140625,990.0217895507812,427.6504211425781,570.0179443359375,1001.1658325195312,361.3391418457031,448.7411193847656,954.683349609375,265.2294006347656,256.9220275878906,893.511474609375,173.5684051513672,194.3024444580078,943.7638549804688,430.51324462890625,175.41851806640625,0.0,0.0,0.0,0.0,0.0,0.0,0.0,0.0,0.0,0.0,0.0,0.0,1.0,0.0,0.0,0.0,0.0,0.0,0.0,0.0,0.0,0.0,0.0,0.0,0.0,1.0,0.0,0.0,0.0,0.0,0.0,0.0,0.0,0.0,0.0,0.0,0.0,0.0,1.0,0.0,0.0,0.0,0.0,0.0,0.0,0.0,0.0,0.0,0.0,0.0,0.0,1.0,0.0,0.0,0.0,0.0,0.0,0.0,0.0,0.0,0.0,0.0,0.0,0.0,1.0,0.0,0.0,0.0,0.0,0.0,0.0,0.0,0.0,0.0,0.0,0.0,0.0,1.0,0.0,0.0,0.0,0.0,0.0,0.0,0.0,0.0,0.0,0.0,0.0,0.0,1.0,0,0,0,0,0,0,0,0,0,0,0,0,0,0,0,0,0,0,0,0,0,0,0,0,0,0,0,0,0,0,0,0,0,0,0,0
1777353601.9990363,157,1777353584.4921944,,,0,0,,,0,0,0.0,0.0,0.0,0.0,0.0,0.0,0.0,0.0,0.0,0.0,0.0,0.0,0.0,0.0,0.0,0.0,0.0,0.0,0.0,0.0,0.0,0.0,0.0,0.0,0.0,0.0,0.0,741.460693359375,613.19091796875,1109.2164306640625,992.6182250976562,622.5791015625,1109.7501220703125,772.9022827148438,429.72564697265625,1139.694580078125,933.993408203125,417.4017639160156,1141.3773193359375,681.2205200195312,561.0201416015625,853.0028076171875,721.5286865234375,645.4068603515625,605.1448364257812,700.7314453125,628.830810546875,429.9815979003906,723.1599731445312,654.1106567382812,232.91018676757812,784.2448120117188,561.569091796875,155.4832000732422,748.28759765625,827.7105102539062,183.59793090820312,1038.6085205078125,521.256103515625,785.2351684570312,989.8973999023438,431.0511474609375,570.4235229492188,1001.3121948242188,361.6184387207031,451.0795593261719,955.435546875,261.31719970703125,261.19232177734375,893.92626953125,168.0353546142578,199.99122619628906,943.9733276367188,423.3197326660156,175.36495971679688,0.0,0.0,0.0,0.0,0.0,0.0,0.0,0.0,0.0,0.0,0.0,0.0,1.0,0.0,0.0,0.0,0.0,0.0,0.0,0.0,0.0,0.0,0.0,0.0,0.0,1.0,0.0,0.0,0.0,0.0,0.0,0.0,0.0,0.0,0.0,0.0,0.0,0.0,1.0,0.0,0.0,0.0,0.0,0.0,0.0,0.0,0.0,0.0,0.0,0.0,0.0,1.0,0.0,0.0,0.0,0.0,0.0,0.0,0.0,0.0,0.0,0.0,0.0,0.0,1.0,0.0,0.0,0.0,0.0,0.0,0.0,0.0,0.0,0.0,0.0,0.0,0.0,1.0,0.0,0.0,0.0,0.0,0.0,0.0,0.0,0.0,0.0,0.0,0.0,0.0,1.0,0,0,0,0,0,0,0,0,0,0,0,0,0,0,0,0,0,0,0,0,0,0,0,0,0,0,0,0,0,0,0,0,0,0,0,0
1777353601.9990363,158,1777353584.5027032,,,0,0,,,0,0,0.0,0.0,0.0,0.0,0.0,0.0,0.0,0.0,0.0,0.0,0.0,0.0,0.0,0.0,0.0,0.0,0.0,0.0,0.0,0.0,0.0,0.0,0.0,0.0,0.0,0.0,0.0,740.13916015625,614.7509155273438,1109.733154296875,991.3443603515625,622.8832397460938,1110.2630615234375,771.0228271484375,431.056884765625,1139.8463134765625,932.0593872070312,417.8231201171875,1141.2825927734375,680.4390869140625,562.5069580078125,853.3074951171875,721.3248901367188,645.2723999023438,605.0471801757812,700.06689453125,626.6550903320312,430.1171569824219,722.9710693359375,647.9553833007812,232.89657592773438,784.2435302734375,554.18310546875,155.71910095214844,748.3276977539062,820.3583374023438,183.04629516601562,1037.8570556640625,523.5530395507812,785.319580078125,990.021484375,435.33770751953125,570.8578491210938,1001.6993408203125,362.7716369628906,453.6251220703125,956.422607421875,258.1473083496094,265.9084167480469,894.4049072265625,163.16000366210938,206.63241577148438,944.2820434570312,416.35589599609375,175.21620178222656,0.0,0.0,0.0,0.0,0.0,0.0,0.0,0.0,0.0,0.0,0.0,0.0,1.0,0.0,0.0,0.0,0.0,0.0,0.0,0.0,0.0,0.0,0.0,0.0,0.0,1.0,0.0,0.0,0.0,0.0,0.0,0.0,0.0,0.0,0.0,0.0,0.0,0.0,1.0,0.0,0.0,0.0,0.0,0.0,0.0,0.0,0.0,0.0,0.0,0.0,0.0,1.0,0.0,0.0,0.0,0.0,0.0,0.0,0.0,0.0,0.0,0.0,0.0,0.0,1.0,0.0,0.0,0.0,0.0,0.0,0.0,0.0,0.0,0.0,0.0,0.0,0.0,1.0,0.0,0.0,0.0,0.0,0.0,0.0,0.0,0.0,0.0,0.0,0.0,0.0,1.0,0,0,0,0,0,0,0,0,0,0,0,0,0,0,0,0,0,0,0,0,0,0,0,0,0,0,0,0,0,0,0,0,0,0,0,0
1777353601.9990363,159,1777353584.503708,,,0,0,,,0,0,0.0,0.0,0.0,0.0,0.0,0.0,0.0,0.0,0.0,0.0,0.0,0.0,0.0,0.0,0.0,0.0,0.0,0.0,0.0,0.0,0.0,0.0,0.0,0.0,0.0,0.0,0.0,738.8047485351562,616.2485961914062,1110.312744140625,990.0559692382812,623.0874633789062,1110.8345947265625,769.1287841796875,432.3439636230469,1140.0689697265625,930.0994262695312,418.1690673828125,1141.2598876953125,679.53076171875,563.7218627929688,853.6290893554688,721.0660400390625,644.7383422851562,604.9170532226562,699.4540405273438,624.1541137695312,430.2574157714844,722.8357543945312,641.6722412109375,232.95875549316406,784.2514038085938,546.79541015625,155.91168212890625,748.4488525390625,813.0194702148438,182.7035369873047,1037.2471923828125,526.1589965820312,785.494873046875,990.4046630859375,440.4869079589844,571.3289184570312,1002.331787109375,364.8248596191406,456.369384765625,957.632080078125,255.78756713867188,271.0680847167969,894.9500732421875,159.1075439453125,214.33734130859375,944.7283325195312,409.6905517578125,174.91751098632812,0.0,0.0,0.0,0.0,0.0,0.0,0.0,0.0,0.0,0.0,0.0,0.0,1.0,0.0,0.0,0.0,0.0,0.0,0.0,0.0,0.0,0.0,0.0,0.0,0.0,1.0,0.0,0.0,0.0,0.0,0.0,0.0,0.0,0.0,0.0,0.0,0.0,0.0,1.0,0.0,0.0,0.0,0.0,0.0,0.0,0.0,0.0,0.0,0.0,0.0,0.0,1.0,0.0,0.0,0.0,0.0,0.0,0.0,0.0,0.0,0.0,0.0,0.0,0.0,1.0,0.0,0.0,0.0,0.0,0.0,0.0,0.0,0.0,0.0,0.0,0.0,0.0,1.0,0.0,0.0,0.0,0.0,0.0,0.0,0.0,0.0,0.0,0.0,0.0,0.0,1.0,0,0,0,0,0,0,0,0,0,0,0,0,0,0,0,0,0,0,0,0,0,0,0,0,0,0,0,0,0,0,0,0,0,0,0,0
1777353601.9990363,160,1777353584.5171804,,,0,0,,,0,0,0.0,0.0,0.0,0.0,0.0,0.0,0.0,0.0,0.0,0.0,0.0,0.0,0.0,0.0,0.0,0.0,0.0,0.0,0.0,0.0,0.0,0.0,0.0,0.0,0.0,0.0,0.0,737.4696655273438,617.6688842773438,1110.9342041015625,988.7655029296875,623.1773681640625,1111.4471435546875,767.2269897460938,433.57318115234375,1140.350830078125,928.1206665039062,418.4288635253906,1141.3018798828125,678.5018920898438,564.6466674804688,853.9417724609375,720.7638549804688,643.7739868164062,604.7327270507812,698.9432373046875,621.279541015625,430.36798095703125,722.7781982421875,635.2628784179688,233.06288146972656,784.2779541015625,539.4013061523438,156.07717895507812,748.6416625976562,805.6980590820312,182.46742248535156,1036.787353515625,529.0343017578125,785.7578735351562,991.0462646484375,446.45123291015625,571.8494873046875,1003.2010498046875,367.7780456542969,459.3016052246094,959.0341186523438,254.28509521484375,276.6593322753906,895.5607299804688,156.05252075195312,223.2027587890625,945.3469848632812,403.3873291015625,174.41836547851562,0.0,0.0,0.0,0.0,0.0,0.0,0.0,0.0,0.0,0.0,0.0,0.0,1.0,0.0,0.0,0.0,0.0,0.0,0.0,0.0,0.0,0.0,0.0,0.0,0.0,1.0,0.0,0.0,0.0,0.0,0.0,0.0,0.0,0.0,0.0,0.0,0.0,0.0,1.0,0.0,0.0,0.0,0.0,0.0,0.0,0.0,0.0,0.0,0.0,0.0,0.0,1.0,0.0,0.0,0.0,0.0,0.0,0.0,0.0,0.0,0.0,0.0,0.0,0.0,1.0,0.0,0.0,0.0,0.0,0.0,0.0,0.0,0.0,0.0,0.0,0.0,0.0,1.0,0.0,0.0,0.0,0.0,0.0,0.0,0.0,0.0,0.0,0.0,0.0,0.0,1.0,0,0,0,0,0,0,0,0,0,0,0,0,0,0,0,0,0,0,0,0,0,0,0,0,0,0,0,0,0,0,0,0,0,0,0,0
1777353601.9990363,161,1777353584.528279,,,0,0,,,0,0,0.0,0.0,0.0,0.0,0.0,0.0,0.0,0.0,0.0,0.0,0.0,0.0,0.0,0.0,0.0,0.0,0.0,0.0,0.0,0.0,0.0,0.0,0.0,0.0,0.0,0.0,0.0,736.1466064453125,618.99755859375,1111.57568359375,987.4854125976562,623.1421508789062,1112.0830078125,765.3252563476562,434.7311706542969,1140.6800537109375,926.1312866210938,418.5935363769531,1141.401123046875,677.3639526367188,565.2701416015625,854.2217407226562,720.4287719726562,642.36572265625,604.478271484375,698.5638427734375,618.0030517578125,430.420654296875,722.8121337890625,628.7326049804688,233.1793975830078,784.33056640625,532.001953125,156.2258758544922,748.8888549804688,798.3955688476562,182.26156616210938,1036.4791259765625,532.1309204101562,786.1051025390625,991.9338989257812,453.16015625,572.4378051757812,1004.2852783203125,371.60296630859375,462.4105224609375,960.5812377929688,253.66184997558594,282.6605224609375,896.2284545898438,154.16458129882812,233.2909393310547,946.1649780273438,397.4991760253906,173.6835174560547,0.0,0.0,0.0,0.0,0.0,0.0,0.0,0.0,0.0,0.0,0.0,0.0,1.0,0.0,0.0,0.0,0.0,0.0,0.0,0.0,0.0,0.0,0.0,0.0,0.0,1.0,0.0,0.0,0.0,0.0,0.0,0.0,0.0,0.0,0.0,0.0,0.0,0.0,1.0,0.0,0.0,0.0,0.0,0.0,0.0,0.0,0.0,0.0,0.0,0.0,0.0,1.0,0.0,0.0,0.0,0.0,0.0,0.0,0.0,0.0,0.0,0.0,0.0,0.0,1.0,0.0,0.0,0.0,0.0,0.0,0.0,0.0,0.0,0.0,0.0,0.0,0.0,1.0,0.0,0.0,0.0,0.0,0.0,0.0,0.0,0.0,0.0,0.0,0.0,0.0,1.0,0,0,0,0,0,0,0,0,0,0,0,0,0,0,0,0,0,0,0,0,0,0,0,0,0,0,0,0,0,0,0,0,0,0,0,0
1777353601.9990363,162,1777353584.5378861,,,0,0,,,0,0,0.0,0.0,0.0,0.0,0.0,0.0,0.0,0.0,0.0,0.0,0.0,0.0,0.0,0.0,0.0,0.0,0.0,0.0,0.0,0.0,0.0,0.0,0.0,0.0,0.0,0.0,0.0,734.8480834960938,620.2213134765625,1112.2159423828125,986.227783203125,622.9747314453125,1112.724853515625,763.4320678710938,435.80511474609375,1141.0447998046875,924.140380859375,418.65625,1141.5498046875,676.1331176757812,565.5880126953125,854.4489135742188,720.0704956054688,640.5178833007812,604.1444091796875,698.3252563476562,614.3204345703125,430.39556884765625,722.9405517578125,622.0906372070312,233.28550720214844,784.4143676757812,524.602294921875,156.36289978027344,749.17138671875,791.1115112304688,182.03680419921875,1036.317626953125,535.394775390625,786.53369140625,993.044189453125,460.523193359375,573.1167602539062,1005.5498657226562,376.2434387207031,465.6858215332031,962.2108764648438,253.91317749023438,289.040283203125,896.9327392578125,153.5911407470703,244.60821533203125,947.1966552734375,392.06536865234375,172.70497131347656,0.0,0.0,0.0,0.0,0.0,0.0,0.0,0.0,0.0,0.0,0.0,0.0,1.0,0.0,0.0,0.0,0.0,0.0,0.0,0.0,0.0,0.0,0.0,0.0,0.0,1.0,0.0,0.0,0.0,0.0,0.0,0.0,0.0,0.0,0.0,0.0,0.0,0.0,1.0,0.0,0.0,0.0,0.0,0.0,0.0,0.0,0.0,0.0,0.0,0.0,0.0,1.0,0.0,0.0,0.0,0.0,0.0,0.0,0.0,0.0,0.0,0.0,0.0,0.0,1.0,0.0,0.0,0.0,0.0,0.0,0.0,0.0,0.0,0.0,0.0,0.0,0.0,1.0,0.0,0.0,0.0,0.0,0.0,0.0,0.0,0.0,0.0,0.0,0.0,0.0,1.0,0,0,0,0,0,0,0,0,0,0,0,0,0,0,0,0,0,0,0,0,0,0,0,0,0,0,0,0,0,0,0,0,0,0,0,0
1777353601.9990363,163,1777353584.5502977,,,0,0,,,0,0,0.0,0.0,0.0,0.0,0.0,0.0,0.0,0.0,0.0,0.0,0.0,0.0,0.0,0.0,0.0,0.0,0.0,0.0,0.0,0.0,0.0,0.0,0.0,0.0,0.0,0.0,0.0,733.5859985351562,621.3276977539062,1112.83544921875,985.003662109375,622.6718139648438,1113.356689453125,761.5565185546875,436.7829895019531,1141.4342041015625,922.1581420898438,418.6122741699219,1141.7406005859375,674.8297119140625,565.6029663085938,854.607421875,719.6988525390625,638.252197265625,603.7283935546875,698.2196655273438,610.2520751953125,430.28253173828125,723.156982421875,615.3500366210938,233.36679077148438,784.531982421875,517.209228515625,156.4903564453125,749.4718017578125,783.8441162109375,181.76907348632812,1036.2913818359375,538.768310546875,787.0421142578125,994.3440551757812,468.43463134765625,573.9127807617188,1006.9492797851562,381.61859130859375,469.118896484375,963.8489379882812,255.00933837890625,295.757080078125,897.6358642578125,154.4384765625,257.0840759277344,948.4409790039062,387.1131286621094,171.51235961914062,0.0,0.0,0.0,0.0,0.0,0.0,0.0,0.0,0.0,0.0,0.0,0.0,1.0,0.0,0.0,0.0,0.0,0.0,0.0,0.0,0.0,0.0,0.0,0.0,0.0,1.0,0.0,0.0,0.0,0.0,0.0,0.0,0.0,0.0,0.0,0.0,0.0,0.0,1.0,0.0,0.0,0.0,0.0,0.0,0.0,0.0,0.0,0.0,0.0,0.0,0.0,1.0,0.0,0.0,0.0,0.0,0.0,0.0,0.0,0.0,0.0,0.0,0.0,0.0,1.0,0.0,0.0,0.0,0.0,0.0,0.0,0.0,0.0,0.0,0.0,0.0,0.0,1.0,0.0,0.0,0.0,0.0,0.0,0.0,0.0,0.0,0.0,0.0,0.0,0.0,1.0,0,0,0,0,0,0,0,0,0,0,0,0,0,0,0,0,0,0,0,0,0,0,0,0,0,0,0,0,0,0,0,0,0,0,0,0
1777353601.9990363,164,1777353584.563817,,,0,0,,,0,0,0.0,0.0,0.0,0.0,0.0,0.0,0.0,0.0,0.0,0.0,0.0,0.0,0.0,0.0,0.0,0.0,0.0,0.0,0.0,0.0,0.0,0.0,0.0,0.0,0.0,0.0,0.0,732.3714599609375,622.3056030273438,1113.416748046875,983.822998046875,622.2340698242188,1113.9654541015625,759.7083129882812,437.6535949707031,1141.838134765625,920.1951904296875,418.4588623046875,1141.9671630859375,673.4776000976562,565.3248291015625,854.6868286132812,719.3236083984375,635.6058349609375,603.2340087890625,698.2273559570312,605.8407592773438,430.0814208984375,723.4470825195312,608.5265502929688,233.4176483154297,784.6835327148438,509.8294982910156,156.6097869873047,749.7764282226562,776.590576171875,181.4546661376953,1036.383544921875,542.1939086914062,787.631103515625,995.793212890625,476.7789306640625,574.8538208007812,1008.4300537109375,387.6286926269531,472.7023010253906,965.4158935546875,256.900390625,302.7575378417969,898.279052734375,156.7540740966797,270.5545654296875,949.8814086914062,382.6650085449219,170.1790313720703,0.0,0.0,0.0,0.0,0.0,0.0,0.0,0.0,0.0,0.0,0.0,0.0,1.0,0.0,0.0,0.0,0.0,0.0,0.0,0.0,0.0,0.0,0.0,0.0,0.0,1.0,0.0,0.0,0.0,0.0,0.0,0.0,0.0,0.0,0.0,0.0,0.0,0.0,1.0,0.0,0.0,0.0,0.0,0.0,0.0,0.0,0.0,0.0,0.0,0.0,0.0,1.0,0.0,0.0,0.0,0.0,0.0,0.0,0.0,0.0,0.0,0.0,0.0,0.0,1.0,0.0,0.0,0.0,0.0,0.0,0.0,0.0,0.0,0.0,0.0,0.0,0.0,1.0,0.0,0.0,0.0,0.0,0.0,0.0,0.0,0.0,0.0,0.0,0.0,0.0,1.0,0,0,0,0,0,0,0,0,0,0,0,0,0,0,0,0,0,0,0,0,0,0,0,0,0,0,0,0,0,0,0,0,0,0,0,0
1777353601.9990363,165,1777353584.5643246,,,0,0,,,0,0,0.0,0.0,0.0,0.0,0.0,0.0,0.0,0.0,0.0,0.0,0.0,0.0,0.0,0.0,0.0,0.0,0.0,0.0,0.0,0.0,0.0,0.0,0.0,0.0,0.0,0.0,0.0,731.2139282226562,623.14501953125,1113.9461669921875,982.6941528320312,621.6654052734375,1114.541259765625,757.8975830078125,438.406982421875,1142.248291015625,918.2627563476562,418.19525146484375,1142.224365234375,672.1029663085938,564.7700805664062,854.6824951171875,718.9548950195312,632.6279907226562,602.67041015625,698.322021484375,601.1458129882812,429.8015441894531,723.790771484375,601.6365966796875,233.44053649902344,784.8661499023438,502.46759033203125,156.72332763671875,750.0758056640625,769.346923828125,181.1041717529297,1036.572998046875,545.6170043945312,788.3040161132812,997.3465576171875,485.43658447265625,575.9667358398438,1009.9341430664062,394.162353515625,476.4279479980469,966.8327026367188,259.5228576660156,309.9742736816406,898.7828369140625,160.51348876953125,284.7539978027344,951.4899291992188,378.75311279296875,168.8223114013672,0.0,0.0,0.0,0.0,0.0,0.0,0.0,0.0,0.0,0.0,0.0,0.0,1.0,0.0,0.0,0.0,0.0,0.0,0.0,0.0,0.0,0.0,0.0,0.0,0.0,1.0,0.0,0.0,0.0,0.0,0.0,0.0,0.0,0.0,0.0,0.0,0.0,0.0,1.0,0.0,0.0,0.0,0.0,0.0,0.0,0.0,0.0,0.0,0.0,0.0,0.0,1.0,0.0,0.0,0.0,0.0,0.0,0.0,0.0,0.0,0.0,0.0,0.0,0.0,1.0,0.0,0.0,0.0,0.0,0.0,0.0,0.0,0.0,0.0,0.0,0.0,0.0,1.0,0.0,0.0,0.0,0.0,0.0,0.0,0.0,0.0,0.0,0.0,0.0,0.0,1.0,0,0,0,0,0,0,0,0,0,0,0,0,0,0,0,0,0,0,0,0,0,0,0,0,0,0,0,0,0,0,0,0,0,0,0,0
1777353601.9990363,166,1777353584.5754929,,,0,0,,,0,0,0.0,0.0,0.0,0.0,0.0,0.0,0.0,0.0,0.0,0.0,0.0,0.0,0.0,0.0,0.0,0.0,0.0,0.0,0.0,0.0,0.0,0.0,0.0,0.0,0.0,0.0,0.0,730.12109375,623.837646484375,1114.41357421875,981.623779296875,620.9727783203125,1115.0782470703125,756.13427734375,439.03466796875,1142.6578369140625,916.3722534179688,417.8223876953125,1142.5089111328125,670.7330932617188,563.9613037109375,854.5958862304688,718.60302734375,629.3750610351562,602.0514526367188,698.4752197265625,596.2360229492188,429.4598693847656,724.1652221679688,594.696044921875,233.44432067871094,785.0737915039062,495.1242370605469,156.83404541015625,750.3639526367188,762.10791015625,180.7361602783203,1036.836669921875,548.9891357421875,789.0675659179688,998.9573974609375,494.2898254394531,577.2743530273438,1011.4030151367188,401.1045837402344,480.2837829589844,968.0274658203125,262.8077087402344,317.3232727050781,899.0531005859375,165.61428833007812,299.31915283203125,953.2344970703125,375.43634033203125,167.59820556640625,0.0,0.0,0.0,0.0,0.0,0.0,0.0,0.0,0.0,0.0,0.0,0.0,1.0,0.0,0.0,0.0,0.0,0.0,0.0,0.0,0.0,0.0,0.0,0.0,0.0,1.0,0.0,0.0,0.0,0.0,0.0,0.0,0.0,0.0,0.0,0.0,0.0,0.0,1.0,0.0,0.0,0.0,0.0,0.0,0.0,0.0,0.0,0.0,0.0,0.0,0.0,1.0,0.0,0.0,0.0,0.0,0.0,0.0,0.0,0.0,0.0,0.0,0.0,0.0,1.0,0.0,0.0,0.0,0.0,0.0,0.0,0.0,0.0,0.0,0.0,0.0,0.0,1.0,0.0,0.0,0.0,0.0,0.0,0.0,0.0,0.0,0.0,0.0,0.0,0.0,1.0,0,0,0,0,0,0,0,0,0,0,0,0,0,0,0,0,0,0,0,0,0,0,0,0,0,0,0,0,0,0,0,0,0,0,0,0
1777353601.9990363,167,1777353584.5855832,,,0,0,,,0,0,0.0,0.0,0.0,0.0,0.0,0.0,0.0,0.0,0.0,0.0,0.0,0.0,0.0,0.0,0.0,0.0,0.0,0.0,0.0,0.0,0.0,0.0,0.0,0.0,0.0,0.0,0.0,729.0988159179688,624.3768310546875,1114.8131103515625,980.6168823242188,620.1654052734375,1115.5748291015625,754.4283447265625,439.5296936035156,1143.0616455078125,914.5347290039062,417.34271240234375,1142.81884765625,669.39501953125,562.9259643554688,854.4342041015625,718.2776489257812,625.9055786132812,601.3943481445312,698.6605834960938,591.1808471679688,429.07879638671875,724.5475463867188,587.7183227539062,233.44200134277344,785.2985229492188,487.7959899902344,156.94615173339844,750.637939453125,754.8672485351562,180.37156677246094,1037.1513671875,552.270751953125,789.9320678710938,1000.5798950195312,503.2274169921875,578.792724609375,1012.781005859375,408.3441467285156,484.250732421875,968.9406127929688,266.6877136230469,324.70269775390625,898.9913330078125,171.87869262695312,313.8056640625,955.0875244140625,372.81549072265625,166.69052124023438,0.0,0.0,0.0,0.0,0.0,0.0,0.0,0.0,0.0,0.0,0.0,0.0,1.0,0.0,0.0,0.0,0.0,0.0,0.0,0.0,0.0,0.0,0.0,0.0,0.0,1.0,0.0,0.0,0.0,0.0,0.0,0.0,0.0,0.0,0.0,0.0,0.0,0.0,1.0,0.0,0.0,0.0,0.0,0.0,0.0,0.0,0.0,0.0,0.0,0.0,0.0,1.0,0.0,0.0,0.0,0.0,0.0,0.0,0.0,0.0,0.0,0.0,0.0,0.0,1.0,0.0,0.0,0.0,0.0,0.0,0.0,0.0,0.0,0.0,0.0,0.0,0.0,1.0,0.0,0.0,0.0,0.0,0.0,0.0,0.0,0.0,0.0,0.0,0.0,0.0,1.0,0,0,0,0,0,0,0,0,0,0,0,0,0,0,0,0,0,0,0,0,0,0,0,0,0,0,0,0,0,0,0,0,0,0,0,0
1777353601.9990363,168,1777353584.5985508,,,0,0,,,0,0,0.0,0.0,0.0,0.0,0.0,0.0,0.0,0.0,0.0,0.0,0.0,0.0,0.0,0.0,0.0,0.0,0.0,0.0,0.0,0.0,0.0,0.0,0.0,0.0,0.0,0.0,0.0,728.1509399414062,624.7581787109375,1115.1431884765625,979.6766967773438,619.254150390625,1116.0333251953125,752.7891235351562,439.8870544433594,1143.4569091796875,912.7610473632812,416.75994873046875,1143.1536865234375,668.1139526367188,561.6947631835938,854.2095336914062,717.9874877929688,622.27490234375,600.7182006835938,698.8560791015625,586.0418090820312,428.6831359863281,724.9173583984375,580.713623046875,233.44810485839844,785.5321655273438,480.4756164550781,157.06480407714844,750.8965454101562,747.6178588867188,180.0295867919922,1037.49560546875,555.4326171875,790.9112548828125,1002.1717529296875,512.1483154296875,580.5292358398438,1014.0187377929688,415.7798156738281,488.29937744140625,969.529541015625,271.1041564941406,331.9931335449219,898.5068359375,179.0653839111328,327.7164611816406,957.0332641601562,371.041259765625,166.2940216064453,0.0,0.0,0.0,0.0,0.0,0.0,0.0,0.0,0.0,0.0,0.0,0.0,1.0,0.0,0.0,0.0,0.0,0.0,0.0,0.0,0.0,0.0,0.0,0.0,0.0,1.0,0.0,0.0,0.0,0.0,0.0,0.0,0.0,0.0,0.0,0.0,0.0,0.0,1.0,0.0,0.0,0.0,0.0,0.0,0.0,0.0,0.0,0.0,0.0,0.0,0.0,1.0,0.0,0.0,0.0,0.0,0.0,0.0,0.0,0.0,0.0,0.0,0.0,0.0,1.0,0.0,0.0,0.0,0.0,0.0,0.0,0.0,0.0,0.0,0.0,0.0,0.0,1.0,0.0,0.0,0.0,0.0,0.0,0.0,0.0,0.0,0.0,0.0,0.0,0.0,1.0,0,0,0,0,0,0,0,0,0,0,0,0,0,0,0,0,0,0,0,0,0,0,0,0,0,0,0,0,0,0,0,0,0,0,0,0
1777353601.9990363,169,1777353584.6105525,,,0,0,,,0,0,0.0,0.0,0.0,0.0,0.0,0.0,0.0,0.0,0.0,0.0,0.0,0.0,0.0,0.0,0.0,0.0,0.0,0.0,0.0,0.0,0.0,0.0,0.0,0.0,0.0,0.0,0.0,727.2791137695312,624.9794311523438,1115.40625,978.8050537109375,618.25048828125,1116.4599609375,751.2252197265625,440.10369873046875,1143.842041015625,911.0609741210938,416.0788879394531,1143.5146484375,666.9119873046875,560.2998657226562,853.9376831054688,717.7395629882812,618.5308837890625,600.0425415039062,699.045654296875,580.866455078125,428.2978515625,725.2590942382812,573.68798828125,233.47650146484375,785.7677612304688,473.15350341796875,157.1958770751953,751.1395874023438,740.3524169921875,179.7249298095703,1037.850830078125,558.4567260742188,792.021728515625,1003.6954345703125,520.9640502929688,582.4815673828125,1015.0758666992188,423.3246154785156,492.3880310058594,969.77099609375,276.01104736328125,339.0599060058594,897.5296630859375,186.89349365234375,340.54278564453125,959.0715942382812,370.310546875,166.59072875976562,0.0,0.0,0.0,0.0,0.0,0.0,0.0,0.0,0.0,0.0,0.0,0.0,1.0,0.0,0.0,0.0,0.0,0.0,0.0,0.0,0.0,0.0,0.0,0.0,0.0,1.0,0.0,0.0,0.0,0.0,0.0,0.0,0.0,0.0,0.0,0.0,0.0,0.0,1.0,0.0,0.0,0.0,0.0,0.0,0.0,0.0,0.0,0.0,0.0,0.0,0.0,1.0,0.0,0.0,0.0,0.0,0.0,0.0,0.0,0.0,0.0,0.0,0.0,0.0,1.0,0.0,0.0,0.0,0.0,0.0,0.0,0.0,0.0,0.0,0.0,0.0,0.0,1.0,0.0,0.0,0.0,0.0,0.0,0.0,0.0,0.0,0.0,0.0,0.0,0.0,1.0,0,0,0,0,0,0,0,0,0,0,0,0,0,0,0,0,0,0,0,0,0,0,0,0,0,0,0,0,0,0,0,0,0,0,0,0
1777353601.9990363,170,1777353584.6215665,,,0,0,,,0,0,0.0,0.0,0.0,0.0,0.0,0.0,0.0,0.0,0.0,0.0,0.0,0.0,0.0,0.0,0.0,0.0,0.0,0.0,0.0,0.0,0.0,0.0,0.0,0.0,0.0,0.0,0.0,726.4835815429688,625.0409545898438,1115.60791015625,978.0025024414062,617.1663208007812,1116.864013671875,749.7442626953125,440.1787414550781,1144.21728515625,909.4434814453125,415.3050537109375,1143.903564453125,665.8070068359375,558.7720947265625,853.6365966796875,717.5389404296875,614.7108154296875,599.385986328125,699.2198486328125,575.6844482421875,427.9455871582031,725.5633544921875,566.6441040039062,233.53855895996094,786.0004272460938,465.8192138671875,157.34518432617188,751.367431640625,733.064208984375,179.4665985107422,1038.2020263671875,561.3356323242188,793.2816772460938,1005.119873046875,529.6001586914062,584.6373291015625,1015.9230346679688,430.90826416015625,496.46258544921875,969.6620483398438,281.3774719238281,345.7577819824219,896.0243530273438,195.07887268066406,351.81488037109375,961.2162475585938,370.8481750488281,167.71995544433594,0.0,0.0,0.0,0.0,0.0,0.0,0.0,0.0,0.0,0.0,0.0,0.0,1.0,0.0,0.0,0.0,0.0,0.0,0.0,0.0,0.0,0.0,0.0,0.0,0.0,1.0,0.0,0.0,0.0,0.0,0.0,0.0,0.0,0.0,0.0,0.0,0.0,0.0,1.0,0.0,0.0,0.0,0.0,0.0,0.0,0.0,0.0,0.0,0.0,0.0,0.0,1.0,0.0,0.0,0.0,0.0,0.0,0.0,0.0,0.0,0.0,0.0,0.0,0.0,1.0,0.0,0.0,0.0,0.0,0.0,0.0,0.0,0.0,0.0,0.0,0.0,0.0,1.0,0.0,0.0,0.0,0.0,0.0,0.0,0.0,0.0,0.0,0.0,0.0,0.0,1.0,0,0,0,0,0,0,0,0,0,0,0,0,0,0,0,0,0,0,0,0,0,0,0,0,0,0,0,0,0,0,0,0,0,0,0,0
1777353601.9990363,171,1777353584.6334102,,,0,0,,,0,0,0.0,0.0,0.0,0.0,0.0,0.0,0.0,0.0,0.0,0.0,0.0,0.0,0.0,0.0,0.0,0.0,0.0,0.0,0.0,0.0,0.0,0.0,0.0,0.0,0.0,0.0,0.0,725.7630004882812,624.9456787109375,1115.7568359375,977.2686157226562,616.0130615234375,1117.256591796875,748.3526611328125,440.1134338378906,1144.584228515625,907.916259765625,414.4447326660156,1144.322998046875,664.8118896484375,557.1390380859375,853.3247680664062,717.3885498046875,610.8399658203125,598.7650146484375,699.3755493164062,570.5071411132812,427.6453552246094,725.8272705078125,559.5814208984375,233.6422119140625,786.227783203125,458.4633483886719,157.517578125,751.5803833007812,725.7476196289062,179.25782775878906,1038.5372314453125,564.0712280273438,794.7092895507812,1006.4205932617188,537.996337890625,586.9752807617188,1016.5435791015625,438.4775085449219,500.4576416015625,969.2197265625,287.1881103515625,351.93707275390625,893.9993286132812,203.37753295898438,361.15399169921875,963.4869995117188,372.8754577636719,169.7456817626953,0.0,0.0,0.0,0.0,0.0,0.0,0.0,0.0,0.0,0.0,0.0,0.0,1.0,0.0,0.0,0.0,0.0,0.0,0.0,0.0,0.0,0.0,0.0,0.0,0.0,1.0,0.0,0.0,0.0,0.0,0.0,0.0,0.0,0.0,0.0,0.0,0.0,0.0,1.0,0.0,0.0,0.0,0.0,0.0,0.0,0.0,0.0,0.0,0.0,0.0,0.0,1.0,0.0,0.0,0.0,0.0,0.0,0.0,0.0,0.0,0.0,0.0,0.0,0.0,1.0,0.0,0.0,0.0,0.0,0.0,0.0,0.0,0.0,0.0,0.0,0.0,0.0,1.0,0.0,0.0,0.0,0.0,0.0,0.0,0.0,0.0,0.0,0.0,0.0,0.0,1.0,0,0,0,0,0,0,0,0,0,0,0,0,0,0,0,0,0,0,0,0,0,0,0,0,0,0,0,0,0,0,0,0,0,0,0,0
1777353601.9990363,172,1777353584.6334102,,,0,0,,,0,0,0.0,0.0,0.0,0.0,0.0,0.0,0.0,0.0,0.0,0.0,0.0,0.0,0.0,0.0,0.0,0.0,0.0,0.0,0.0,0.0,0.0,0.0,0.0,0.0,0.0,0.0,0.0,725.1149291992188,624.698974609375,1115.8631591796875,976.6022338867188,614.8013916015625,1117.6494140625,747.0556640625,439.9111633300781,1144.9451904296875,906.4856567382812,413.5046691894531,1144.775390625,663.9340209960938,555.4229736328125,853.0191650390625,717.2890625,606.9317016601562,598.1931762695312,699.515380859375,565.3300170898438,427.4114074707031,726.05419921875,552.4974975585938,233.7915802001953,786.4495849609375,451.07928466796875,157.71640014648438,751.779052734375,718.3987426757812,179.09681701660156,1038.8470458984375,566.6721801757812,796.3203125,1007.5796508789062,546.1058959960938,589.4664306640625,1016.9340209960938,445.99542236328125,504.29949951171875,968.4793090820312,293.44189453125,357.451171875,891.510498046875,211.62600708007812,368.31341552734375,965.8984985351562,376.57177734375,172.62904357910156,0.0,0.0,0.0,0.0,0.0,0.0,0.0,0.0,0.0,0.0,0.0,0.0,1.0,0.0,0.0,0.0,0.0,0.0,0.0,0.0,0.0,0.0,0.0,0.0,0.0,1.0,0.0,0.0,0.0,0.0,0.0,0.0,0.0,0.0,0.0,0.0,0.0,0.0,1.0,0.0,0.0,0.0,0.0,0.0,0.0,0.0,0.0,0.0,0.0,0.0,0.0,1.0,0.0,0.0,0.0,0.0,0.0,0.0,0.0,0.0,0.0,0.0,0.0,0.0,1.0,0.0,0.0,0.0,0.0,0.0,0.0,0.0,0.0,0.0,0.0,0.0,0.0,1.0,0.0,0.0,0.0,0.0,0.0,0.0,0.0,0.0,0.0,0.0,0.0,0.0,1.0,0,0,0,0,0,0,0,0,0,0,0,0,0,0,0,0,0,0,0,0,0,0,0,0,0,0,0,0,0,0,0,0,0,0,0,0
1777353601.9990363,173,1777353584.6440802,,,0,0,,,0,0,0.0,0.0,0.0,0.0,0.0,0.0,0.0,0.0,0.0,0.0,0.0,0.0,0.0,0.0,0.0,0.0,0.0,0.0,0.0,0.0,0.0,0.0,0.0,0.0,0.0,0.0,0.0,724.5361938476562,624.3085327148438,1115.9378662109375,976.0015869140625,613.5410766601562,1118.0543212890625,745.8570556640625,439.57720947265625,1145.30322265625,905.1566772460938,412.4920349121094,1145.2628173828125,663.175537109375,553.6398315429688,852.734375,717.2391967773438,602.9891357421875,597.6804809570312,699.645751953125,560.1373291015625,427.2528076171875,726.25244140625,545.38916015625,233.9872283935547,786.6668090820312,443.6645202636719,157.94313049316406,751.9639892578125,711.0156860351562,178.97796630859375,1039.1241455078125,569.1510620117188,798.1260375976562,1008.5853881835938,553.894287109375,592.07568359375,1017.1035766601562,453.4389953613281,507.9102478027344,967.4916381835938,300.1493835449219,362.1635437011719,888.6570434570312,219.76608276367188,373.19677734375,968.448974609375,382.04052734375,176.21823120117188,0.0,0.0,0.0,0.0,0.0,0.0,0.0,0.0,0.0,0.0,0.0,0.0,1.0,0.0,0.0,0.0,0.0,0.0,0.0,0.0,0.0,0.0,0.0,0.0,0.0,1.0,0.0,0.0,0.0,0.0,0.0,0.0,0.0,0.0,0.0,0.0,0.0,0.0,1.0,0.0,0.0,0.0,0.0,0.0,0.0,0.0,0.0,0.0,0.0,0.0,0.0,1.0,0.0,0.0,0.0,0.0,0.0,0.0,0.0,0.0,0.0,0.0,0.0,0.0,1.0,0.0,0.0,0.0,0.0,0.0,0.0,0.0,0.0,0.0,0.0,0.0,0.0,1.0,0.0,0.0,0.0,0.0,0.0,0.0,0.0,0.0,0.0,0.0,0.0,0.0,1.0,0,0,0,0,0,0,0,0,0,0,0,0,0,0,0,0,0,0,0,0,0,0,0,0,0,0,0,0,0,0,0,0,0,0,0,0
1777353601.9990363,174,1777353584.6566122,,,0,0,,,0,0,0.0,0.0,0.0,0.0,0.0,0.0,0.0,0.0,0.0,0.0,0.0,0.0,0.0,0.0,0.0,0.0,0.0,0.0,0.0,0.0,0.0,0.0,0.0,0.0,0.0,0.0,0.0,724.0232543945312,623.783935546875,1115.9913330078125,975.4646606445312,612.240966796875,1118.481201171875,744.7593994140625,439.11859130859375,1145.66162109375,903.9329833984375,411.414306640625,1145.786376953125,662.5335083007812,551.798583984375,852.4811401367188,717.2357177734375,599.007568359375,597.2328491210938,699.7755737304688,554.9071044921875,427.17340087890625,726.4336547851562,538.2537231445312,234.22666931152344,786.8812866210938,436.2213439941406,158.1971435546875,752.135986328125,703.5987548828125,178.8931427001953,1039.36328125,571.5214233398438,800.13134765625,1009.4320068359375,561.3372192382812,594.763427734375,1017.0728759765625,460.796875,511.2120361328125,966.3191528320312,307.32855224609375,365.9544982910156,885.5718383789062,227.84283447265625,375.84796142578125,971.1138916015625,389.2925109863281,180.2643585205078,0.0,0.0,0.0,0.0,0.0,0.0,0.0,0.0,0.0,0.0,0.0,0.0,1.0,0.0,0.0,0.0,0.0,0.0,0.0,0.0,0.0,0.0,0.0,0.0,0.0,1.0,0.0,0.0,0.0,0.0,0.0,0.0,0.0,0.0,0.0,0.0,0.0,0.0,1.0,0.0,0.0,0.0,0.0,0.0,0.0,0.0,0.0,0.0,0.0,0.0,0.0,1.0,0.0,0.0,0.0,0.0,0.0,0.0,0.0,0.0,0.0,0.0,0.0,0.0,1.0,0.0,0.0,0.0,0.0,0.0,0.0,0.0,0.0,0.0,0.0,0.0,0.0,1.0,0.0,0.0,0.0,0.0,0.0,0.0,0.0,0.0,0.0,0.0,0.0,0.0,1.0,0,0,0,0,0,0,0,0,0,0,0,0,0,0,0,0,0,0,0,0,0,0,0,0,0,0,0,0,0,0,0,0,0,0,0,0
1777353601.9990363,175,1777353584.6670964,,,0,0,,,0,0,0.0,0.0,0.0,0.0,0.0,0.0,0.0,0.0,0.0,0.0,0.0,0.0,0.0,0.0,0.0,0.0,0.0,0.0,0.0,0.0,0.0,0.0,0.0,0.0,0.0,0.0,0.0,723.5723266601562,623.1362915039062,1116.033203125,974.9891357421875,610.9089965820312,1118.9373779296875,743.76416015625,438.54364013671875,1146.0234375,902.8170776367188,410.2793884277344,1146.3460693359375,662.00146484375,549.9016723632812,852.26611328125,717.2739868164062,594.9771118164062,596.8525390625,699.9140014648438,549.6163940429688,427.1721496582031,726.61083984375,531.089599609375,234.50503540039062,787.0953369140625,428.7568054199219,158.4756317138672,752.2963256835938,696.1502685546875,178.8330535888672,1039.5616455078125,573.795166015625,802.3331298828125,1010.119140625,568.4186401367188,597.487060546875,1016.8713989257812,468.0660400390625,514.1316528320312,965.0318603515625,314.9998474121094,368.7265930175781,882.4066162109375,235.97750854492188,376.4178771972656,973.8457641601562,398.2525939941406,184.45977783203125,0.0,0.0,0.0,0.0,0.0,0.0,0.0,0.0,0.0,0.0,0.0,0.0,1.0,0.0,0.0,0.0,0.0,0.0,0.0,0.0,0.0,0.0,0.0,0.0,0.0,1.0,0.0,0.0,0.0,0.0,0.0,0.0,0.0,0.0,0.0,0.0,0.0,0.0,1.0,0.0,0.0,0.0,0.0,0.0,0.0,0.0,0.0,0.0,0.0,0.0,0.0,1.0,0.0,0.0,0.0,0.0,0.0,0.0,0.0,0.0,0.0,0.0,0.0,0.0,1.0,0.0,0.0,0.0,0.0,0.0,0.0,0.0,0.0,0.0,0.0,0.0,0.0,1.0,0.0,0.0,0.0,0.0,0.0,0.0,0.0,0.0,0.0,0.0,0.0,0.0,1.0,0,0,0,0,0,0,0,0,0,0,0,0,0,0,0,0,0,0,0,0,0,0,0,0,0,0,0,0,0,0,0,0,0,0,0,0
1777353601.9990363,176,1777353584.6795344,,,0,0,,,0,0,0.0,0.0,0.0,0.0,0.0,0.0,0.0,0.0,0.0,0.0,0.0,0.0,0.0,0.0,0.0,0.0,0.0,0.0,0.0,0.0,0.0,0.0,0.0,0.0,0.0,0.0,0.0,723.1793823242188,622.37744140625,1116.0704345703125,974.5723876953125,609.5526733398438,1119.427001953125,742.8716430664062,437.8617248535156,1146.3914794921875,901.8104858398438,409.0954284667969,1146.9403076171875,661.5702514648438,547.9458618164062,852.091552734375,717.3477783203125,590.8856201171875,596.5380859375,700.0689086914062,544.2452392578125,427.243896484375,726.7964477539062,523.8970336914062,234.81581115722656,787.3115234375,421.28155517578125,158.7737579345703,752.4464721679688,688.6741333007812,178.78839111328125,1039.718994140625,575.9798583984375,804.7190551757812,1010.6512451171875,575.1281127929688,600.2020263671875,1016.5352172851562,475.2490539550781,516.604248046875,963.7028198242188,323.1817626953125,370.4085388183594,879.3170776367188,244.32838439941406,375.11920166015625,976.5794067382812,408.7853088378906,188.48703002929688,0.0,0.0,0.0,0.0,0.0,0.0,0.0,0.0,0.0,0.0,0.0,0.0,1.0,0.0,0.0,0.0,0.0,0.0,0.0,0.0,0.0,0.0,0.0,0.0,0.0,1.0,0.0,0.0,0.0,0.0,0.0,0.0,0.0,0.0,0.0,0.0,0.0,0.0,1.0,0.0,0.0,0.0,0.0,0.0,0.0,0.0,0.0,0.0,0.0,0.0,0.0,1.0,0.0,0.0,0.0,0.0,0.0,0.0,0.0,0.0,0.0,0.0,0.0,0.0,1.0,0.0,0.0,0.0,0.0,0.0,0.0,0.0,0.0,0.0,0.0,0.0,0.0,1.0,0.0,0.0,0.0,0.0,0.0,0.0,0.0,0.0,0.0,0.0,0.0,0.0,1.0,0,0,0,0,0,0,0,0,0,0,0,0,0,0,0,0,0,0,0,0,0,0,0,0,0,0,0,0,0,0,0,0,0,0,0,0
1777353601.9990363,177,1777353584.6921346,,,0,0,,,0,0,0.0,0.0,0.0,0.0,0.0,0.0,0.0,0.0,0.0,0.0,0.0,0.0,0.0,0.0,0.0,0.0,0.0,0.0,0.0,0.0,0.0,0.0,0.0,0.0,0.0,0.0,0.0,722.8406982421875,621.5199584960938,1116.1080322265625,974.2117309570312,608.1790161132812,1119.9500732421875,742.08154296875,437.0828857421875,1146.7674560546875,900.913818359375,407.8708801269531,1147.5657958984375,661.2296142578125,545.9237060546875,851.9560546875,717.4501342773438,586.7207641601562,596.2847900390625,700.2457275390625,538.7788696289062,427.3800964355469,727.0011596679688,516.6782836914062,235.15150451660156,787.5326538085938,413.8079528808594,159.08517456054688,752.5885620117188,681.1753540039062,178.7509002685547,1039.8385009765625,578.07763671875,807.2673950195312,1011.0374755859375,581.458251953125,602.8626708984375,1016.1038818359375,482.3507995605469,518.575927734375,962.403564453125,331.8878173828125,370.9571228027344,876.4491577148438,253.0526885986328,372.18109130859375,979.2399291992188,420.7287292480469,192.06478881835938,0.0,0.0,0.0,0.0,0.0,0.0,0.0,0.0,0.0,0.0,0.0,0.0,1.0,0.0,0.0,0.0,0.0,0.0,0.0,0.0,0.0,0.0,0.0,0.0,0.0,1.0,0.0,0.0,0.0,0.0,0.0,0.0,0.0,0.0,0.0,0.0,0.0,0.0,1.0,0.0,0.0,0.0,0.0,0.0,0.0,0.0,0.0,0.0,0.0,0.0,0.0,1.0,0.0,0.0,0.0,0.0,0.0,0.0,0.0,0.0,0.0,0.0,0.0,0.0,1.0,0.0,0.0,0.0,0.0,0.0,0.0,0.0,0.0,0.0,0.0,0.0,0.0,1.0,0.0,0.0,0.0,0.0,0.0,0.0,0.0,0.0,0.0,0.0,0.0,0.0,1.0,0,0,0,0,0,0,0,0,0,0,0,0,0,0,0,0,0,0,0,0,0,0,0,0,0,0,0,0,0,0,0,0,0,0,0,0
1777353601.9990363,178,1777353584.704945,,,0,0,,,0,0,0.0,0.0,0.0,0.0,0.0,0.0,0.0,0.0,0.0,0.0,0.0,0.0,0.0,0.0,0.0,0.0,0.0,0.0,0.0,0.0,0.0,0.0,0.0,0.0,0.0,0.0,0.0,722.5523681640625,620.5761108398438,1116.147705078125,973.9041137695312,606.7952270507812,1120.5025634765625,741.39306640625,436.21759033203125,1147.15234375,900.12744140625,406.6145935058594,1148.2178955078125,660.969482421875,543.8253173828125,851.8548583984375,717.573486328125,582.471923828125,596.0852661132812,700.4473266601562,533.2093505859375,427.5696716308594,727.2332153320312,509.43682861328125,235.50424194335938,787.7613525390625,406.3469543457031,159.40283203125,752.7250366210938,673.6591796875,178.7139892578125,1039.926513671875,580.084228515625,809.9468994140625,1011.2907104492188,587.4032592773438,605.4232177734375,1015.6176147460938,489.3764953613281,520.0056762695312,961.1998901367188,341.1256103515625,370.3569030761719,873.9300537109375,262.27899169921875,367.81341552734375,981.7520141601562,433.9253234863281,194.98158264160156,0.0,0.0,0.0,0.0,0.0,0.0,0.0,0.0,0.0,0.0,0.0,0.0,1.0,0.0,0.0,0.0,0.0,0.0,0.0,0.0,0.0,0.0,0.0,0.0,0.0,1.0,0.0,0.0,0.0,0.0,0.0,0.0,0.0,0.0,0.0,0.0,0.0,0.0,1.0,0.0,0.0,0.0,0.0,0.0,0.0,0.0,0.0,0.0,0.0,0.0,0.0,1.0,0.0,0.0,0.0,0.0,0.0,0.0,0.0,0.0,0.0,0.0,0.0,0.0,1.0,0.0,0.0,0.0,0.0,0.0,0.0,0.0,0.0,0.0,0.0,0.0,0.0,1.0,0.0,0.0,0.0,0.0,0.0,0.0,0.0,0.0,0.0,0.0,0.0,0.0,1.0,0,0,0,0,0,0,0,0,0,0,0,0,0,0,0,0,0,0,0,0,0,0,0,0,0,0,0,0,0,0,0,0,0,0,0,0
1777353601.9990363,179,1777353584.7101514,,,0,0,,,0,0,0.0,0.0,0.0,0.0,0.0,0.0,0.0,0.0,0.0,0.0,0.0,0.0,0.0,0.0,0.0,0.0,0.0,0.0,0.0,0.0,0.0,0.0,0.0,0.0,0.0,0.0,0.0,722.3104858398438,619.557861328125,1116.1885986328125,973.646240234375,605.4087524414062,1121.0765380859375,740.8052368164062,435.2763366699219,1147.546142578125,899.4510498046875,405.33575439453125,1148.8902587890625,660.7806396484375,541.6403198242188,851.7810668945312,717.7100219726562,578.1310424804688,595.93017578125,700.6738891601562,527.5348510742188,427.800048828125,727.4977416992188,502.1767883300781,235.8663330078125,787.9999389648438,398.9049987792969,159.7205810546875,752.8590698242188,666.1309204101562,178.673095703125,1039.9912109375,581.9893798828125,812.7180786132812,1011.4267578125,592.956787109375,607.8381958007812,1015.1148681640625,496.3301086425781,520.8650512695312,960.148681640625,350.8980712890625,368.6182556152344,871.8616333007812,272.09423828125,362.18609619140625,984.0484008789062,448.2428283691406,197.11268615722656,0.0,0.0,0.0,0.0,0.0,0.0,0.0,0.0,0.0,0.0,0.0,0.0,1.0,0.0,0.0,0.0,0.0,0.0,0.0,0.0,0.0,0.0,0.0,0.0,0.0,1.0,0.0,0.0,0.0,0.0,0.0,0.0,0.0,0.0,0.0,0.0,0.0,0.0,1.0,0.0,0.0,0.0,0.0,0.0,0.0,0.0,0.0,0.0,0.0,0.0,0.0,1.0,0.0,0.0,0.0,0.0,0.0,0.0,0.0,0.0,0.0,0.0,0.0,0.0,1.0,0.0,0.0,0.0,0.0,0.0,0.0,0.0,0.0,0.0,0.0,0.0,0.0,1.0,0.0,0.0,0.0,0.0,0.0,0.0,0.0,0.0,0.0,0.0,0.0,0.0,1.0,0,0,0,0,0,0,0,0,0,0,0,0,0,0,0,0,0,0,0,0,0,0,0,0,0,0,0,0,0,0,0,0,0,0,0,0
1777353601.9990363,180,1777353584.7152898,,,0,0,,,0,0,0.0,0.0,0.0,0.0,0.0,0.0,0.0,0.0,0.0,0.0,0.0,0.0,0.0,0.0,0.0,0.0,0.0,0.0,0.0,0.0,0.0,0.0,0.0,0.0,0.0,0.0,0.0,722.1113891601562,618.4762573242188,1116.227294921875,973.4346313476562,604.0274658203125,1121.6605224609375,740.31689453125,434.2695007324219,1147.9476318359375,898.8845825195312,404.0438537597656,1149.574951171875,660.6555786132812,539.3592529296875,851.7265014648438,717.8524169921875,573.6934204101562,595.8088989257812,700.9237060546875,521.7595825195312,428.05804443359375,727.7970581054688,494.90234375,236.23069763183594,788.2496948242188,391.4814147949219,160.0350799560547,752.9937744140625,658.594970703125,178.62571716308594,1040.04296875,583.7774047851562,815.5345458984375,1011.4631958007812,598.1116333007812,610.0629272460938,1014.6305541992188,503.21441650390625,521.1377563476562,959.2953491210938,361.20587158203125,365.7743835449219,870.3165283203125,282.54498291015625,355.42462158203125,986.0773315429688,463.5820007324219,198.4199981689453,0.0,0.0,0.0,0.0,0.0,0.0,0.0,0.0,0.0,0.0,0.0,0.0,1.0,0.0,0.0,0.0,0.0,0.0,0.0,0.0,0.0,0.0,0.0,0.0,0.0,1.0,0.0,0.0,0.0,0.0,0.0,0.0,0.0,0.0,0.0,0.0,0.0,0.0,1.0,0.0,0.0,0.0,0.0,0.0,0.0,0.0,0.0,0.0,0.0,0.0,0.0,1.0,0.0,0.0,0.0,0.0,0.0,0.0,0.0,0.0,0.0,0.0,0.0,0.0,1.0,0.0,0.0,0.0,0.0,0.0,0.0,0.0,0.0,0.0,0.0,0.0,0.0,1.0,0.0,0.0,0.0,0.0,0.0,0.0,0.0,0.0,0.0,0.0,0.0,0.0,1.0,0,0,0,0,0,0,0,0,0,0,0,0,0,0,0,0,0,0,0,0,0,0,0,0,0,0,0,0,0,0,0,0,0,0,0,0
1777353601.9990363,181,1777353584.7270186,,,0,0,,,0,0,0.0,0.0,0.0,0.0,0.0,0.0,0.0,0.0,0.0,0.0,0.0,0.0,0.0,0.0,0.0,0.0,0.0,0.0,0.0,0.0,0.0,0.0,0.0,0.0,0.0,0.0,0.0,721.9512939453125,617.3416137695312,1116.2578125,973.265625,602.6600341796875,1122.2401123046875,739.9271850585938,433.2071533203125,1148.354248046875,898.4278564453125,402.7488098144531,1150.26318359375,660.5886840820312,536.9752197265625,851.682373046875,717.9940185546875,569.1575317382812,595.7102661132812,701.1934204101562,515.891845703125,428.33062744140625,728.1304931640625,487.61724853515625,236.5915069580078,788.5104370117188,384.06671142578125,160.34719848632812,753.1319580078125,651.0548706054688,178.57106018066406,1040.092041015625,585.4287719726562,818.3453369140625,1011.4183349609375,602.8591918945312,612.0545043945312,1014.194580078125,510.0315856933594,520.8178100585938,958.673095703125,372.0506286621094,361.8777770996094,869.3355102539062,293.648681640625,347.61846923828125,987.8081665039062,479.8728332519531,198.9388427734375,0.0,0.0,0.0,0.0,0.0,0.0,0.0,0.0,0.0,0.0,0.0,0.0,1.0,0.0,0.0,0.0,0.0,0.0,0.0,0.0,0.0,0.0,0.0,0.0,0.0,1.0,0.0,0.0,0.0,0.0,0.0,0.0,0.0,0.0,0.0,0.0,0.0,0.0,1.0,0.0,0.0,0.0,0.0,0.0,0.0,0.0,0.0,0.0,0.0,0.0,0.0,1.0,0.0,0.0,0.0,0.0,0.0,0.0,0.0,0.0,0.0,0.0,0.0,0.0,1.0,0.0,0.0,0.0,0.0,0.0,0.0,0.0,0.0,0.0,0.0,0.0,0.0,1.0,0.0,0.0,0.0,0.0,0.0,0.0,0.0,0.0,0.0,0.0,0.0,0.0,1.0,0,0,0,0,0,0,0,0,0,0,0,0,0,0,0,0,0,0,0,0,0,0,0,0,0,0,0,0,0,0,0,0,0,0,0,0
1777353601.9990363,182,1777353584.7397993,,,0,0,,,0,0,0.0,0.0,0.0,0.0,0.0,0.0,0.0,0.0,0.0,0.0,0.0,0.0,0.0,0.0,0.0,0.0,0.0,0.0,0.0,0.0,0.0,0.0,0.0,0.0,0.0,0.0,0.0,721.82666015625,616.1631469726562,1116.2728271484375,973.1354370117188,601.3157958984375,1122.7989501953125,739.6354370117188,432.0989685058594,1148.7628173828125,898.0809326171875,401.4607238769531,1150.94482421875,660.5759887695312,534.484375,851.6404418945312,718.1293334960938,564.5252685546875,595.6233520507812,701.4786987304688,509.943115234375,428.6058349609375,728.4949340820312,480.3245849609375,236.94439697265625,788.7801513671875,376.64398193359375,160.66184997558594,753.2759399414062,643.51318359375,178.50967407226562,1040.1488037109375,586.921630859375,821.0966186523438,1011.3099365234375,607.1900634765625,613.7722778320312,1013.8319091796875,516.78466796875,519.9076538085938,958.3027954101562,383.4375,356.9975280761719,868.9254760742188,305.4095764160156,338.8370666503906,989.2362060546875,497.0629577636719,198.75750732421875,0.0,0.0,0.0,0.0,0.0,0.0,0.0,0.0,0.0,0.0,0.0,0.0,1.0,0.0,0.0,0.0,0.0,0.0,0.0,0.0,0.0,0.0,0.0,0.0,0.0,1.0,0.0,0.0,0.0,0.0,0.0,0.0,0.0,0.0,0.0,0.0,0.0,0.0,1.0,0.0,0.0,0.0,0.0,0.0,0.0,0.0,0.0,0.0,0.0,0.0,0.0,1.0,0.0,0.0,0.0,0.0,0.0,0.0,0.0,0.0,0.0,0.0,0.0,0.0,1.0,0.0,0.0,0.0,0.0,0.0,0.0,0.0,0.0,0.0,0.0,0.0,0.0,1.0,0.0,0.0,0.0,0.0,0.0,0.0,0.0,0.0,0.0,0.0,0.0,0.0,1.0,0,0,0,0,0,0,0,0,0,0,0,0,0,0,0,0,0,0,0,0,0,0,0,0,0,0,0,0,0,0,0,0,0,0,0,0
1777353601.9990363,183,1777353584.7517467,,,0,0,,,0,0,0.0,0.0,0.0,0.0,0.0,0.0,0.0,0.0,0.0,0.0,0.0,0.0,0.0,0.0,0.0,0.0,0.0,0.0,0.0,0.0,0.0,0.0,0.0,0.0,0.0,0.0,0.0,721.7341918945312,614.9492797851562,1116.2637939453125,973.0403442382812,600.0047607421875,1123.3197021484375,739.4413452148438,430.9541931152344,1149.168701171875,897.843994140625,400.1899719238281,1151.6094970703125,660.6148681640625,531.8868408203125,851.5935668945312,718.254150390625,559.8012084960938,595.537841796875,701.7747802734375,503.9264221191406,428.87335205078125,728.88525390625,473.0265808105469,237.28668212890625,789.0551147460938,369.1945495605469,160.98617553710938,753.4273071289062,635.9716796875,178.44296264648438,1040.2220458984375,588.2333374023438,823.734375,1011.1541137695312,611.09423828125,615.1788330078125,1013.5623168945312,523.478515625,518.417236328125,958.1945190429688,395.3765563964844,351.21728515625,869.0588989257812,317.83343505859375,329.1468505859375,990.385498046875,515.10302734375,197.9961700439453,0.0,0.0,0.0,0.0,0.0,0.0,0.0,0.0,0.0,0.0,0.0,0.0,1.0,0.0,0.0,0.0,0.0,0.0,0.0,0.0,0.0,0.0,0.0,0.0,0.0,1.0,0.0,0.0,0.0,0.0,0.0,0.0,0.0,0.0,0.0,0.0,0.0,0.0,1.0,0.0,0.0,0.0,0.0,0.0,0.0,0.0,0.0,0.0,0.0,0.0,0.0,1.0,0.0,0.0,0.0,0.0,0.0,0.0,0.0,0.0,0.0,0.0,0.0,0.0,1.0,0.0,0.0,0.0,0.0,0.0,0.0,0.0,0.0,0.0,0.0,0.0,0.0,1.0,0.0,0.0,0.0,0.0,0.0,0.0,0.0,0.0,0.0,0.0,0.0,0.0,1.0,0,0,0,0,0,0,0,0,0,0,0,0,0,0,0,0,0,0,0,0,0,0,0,0,0,0,0,0,0,0,0,0,0,0,0,0
1777353601.9990363,184,1777353584.761318,,,0,0,,,0,0,0.0,0.0,0.0,0.0,0.0,0.0,0.0,0.0,0.0,0.0,0.0,0.0,0.0,0.0,0.0,0.0,0.0,0.0,0.0,0.0,0.0,0.0,0.0,0.0,0.0,0.0,0.0,721.6707153320312,613.7073974609375,1116.2215576171875,972.9769897460938,598.7374267578125,1123.7847900390625,739.3447875976562,429.78167724609375,1149.5665283203125,897.7175903320312,398.9470520019531,1152.2459716796875,660.7035522460938,529.1860961914062,851.5357666015625,718.3661499023438,554.9924926757812,595.4447631835938,702.0767211914062,497.85504150390625,429.125,729.2950439453125,465.7248840332031,237.6172332763672,789.3310546875,361.7054443359375,161.32582092285156,753.5870361328125,628.4319458007812,178.37266540527344,1040.3197021484375,589.3418579101562,826.205810546875,1010.9645385742188,614.56201171875,616.2413940429688,1013.4011840820312,530.1204833984375,516.3632202148438,958.34912109375,407.8824768066406,344.6339111328125,869.6751708984375,330.9378356933594,318.6256408691406,991.3094482421875,533.9345703125,196.78919982910156,0.0,0.0,0.0,0.0,0.0,0.0,0.0,0.0,0.0,0.0,0.0,0.0,1.0,0.0,0.0,0.0,0.0,0.0,0.0,0.0,0.0,0.0,0.0,0.0,0.0,1.0,0.0,0.0,0.0,0.0,0.0,0.0,0.0,0.0,0.0,0.0,0.0,0.0,1.0,0.0,0.0,0.0,0.0,0.0,0.0,0.0,0.0,0.0,0.0,0.0,0.0,1.0,0.0,0.0,0.0,0.0,0.0,0.0,0.0,0.0,0.0,0.0,0.0,0.0,1.0,0.0,0.0,0.0,0.0,0.0,0.0,0.0,0.0,0.0,0.0,0.0,0.0,1.0,0.0,0.0,0.0,0.0,0.0,0.0,0.0,0.0,0.0,0.0,0.0,0.0,1.0,0,0,0,0,0,0,0,0,0,0,0,0,0,0,0,0,0,0,0,0,0,0,0,0,0,0,0,0,0,0,0,0,0,0,0,0
1777353601.9990363,185,1777353584.776684,,,0,0,,,0,0,0.0,0.0,0.0,0.0,0.0,0.0,0.0,0.0,0.0,0.0,0.0,0.0,0.0,0.0,0.0,0.0,0.0,0.0,0.0,0.0,0.0,0.0,0.0,0.0,0.0,0.0,0.0,721.6338500976562,612.4443969726562,1116.137451171875,972.9421997070312,597.5247192382812,1124.177490234375,739.3461303710938,428.5898742675781,1149.9500732421875,897.7022094726562,397.7425231933594,1152.8431396484375,660.8406982421875,526.3890991210938,851.4627685546875,718.4645385742188,550.108154296875,595.3367309570312,702.3802490234375,491.74163818359375,429.3551025390625,729.7175903320312,458.4205322265625,237.93614196777344,789.6047973632812,354.1726379394531,161.68199157714844,753.7557983398438,620.895751953125,178.30018615722656,1040.4481201171875,590.2272338867188,828.4613037109375,1010.7513427734375,617.58447265625,616.9326171875,1013.3595581054688,536.7199096679688,513.7700805664062,958.760498046875,420.9726867675781,337.3570251464844,870.686279296875,344.7564392089844,307.3714294433594,992.0869140625,553.4822998046875,195.2733612060547,0.0,0.0,0.0,0.0,0.0,0.0,0.0,0.0,0.0,0.0,0.0,0.0,1.0,0.0,0.0,0.0,0.0,0.0,0.0,0.0,0.0,0.0,0.0,0.0,0.0,1.0,0.0,0.0,0.0,0.0,0.0,0.0,0.0,0.0,0.0,0.0,0.0,0.0,1.0,0.0,0.0,0.0,0.0,0.0,0.0,0.0,0.0,0.0,0.0,0.0,0.0,1.0,0.0,0.0,0.0,0.0,0.0,0.0,0.0,0.0,0.0,0.0,0.0,0.0,1.0,0.0,0.0,0.0,0.0,0.0,0.0,0.0,0.0,0.0,0.0,0.0,0.0,1.0,0.0,0.0,0.0,0.0,0.0,0.0,0.0,0.0,0.0,0.0,0.0,0.0,1.0,0,0,0,0,0,0,0,0,0,0,0,0,0,0,0,0,0,0,0,0,0,0,0,0,0,0,0,0,0,0,0,0,0,0,0,0
1777353601.9990363,186,1777353584.777332,,,0,0,,,0,0,0.0,0.0,0.0,0.0,0.0,0.0,0.0,0.0,0.0,0.0,0.0,0.0,0.0,0.0,0.0,0.0,0.0,0.0,0.0,0.0,0.0,0.0,0.0,0.0,0.0,0.0,0.0,721.62158203125,611.166748046875,1116.0030517578125,972.9335327148438,596.377685546875,1124.4822998046875,739.4456787109375,427.3869934082031,1150.3126220703125,897.7985229492188,396.5867919921875,1153.3896484375,661.0250854492188,523.5053100585938,851.37158203125,718.55029296875,545.1588745117188,595.2081298828125,702.6824340820312,485.5976257324219,429.5601806640625,730.146728515625,451.1144104003906,238.2443084716797,789.8760375976562,346.6004333496094,162.0508575439453,753.9335327148438,613.3654174804688,178.2262420654297,1040.6124267578125,590.8726196289062,830.4554443359375,1010.521240234375,620.1539916992188,617.2319946289062,1013.4439697265625,543.28662109375,510.6708679199219,959.4177856445312,434.66412353515625,329.5083923339844,871.9856567382812,359.3368835449219,295.5057373046875,992.8134155273438,573.653564453125,193.58265686035156,0.0,0.0,0.0,0.0,0.0,0.0,0.0,0.0,0.0,0.0,0.0,0.0,1.0,0.0,0.0,0.0,0.0,0.0,0.0,0.0,0.0,0.0,0.0,0.0,0.0,1.0,0.0,0.0,0.0,0.0,0.0,0.0,0.0,0.0,0.0,0.0,0.0,0.0,1.0,0.0,0.0,0.0,0.0,0.0,0.0,0.0,0.0,0.0,0.0,0.0,0.0,1.0,0.0,0.0,0.0,0.0,0.0,0.0,0.0,0.0,0.0,0.0,0.0,0.0,1.0,0.0,0.0,0.0,0.0,0.0,0.0,0.0,0.0,0.0,0.0,0.0,0.0,1.0,0.0,0.0,0.0,0.0,0.0,0.0,0.0,0.0,0.0,0.0,0.0,0.0,1.0,0,0,0,0,0,0,0,0,0,0,0,0,0,0,0,0,0,0,0,0,0,0,0,0,0,0,0,0,0,0,0,0,0,0,0,0
1777353601.9990363,187,1777353584.7878451,,,0,0,,,0,0,0.0,0.0,0.0,0.0,0.0,0.0,0.0,0.0,0.0,0.0,0.0,0.0,0.0,0.0,0.0,0.0,0.0,0.0,0.0,0.0,0.0,0.0,0.0,0.0,0.0,0.0,0.0,721.6325073242188,609.8806762695312,1115.811279296875,972.9490356445312,595.30712890625,1124.6864013671875,739.64404296875,426.1811218261719,1150.6466064453125,898.007080078125,395.4901123046875,1153.8746337890625,661.2555541992188,520.5463256835938,851.260498046875,718.6259765625,540.1564331054688,595.0551147460938,702.9818725585938,479.43310546875,429.7391357421875,730.57763671875,443.8072814941406,238.54306030273438,790.1466674804688,338.9991455078125,162.425048828125,754.1193237304688,605.8436889648438,178.15065002441406,1040.8165283203125,591.26513671875,832.1486206054688,1010.2770385742188,622.264892578125,617.1270751953125,1013.6560668945312,549.828369140625,507.1094665527344,960.3070068359375,448.9690856933594,321.22137451171875,873.4619140625,374.7334899902344,283.1720275878906,993.588623046875,594.3428344726562,191.84950256347656,0.0,0.0,0.0,0.0,0.0,0.0,0.0,0.0,0.0,0.0,0.0,0.0,1.0,0.0,0.0,0.0,0.0,0.0,0.0,0.0,0.0,0.0,0.0,0.0,0.0,1.0,0.0,0.0,0.0,0.0,0.0,0.0,0.0,0.0,0.0,0.0,0.0,0.0,1.0,0.0,0.0,0.0,0.0,0.0,0.0,0.0,0.0,0.0,0.0,0.0,0.0,1.0,0.0,0.0,0.0,0.0,0.0,0.0,0.0,0.0,0.0,0.0,0.0,0.0,1.0,0.0,0.0,0.0,0.0,0.0,0.0,0.0,0.0,0.0,0.0,0.0,0.0,1.0,0.0,0.0,0.0,0.0,0.0,0.0,0.0,0.0,0.0,0.0,0.0,0.0,1.0,0,0,0,0,0,0,0,0,0,0,0,0,0,0,0,0,0,0,0,0,0,0,0,0,0,0,0,0,0,0,0,0,0,0,0,0
1777353601.9990363,188,1777353584.7991478,,,0,0,,,0,0,0.0,0.0,0.0,0.0,0.0,0.0,0.0,0.0,0.0,0.0,0.0,0.0,0.0,0.0,0.0,0.0,0.0,0.0,0.0,0.0,0.0,0.0,0.0,0.0,0.0,0.0,0.0,721.6660766601562,608.59228515625,1115.5562744140625,972.9876098632812,594.3236083984375,1124.77880859375,739.9417724609375,424.9802551269531,1150.9444580078125,898.3283081054688,394.46234130859375,1154.2877197265625,661.5308227539062,517.525146484375,851.1286010742188,718.6953125,535.113525390625,594.8758544921875,703.2792358398438,473.2568359375,429.8926696777344,731.0071411132812,436.5000915527344,238.83416748046875,790.419189453125,331.3815612792969,162.79641723632812,754.3108520507812,598.3327026367188,178.07276916503906,1041.0635986328125,591.3967895507812,833.5072631835938,1010.01806640625,623.9137573242188,616.6141967773438,1013.9915771484375,556.347900390625,503.141357421875,961.4122924804688,463.89056396484375,312.63970947265625,875.0145263671875,390.9964904785156,270.53076171875,994.5015869140625,615.439697265625,190.21055603027344,0.0,0.0,0.0,0.0,0.0,0.0,0.0,0.0,0.0,0.0,0.0,0.0,1.0,0.0,0.0,0.0,0.0,0.0,0.0,0.0,0.0,0.0,0.0,0.0,0.0,1.0,0.0,0.0,0.0,0.0,0.0,0.0,0.0,0.0,0.0,0.0,0.0,0.0,1.0,0.0,0.0,0.0,0.0,0.0,0.0,0.0,0.0,0.0,0.0,0.0,0.0,1.0,0.0,0.0,0.0,0.0,0.0,0.0,0.0,0.0,0.0,0.0,0.0,0.0,1.0,0.0,0.0,0.0,0.0,0.0,0.0,0.0,0.0,0.0,0.0,0.0,0.0,1.0,0.0,0.0,0.0,0.0,0.0,0.0,0.0,0.0,0.0,0.0,0.0,0.0,1.0,0,0,0,0,0,0,0,0,0,0,0,0,0,0,0,0,0,0,0,0,0,0,0,0,0,0,0,0,0,0,0,0,0,0,0,0
1777353601.9990363,189,1777353584.8093493,,,0,0,,,0,0,0.0,0.0,0.0,0.0,0.0,0.0,0.0,0.0,0.0,0.0,0.0,0.0,0.0,0.0,0.0,0.0,0.0,0.0,0.0,0.0,0.0,0.0,0.0,0.0,0.0,0.0,0.0,721.722412109375,607.30810546875,1115.23388671875,973.0487060546875,593.4370727539062,1124.7518310546875,740.33935546875,423.79241943359375,1151.1978759765625,898.762451171875,393.51300048828125,1154.618896484375,661.8495483398438,514.4560546875,850.9755859375,718.7631225585938,530.0433959960938,594.6700439453125,703.5769653320312,467.0766906738281,430.0231628417969,731.4338989257812,429.1940002441406,239.119873046875,790.6958618164062,323.76068115234375,163.15814208984375,754.5048217773438,590.8335571289062,177.99197387695312,1041.3563232421875,591.264892578125,834.504638671875,1009.7408447265625,625.1002807617188,615.69921875,1014.4398803710938,562.8404541015625,498.834228515625,962.7164306640625,479.4172668457031,303.91558837890625,876.5703735351562,408.1594543457031,257.75335693359375,995.6157836914062,636.8367919921875,188.81289672851562,0.0,0.0,0.0,0.0,0.0,0.0,0.0,0.0,0.0,0.0,0.0,0.0,1.0,0.0,0.0,0.0,0.0,0.0,0.0,0.0,0.0,0.0,0.0,0.0,0.0,1.0,0.0,0.0,0.0,0.0,0.0,0.0,0.0,0.0,0.0,0.0,0.0,0.0,1.0,0.0,0.0,0.0,0.0,0.0,0.0,0.0,0.0,0.0,0.0,0.0,0.0,1.0,0.0,0.0,0.0,0.0,0.0,0.0,0.0,0.0,0.0,0.0,0.0,0.0,1.0,0.0,0.0,0.0,0.0,0.0,0.0,0.0,0.0,0.0,0.0,0.0,0.0,1.0,0.0,0.0,0.0,0.0,0.0,0.0,0.0,0.0,0.0,0.0,0.0,0.0,1.0,0,0,0,0,0,0,0,0,0,0,0,0,0,0,0,0,0,0,0,0,0,0,0,0,0,0,0,0,0,0,0,0,0,0,0,0
1777353601.9990363,190,1777353584.8213491,,,0,0,,,0,0,0.0,0.0,0.0,0.0,0.0,0.0,0.0,0.0,0.0,0.0,0.0,0.0,0.0,0.0,0.0,0.0,0.0,0.0,0.0,0.0,0.0,0.0,0.0,0.0,0.0,0.0,0.0,721.8023071289062,606.0347900390625,1114.8414306640625,973.1327514648438,592.6566772460938,1124.6004638671875,740.8369750976562,422.6258544921875,1151.3988037109375,899.3092041015625,392.65106201171875,1154.859130859375,662.2103881835938,511.3541564941406,850.8013916015625,718.8347778320312,524.9597778320312,594.4388427734375,703.8787231445312,460.8998107910156,430.13433837890625,731.858154296875,421.8904724121094,239.4029541015625,790.978271484375,316.14752197265625,163.50640869140625,754.6978149414062,583.3456420898438,177.90817260742188,1041.6966552734375,590.8732299804688,835.121337890625,1009.4400024414062,625.8286743164062,614.3974609375,1014.9835205078125,569.291748046875,494.266845703125,964.2009887695312,495.5184326171875,295.2071228027344,878.0960693359375,426.22637939453125,245.015625,996.9561767578125,658.4341430664062,187.8170928955078,0.0,0.0,0.0,0.0,0.0,0.0,0.0,0.0,0.0,0.0,0.0,0.0,1.0,0.0,0.0,0.0,0.0,0.0,0.0,0.0,0.0,0.0,0.0,0.0,0.0,1.0,0.0,0.0,0.0,0.0,0.0,0.0,0.0,0.0,0.0,0.0,0.0,0.0,1.0,0.0,0.0,0.0,0.0,0.0,0.0,0.0,0.0,0.0,0.0,0.0,0.0,1.0,0.0,0.0,0.0,0.0,0.0,0.0,0.0,0.0,0.0,0.0,0.0,0.0,1.0,0.0,0.0,0.0,0.0,0.0,0.0,0.0,0.0,0.0,0.0,0.0,0.0,1.0,0.0,0.0,0.0,0.0,0.0,0.0,0.0,0.0,0.0,0.0,0.0,0.0,1.0,0,0,0,0,0,0,0,0,0,0,0,0,0,0,0,0,0,0,0,0,0,0,0,0,0,0,0,0,0,0,0,0,0,0,0,0
1777353601.9990363,191,1777353584.8334591,,,0,0,,,0,0,0.0,0.0,0.0,0.0,0.0,0.0,0.0,0.0,0.0,0.0,0.0,0.0,0.0,0.0,0.0,0.0,0.0,0.0,0.0,0.0,0.0,0.0,0.0,0.0,0.0,0.0,0.0,721.9072265625,604.77978515625,1114.3779296875,973.2407836914062,591.9908447265625,1124.3223876953125,741.434814453125,421.4890441894531,1151.5391845703125,899.9680786132812,391.8848571777344,1155.00048828125,662.6116943359375,508.2356872558594,850.6060791015625,718.915771484375,519.876953125,594.1845092773438,704.1895141601562,454.7333679199219,430.2311096191406,732.2819213867188,414.59124755859375,239.68679809570312,791.2677001953125,308.549560546875,163.84158325195312,754.8869018554688,575.8663940429688,177.82208251953125,1042.0865478515625,590.2321166992188,835.3455810546875,1009.1097412109375,626.1090698242188,612.733642578125,1015.5992431640625,575.6773681640625,489.52667236328125,965.8455200195312,512.1386108398438,286.67431640625,879.6031494140625,445.15997314453125,232.49253845214844,998.5014038085938,680.1380615234375,187.3944091796875,0.0,0.0,0.0,0.0,0.0,0.0,0.0,0.0,0.0,0.0,0.0,0.0,1.0,0.0,0.0,0.0,0.0,0.0,0.0,0.0,0.0,0.0,0.0,0.0,0.0,1.0,0.0,0.0,0.0,0.0,0.0,0.0,0.0,0.0,0.0,0.0,0.0,0.0,1.0,0.0,0.0,0.0,0.0,0.0,0.0,0.0,0.0,0.0,0.0,0.0,0.0,1.0,0.0,0.0,0.0,0.0,0.0,0.0,0.0,0.0,0.0,0.0,0.0,0.0,1.0,0.0,0.0,0.0,0.0,0.0,0.0,0.0,0.0,0.0,0.0,0.0,0.0,1.0,0.0,0.0,0.0,0.0,0.0,0.0,0.0,0.0,0.0,0.0,0.0,0.0,1.0,0,0,0,0,0,0,0,0,0,0,0,0,0,0,0,0,0,0,0,0,0,0,0,0,0,0,0,0,0,0,0,0,0,0,0,0
1777353601.9990363,192,1777353584.8344657,,,0,0,,,0,0,0.0,0.0,0.0,0.0,0.0,0.0,0.0,0.0,0.0,0.0,0.0,0.0,0.0,0.0,0.0,0.0,0.0,0.0,0.0,0.0,0.0,0.0,0.0,0.0,0.0,0.0,0.0,722.0391845703125,603.5509643554688,1113.8441162109375,973.3743896484375,591.44677734375,1123.9178466796875,742.1325073242188,420.3908386230469,1151.6107177734375,900.738037109375,391.22222900390625,1155.03564453125,663.0518188476562,505.11785888671875,850.389404296875,719.0119018554688,514.8095092773438,593.9100341796875,704.5147094726562,448.5850524902344,430.3189392089844,732.7080688476562,407.298583984375,239.97543334960938,791.5658569335938,300.9699401855469,164.16810607910156,755.0711059570312,568.3912963867188,177.73512268066406,1042.52685546875,589.3594970703125,835.173583984375,1008.7449340820312,625.9593505859375,610.7407836914062,1016.2596435546875,581.963623046875,484.70611572265625,967.6260375976562,529.19287109375,278.473876953125,881.1446533203125,464.87127685546875,220.35552978515625,1000.1826782226562,701.8554077148438,187.7171630859375,0.0,0.0,0.0,0.0,0.0,0.0,0.0,0.0,0.0,0.0,0.0,0.0,1.0,0.0,0.0,0.0,0.0,0.0,0.0,0.0,0.0,0.0,0.0,0.0,0.0,1.0,0.0,0.0,0.0,0.0,0.0,0.0,0.0,0.0,0.0,0.0,0.0,0.0,1.0,0.0,0.0,0.0,0.0,0.0,0.0,0.0,0.0,0.0,0.0,0.0,0.0,1.0,0.0,0.0,0.0,0.0,0.0,0.0,0.0,0.0,0.0,0.0,0.0,0.0,1.0,0.0,0.0,0.0,0.0,0.0,0.0,0.0,0.0,0.0,0.0,0.0,0.0,1.0,0.0,0.0,0.0,0.0,0.0,0.0,0.0,0.0,0.0,0.0,0.0,0.0,1.0,0,0,0,0,0,0,0,0,0,0,0,0,0,0,0,0,0,0,0,0,0,0,0,0,0,0,0,0,0,0,0,0,0,0,0,0
1777353601.9990363,193,1777353584.8453999,,,0,0,,,0,0,0.0,0.0,0.0,0.0,0.0,0.0,0.0,0.0,0.0,0.0,0.0,0.0,0.0,0.0,0.0,0.0,0.0,0.0,0.0,0.0,0.0,0.0,0.0,0.0,0.0,0.0,0.0,722.2007446289062,602.3570556640625,1113.2420654296875,973.5360107421875,591.031005859375,1123.389404296875,742.9296875,419.34051513671875,1151.6058349609375,901.617431640625,390.6703186035156,1154.958984375,663.5283813476562,502.019287109375,850.15087890625,719.1286010742188,509.7723388671875,593.618896484375,704.860107421875,442.46337890625,430.40374755859375,733.1403198242188,400.01531982421875,240.2734832763672,791.8748779296875,293.4081726074219,164.49298095703125,755.251953125,560.914306640625,177.64913940429688,1043.0184326171875,588.2813110351562,834.60986328125,1008.3427734375,625.4069213867188,608.4589233398438,1016.9356689453125,588.1094360351562,479.8978576660156,969.5137939453125,546.5626220703125,270.7529296875,882.8015747070312,485.2117004394531,208.7727813720703,1001.8904418945312,723.4824829101562,188.9420928955078,0.0,0.0,0.0,0.0,0.0,0.0,0.0,0.0,0.0,0.0,0.0,0.0,1.0,0.0,0.0,0.0,0.0,0.0,0.0,0.0,0.0,0.0,0.0,0.0,0.0,1.0,0.0,0.0,0.0,0.0,0.0,0.0,0.0,0.0,0.0,0.0,0.0,0.0,1.0,0.0,0.0,0.0,0.0,0.0,0.0,0.0,0.0,0.0,0.0,0.0,0.0,1.0,0.0,0.0,0.0,0.0,0.0,0.0,0.0,0.0,0.0,0.0,0.0,0.0,1.0,0.0,0.0,0.0,0.0,0.0,0.0,0.0,0.0,0.0,0.0,0.0,0.0,1.0,0.0,0.0,0.0,0.0,0.0,0.0,0.0,0.0,0.0,0.0,0.0,0.0,1.0,0,0,0,0,0,0,0,0,0,0,0,0,0,0,0,0,0,0,0,0,0,0,0,0,0,0,0,0,0,0,0,0,0,0,0,0
1777353601.9990363,194,1777353584.8561146,,,0,0,,,0,0,0.0,0.0,0.0,0.0,0.0,0.0,0.0,0.0,0.0,0.0,0.0,0.0,0.0,0.0,0.0,0.0,0.0,0.0,0.0,0.0,0.0,0.0,0.0,0.0,0.0,0.0,0.0,722.3948974609375,601.2076416015625,1112.5750732421875,973.7286376953125,590.7489013671875,1122.741943359375,743.8251953125,418.3477478027344,1151.5174560546875,902.6043090820312,390.235595703125,1154.7659912109375,664.0387573242188,498.9599914550781,849.889892578125,719.27099609375,504.7806701660156,593.3148193359375,705.231201171875,436.3780212402344,430.4917297363281,733.58251953125,392.744873046875,240.5861053466797,792.197265625,285.861328125,164.82432556152344,755.4324340820312,553.4288940429688,177.5660858154297,1043.560302734375,587.0318603515625,833.6676025390625,1007.9039916992188,624.4900512695312,605.9339599609375,1017.599853515625,594.06982421875,475.18975830078125,971.473388671875,564.0929565429688,263.6416015625,884.6630859375,505.9692687988281,197.91055297851562,1003.4868774414062,744.8923950195312,191.18881225585938,0.0,0.0,0.0,0.0,0.0,0.0,0.0,0.0,0.0,0.0,0.0,0.0,1.0,0.0,0.0,0.0,0.0,0.0,0.0,0.0,0.0,0.0,0.0,0.0,0.0,1.0,0.0,0.0,0.0,0.0,0.0,0.0,0.0,0.0,0.0,0.0,0.0,0.0,1.0,0.0,0.0,0.0,0.0,0.0,0.0,0.0,0.0,0.0,0.0,0.0,0.0,1.0,0.0,0.0,0.0,0.0,0.0,0.0,0.0,0.0,0.0,0.0,0.0,0.0,1.0,0.0,0.0,0.0,0.0,0.0,0.0,0.0,0.0,0.0,0.0,0.0,0.0,1.0,0.0,0.0,0.0,0.0,0.0,0.0,0.0,0.0,0.0,0.0,0.0,0.0,1.0,0,0,0,0,0,0,0,0,0,0,0,0,0,0,0,0,0,0,0,0,0,0,0,0,0,0,0,0,0,0,0,0,0,0,0,0
1777353601.9990363,195,1777353584.8691127,,,0,0,,,0,0,0.0,0.0,0.0,0.0,0.0,0.0,0.0,0.0,0.0,0.0,0.0,0.0,0.0,0.0,0.0,0.0,0.0,0.0,0.0,0.0,0.0,0.0,0.0,0.0,0.0,0.0,0.0,722.6251831054688,600.1130981445312,1111.8477783203125,973.9557495117188,590.6048583984375,1121.981689453125,744.8177490234375,417.4227294921875,1151.339111328125,903.6959838867188,389.9239501953125,1154.4539794921875,664.5795288085938,495.9617004394531,849.60546875,719.4439086914062,499.8497314453125,593.0017700195312,705.6326904296875,430.33966064453125,430.5891418457031,734.037841796875,385.4910888671875,240.9189910888672,792.53564453125,278.3251037597656,165.17015075683594,755.6165161132812,545.9293823242188,177.48751831054688,1044.15087890625,585.654052734375,832.3688354492188,1007.4335327148438,623.259033203125,603.2151489257812,1018.2286987304688,599.7989501953125,470.6597900390625,973.46240234375,581.592529296875,257.2454833984375,886.8024291992188,526.87060546875,187.93153381347656,1004.82177734375,765.9229125976562,194.5162353515625,0.0,0.0,0.0,0.0,0.0,0.0,0.0,0.0,0.0,0.0,0.0,0.0,1.0,0.0,0.0,0.0,0.0,0.0,0.0,0.0,0.0,0.0,0.0,0.0,0.0,1.0,0.0,0.0,0.0,0.0,0.0,0.0,0.0,0.0,0.0,0.0,0.0,0.0,1.0,0.0,0.0,0.0,0.0,0.0,0.0,0.0,0.0,0.0,0.0,0.0,0.0,1.0,0.0,0.0,0.0,0.0,0.0,0.0,0.0,0.0,0.0,0.0,0.0,0.0,1.0,0.0,0.0,0.0,0.0,0.0,0.0,0.0,0.0,0.0,0.0,0.0,0.0,1.0,0.0,0.0,0.0,0.0,0.0,0.0,0.0,0.0,0.0,0.0,0.0,0.0,1.0,0,0,0,0,0,0,0,0,0,0,0,0,0,0,0,0,0,0,0,0,0,0,0,0,0,0,0,0,0,0,0,0,0,0,0,0
1777353601.9990363,196,1777353584.8818026,,,0,0,,,0,0,0.0,0.0,0.0,0.0,0.0,0.0,0.0,0.0,0.0,0.0,0.0,0.0,0.0,0.0,0.0,0.0,0.0,0.0,0.0,0.0,0.0,0.0,0.0,0.0,0.0,0.0,0.0,722.8954467773438,599.0846557617188,1111.0657958984375,974.2216796875,590.6024780273438,1121.1168212890625,745.905517578125,416.57598876953125,1151.0653076171875,904.8893432617188,389.7406005859375,1154.02197265625,665.146484375,493.0475769042969,849.2965698242188,719.6515502929688,494.994873046875,592.6835327148438,706.0679931640625,424.3593444824219,430.70257568359375,734.5084228515625,378.25811767578125,241.27842712402344,792.8923950195312,270.794921875,165.5379180908203,755.8075561523438,538.4122924804688,177.41429138183594,1044.786376953125,584.1988525390625,830.7442626953125,1006.9412841796875,621.7758178710938,600.353759765625,1018.804443359375,605.2537231445312,466.3716735839844,975.4312744140625,598.8358764648438,251.6382598876953,889.2542114257812,547.5889892578125,178.9864959716797,1005.7484130859375,786.3700561523438,198.9014434814453,0.0,0.0,0.0,0.0,0.0,0.0,0.0,0.0,0.0,0.0,0.0,0.0,1.0,0.0,0.0,0.0,0.0,0.0,0.0,0.0,0.0,0.0,0.0,0.0,0.0,1.0,0.0,0.0,0.0,0.0,0.0,0.0,0.0,0.0,0.0,0.0,0.0,0.0,1.0,0.0,0.0,0.0,0.0,0.0,0.0,0.0,0.0,0.0,0.0,0.0,0.0,1.0,0.0,0.0,0.0,0.0,0.0,0.0,0.0,0.0,0.0,0.0,0.0,0.0,1.0,0.0,0.0,0.0,0.0,0.0,0.0,0.0,0.0,0.0,0.0,0.0,0.0,1.0,0.0,0.0,0.0,0.0,0.0,0.0,0.0,0.0,0.0,0.0,0.0,0.0,1.0,0,0,0,0,0,0,0,0,0,0,0,0,0,0,0,0,0,0,0,0,0,0,0,0,0,0,0,0,0,0,0,0,0,0,0,0
1777353601.9990363,197,1777353584.8925335,,,0,0,,,0,0,0.0,0.0,0.0,0.0,0.0,0.0,0.0,0.0,0.0,0.0,0.0,0.0,0.0,0.0,0.0,0.0,0.0,0.0,0.0,0.0,0.0,0.0,0.0,0.0,0.0,0.0,0.0,723.2100830078125,598.1343383789062,1110.2353515625,974.5311889648438,590.7443237304688,1120.156494140625,747.086181640625,415.8184509277344,1150.69189453125,906.1807250976562,389.6900329589844,1153.4708251953125,665.735107421875,490.2422180175781,848.962158203125,719.8977661132812,490.2314147949219,592.3639526367188,706.5386962890625,418.4482421875,430.83892822265625,734.9945068359375,371.0500793457031,241.67124938964844,793.2686157226562,263.26678466796875,165.9347381591797,756.008056640625,530.8765869140625,177.34649658203125,1045.461669921875,582.7247924804688,828.833251953125,1006.441650390625,620.1126708984375,597.4010620117188,1019.3158569335938,610.3953857421875,462.371826171875,977.32470703125,615.56982421875,246.85606384277344,892.0,567.7564697265625,171.20004272460938,1006.138427734375,805.989990234375,204.22662353515625,0.0,0.0,0.0,0.0,0.0,0.0,0.0,0.0,0.0,0.0,0.0,0.0,1.0,0.0,0.0,0.0,0.0,0.0,0.0,0.0,0.0,0.0,0.0,0.0,0.0,1.0,0.0,0.0,0.0,0.0,0.0,0.0,0.0,0.0,0.0,0.0,0.0,0.0,1.0,0.0,0.0,0.0,0.0,0.0,0.0,0.0,0.0,0.0,0.0,0.0,0.0,1.0,0.0,0.0,0.0,0.0,0.0,0.0,0.0,0.0,0.0,0.0,0.0,0.0,1.0,0.0,0.0,0.0,0.0,0.0,0.0,0.0,0.0,0.0,0.0,0.0,0.0,1.0,0.0,0.0,0.0,0.0,0.0,0.0,0.0,0.0,0.0,0.0,0.0,0.0,1.0,0,0,0,0,0,0,0,0,0,0,0,0,0,0,0,0,0,0,0,0,0,0,0,0,0,0,0,0,0,0,0,0,0,0,0,0
1777353601.9990363,198,1777353584.902883,,,0,0,,,0,0,0.0,0.0,0.0,0.0,0.0,0.0,0.0,0.0,0.0,0.0,0.0,0.0,0.0,0.0,0.0,0.0,0.0,0.0,0.0,0.0,0.0,0.0,0.0,0.0,0.0,0.0,0.0,723.5739135742188,597.27490234375,1109.36376953125,974.8898315429688,591.0323486328125,1119.111572265625,748.3570556640625,415.16094970703125,1150.216064453125,907.5660400390625,389.77618408203125,1152.8037109375,666.34033203125,487.57110595703125,848.6012573242188,720.186279296875,485.57489013671875,592.0463256835938,707.0443115234375,412.6172790527344,431.0052185058594,735.4942016601562,363.8710632324219,242.1048126220703,793.663330078125,255.73780822753906,166.3686065673828,756.2188720703125,523.3239135742188,177.28335571289062,1046.16943359375,581.2962036132812,826.6827392578125,1005.9523315429688,618.3499755859375,594.4067993164062,1019.7574462890625,615.1909790039062,458.688232421875,979.0840454101562,631.5230712890625,242.89358520507812,894.9649658203125,586.9784545898438,164.6521759033203,1005.893310546875,824.5091552734375,210.2772674560547,0.0,0.0,0.0,0.0,0.0,0.0,0.0,0.0,0.0,0.0,0.0,0.0,1.0,0.0,0.0,0.0,0.0,0.0,0.0,0.0,0.0,0.0,0.0,0.0,0.0,1.0,0.0,0.0,0.0,0.0,0.0,0.0,0.0,0.0,0.0,0.0,0.0,0.0,1.0,0.0,0.0,0.0,0.0,0.0,0.0,0.0,0.0,0.0,0.0,0.0,0.0,1.0,0.0,0.0,0.0,0.0,0.0,0.0,0.0,0.0,0.0,0.0,0.0,0.0,1.0,0.0,0.0,0.0,0.0,0.0,0.0,0.0,0.0,0.0,0.0,0.0,0.0,1.0,0.0,0.0,0.0,0.0,0.0,0.0,0.0,0.0,0.0,0.0,0.0,0.0,1.0,0,0,0,0,0,0,0,0,0,0,0,0,0,0,0,0,0,0,0,0,0,0,0,0,0,0,0,0,0,0,0,0,0,0,0,0
1777353601.9990363,199,1777353584.9038825,,,0,0,,,0,0,0.0,0.0,0.0,0.0,0.0,0.0,0.0,0.0,0.0,0.0,0.0,0.0,0.0,0.0,0.0,0.0,0.0,0.0,0.0,0.0,0.0,0.0,0.0,0.0,0.0,0.0,0.0,723.9923095703125,596.51953125,1108.4586181640625,975.3037109375,591.4677124023438,1117.9937744140625,749.7149658203125,414.6142883300781,1149.6370849609375,909.0408325195312,390.00213623046875,1152.02587890625,666.9573974609375,485.0601806640625,848.2130126953125,720.5205688476562,481.0414123535156,591.7335205078125,707.5823364257812,406.8769836425781,431.2085266113281,736.003173828125,356.72509765625,242.5868682861328,794.0726318359375,248.20680236816406,166.85015869140625,756.4384765625,515.7583618164062,177.2232666015625,1046.9010009765625,579.9814453125,824.346435546875,1005.4929809570312,616.5726928710938,591.4180297851562,1020.1279907226562,619.6127319335938,455.330810546875,980.6509399414062,646.41943359375,239.7036895751953,898.0272827148438,604.8532104492188,159.36068725585938,1004.9519653320312,841.6424560546875,216.7525177001953,0.0,0.0,0.0,0.0,0.0,0.0,0.0,0.0,0.0,0.0,0.0,0.0,1.0,0.0,0.0,0.0,0.0,0.0,0.0,0.0,0.0,0.0,0.0,0.0,0.0,1.0,0.0,0.0,0.0,0.0,0.0,0.0,0.0,0.0,0.0,0.0,0.0,0.0,1.0,0.0,0.0,0.0,0.0,0.0,0.0,0.0,0.0,0.0,0.0,0.0,0.0,1.0,0.0,0.0,0.0,0.0,0.0,0.0,0.0,0.0,0.0,0.0,0.0,0.0,1.0,0.0,0.0,0.0,0.0,0.0,0.0,0.0,0.0,0.0,0.0,0.0,0.0,1.0,0.0,0.0,0.0,0.0,0.0,0.0,0.0,0.0,0.0,0.0,0.0,0.0,1.0,0,0,0,0,0,0,0,0,0,0,0,0,0,0,0,0,0,0,0,0,0,0,0,0,0,0,0,0,0,0,0,0,0,0,0,0
1777353601.9990363,200,1777353584.915884,,,0,0,,,0,0,0.0,0.0,0.0,0.0,0.0,0.0,0.0,0.0,0.0,0.0,0.0,0.0,0.0,0.0,0.0,0.0,0.0,0.0,0.0,0.0,0.0,0.0,0.0,0.0,0.0,0.0,0.0,724.4710693359375,595.881591796875,1107.5284423828125,975.7793579101562,592.0509033203125,1116.8157958984375,751.1563720703125,414.18878173828125,1148.9560546875,910.6002807617188,390.3702697753906,1151.144775390625,667.58203125,482.735107421875,847.796875,720.9044189453125,476.6482238769531,591.427490234375,708.1490478515625,401.2377624511719,431.45562744140625,736.514892578125,349.6159973144531,243.12548828125,794.4893188476562,240.67478942871094,167.39463806152344,756.6631469726562,508.1860656738281,177.1637420654297,1047.6458740234375,578.85009765625,821.8827514648438,1005.082763671875,614.8660278320312,588.4779663085938,1020.4281616210938,623.636962890625,452.2934265136719,981.9721069335938,659.993408203125,237.20057678222656,901.03662109375,620.99365234375,155.27352905273438,1003.2925415039062,857.115478515625,223.28512573242188,0.0,0.0,0.0,0.0,0.0,0.0,0.0,0.0,0.0,0.0,0.0,0.0,1.0,0.0,0.0,0.0,0.0,0.0,0.0,0.0,0.0,0.0,0.0,0.0,0.0,1.0,0.0,0.0,0.0,0.0,0.0,0.0,0.0,0.0,0.0,0.0,0.0,0.0,1.0,0.0,0.0,0.0,0.0,0.0,0.0,0.0,0.0,0.0,0.0,0.0,0.0,1.0,0.0,0.0,0.0,0.0,0.0,0.0,0.0,0.0,0.0,0.0,0.0,0.0,1.0,0.0,0.0,0.0,0.0,0.0,0.0,0.0,0.0,0.0,0.0,0.0,0.0,1.0,0.0,0.0,0.0,0.0,0.0,0.0,0.0,0.0,0.0,0.0,0.0,0.0,1.0,0,0,0,0,0,0,0,0,0,0,0,0,0,0,0,0,0,0,0,0,0,0,0,0,0,0,0,0,0,0,0,0,0,0,0,0
1777353601.9990363,201,1777353584.9279196,,,0,0,,,0,0,0.0,0.0,0.0,0.0,0.0,0.0,0.0,0.0,0.0,0.0,0.0,0.0,0.0,0.0,0.0,0.0,0.0,0.0,0.0,0.0,0.0,0.0,0.0,0.0,0.0,0.0,0.0,725.0164184570312,595.3742065429688,1106.5819091796875,976.3238525390625,592.781982421875,1115.591796875,752.6773071289062,413.89398193359375,1148.1761474609375,912.2393188476562,390.8821105957031,1150.170166015625,668.2112426757812,480.62066650390625,847.3527221679688,721.3422241210938,472.41448974609375,591.1290893554688,708.7398681640625,395.7103576660156,431.7530212402344,737.0214233398438,342.5475769042969,243.72909545898438,794.9033203125,233.1455841064453,168.02346801757812,756.886474609375,500.6148681640625,177.101318359375,1048.392822265625,577.9697265625,819.3529663085938,1004.7384643554688,613.31103515625,585.62548828125,1020.6582641601562,627.2434692382812,449.5565490722656,983.0045166015625,672.0072631835938,235.26742553710938,903.838134765625,635.0496826171875,152.27926635742188,1000.9318237304688,870.688232421875,229.46839904785156,0.0,0.0,0.0,0.0,0.0,0.0,0.0,0.0,0.0,0.0,0.0,0.0,1.0,0.0,0.0,0.0,0.0,0.0,0.0,0.0,0.0,0.0,0.0,0.0,0.0,1.0,0.0,0.0,0.0,0.0,0.0,0.0,0.0,0.0,0.0,0.0,0.0,0.0,1.0,0.0,0.0,0.0,0.0,0.0,0.0,0.0,0.0,0.0,0.0,0.0,0.0,1.0,0.0,0.0,0.0,0.0,0.0,0.0,0.0,0.0,0.0,0.0,0.0,0.0,1.0,0.0,0.0,0.0,0.0,0.0,0.0,0.0,0.0,0.0,0.0,0.0,0.0,1.0,0.0,0.0,0.0,0.0,0.0,0.0,0.0,0.0,0.0,0.0,0.0,0.0,1.0,0,0,0,0,0,0,0,0,0,0,0,0,0,0,0,0,0,0,0,0,0,0,0,0,0,0,0,0,0,0,0,0,0,0,0,0
