Timestamp,Vicon_Frame_Num,Vicon_Recv_Timestamp,IMU_Recv_Timestamp,Planter_Recv_Timestamp,Vicon_Gap_Flag,Vicon_Gap_Size,IMU_Stale_ms,Planter_Stale_ms,IMU_Matched_Flag,Planter_Matched_Flag,Vicon_Root_X,Vicon_Root_Y,Vicon_Root_Z,Vicon_L_Femur_X,Vicon_L_Femur_Y,Vicon_L_Femur_Z,Vicon_L_Tibia_X,Vicon_L_Tibia_Y,Vicon_L_Tibia_Z,Vicon_L_Foot_X,Vicon_L_Foot_Y,Vicon_L_Foot_Z,Vicon_L_Toe_X,Vicon_L_Toe_Y,Vicon_L_Toe_Z,Vicon_R_Femur_X,Vicon_R_Femur_Y,Vicon_R_Femur_Z,Vicon_R_Tibia_X,Vicon_R_Tibia_Y,Vicon_R_Tibia_Z,Vicon_R_Foot_X,Vicon_R_Foot_Y,Vicon_R_Foot_Z,Vicon_R_Toe_X,Vicon_R_Toe_Y,Vicon_R_Toe_Z,Vicon_LASI_X,Vicon_LASI_Y,Vicon_LASI_Z,Vicon_RASI_X,Vicon_RASI_Y,Vicon_RASI_Z,Vicon_LPSI_X,Vicon_LPSI_Y,Vicon_LPSI_Z,Vicon_RPSI_X,Vicon_RPSI_Y,Vicon_RPSI_Z,Vicon_LTHI_X,Vicon_LTHI_Y,Vicon_LTHI_Z,Vicon_LKNE_X,Vicon_LKNE_Y,Vicon_LKNE_Z,Vicon_LTIB_X,Vicon_LTIB_Y,Vicon_LTIB_Z,Vicon_LANK_X,Vicon_LANK_Y,Vicon_LANK_Z,Vicon_LHEE_X,Vicon_LHEE_Y,Vicon_LHEE_Z,Vicon_LTOE_X,Vicon_LTOE_Y,Vicon_LTOE_Z,Vicon_RTHI_X,Vicon_RTHI_Y,Vicon_RTHI_Z,Vicon_RKNE_X,Vicon_RKNE_Y,Vicon_RKNE_Z,Vicon_RTIB_X,Vicon_RTIB_Y,Vicon_RTIB_Z,Vicon_RANK_X,Vicon_RANK_Y,Vicon_RANK_Z,Vicon_RHEE_X,Vicon_RHEE_Y,Vicon_RHEE_Z,Vicon_RTOE_X,Vicon_RTOE_Y,Vicon_RTOE_Z,IMU_Trunk_Acc_X,IMU_Trunk_Acc_Y,IMU_Trunk_Acc_Z,IMU_Trunk_Gyro_X,IMU_Trunk_Gyro_Y,IMU_Trunk_Gyro_Z,IMU_Trunk_Roll,IMU_Trunk_Pitch,IMU_Trunk_Yaw,IMU_Trunk_Quat_x,IMU_Trunk_Quat_y,IMU_Trunk_Quat_z,IMU_Trunk_Quat_w,IMU_L_Femur_Acc_X,IMU_L_Femur_Acc_Y,IMU_L_Femur_Acc_Z,IMU_L_Femur_Gyro_X,IMU_L_Femur_Gyro_Y,IMU_L_Femur_Gyro_Z,IMU_L_Femur_Roll,IMU_L_Femur_Pitch,IMU_L_Femur_Yaw,IMU_L_Femur_Quat_x,IMU_L_Femur_Quat_y,IMU_L_Femur_Quat_z,IMU_L_Femur_Quat_w,IMU_L_Tibia_Acc_X,IMU_L_Tibia_Acc_Y,IMU_L_Tibia_Acc_Z,IMU_L_Tibia_Gyro_X,IMU_L_Tibia_Gyro_Y,IMU_L_Tibia_Gyro_Z,IMU_L_Tibia_Roll,IMU_L_Tibia_Pitch,IMU_L_Tibia_Yaw,IMU_L_Tibia_Quat_x,IMU_L_Tibia_Quat_y,IMU_L_Tibia_Quat_z,IMU_L_Tibia_Quat_w,IMU_L_Foot_Acc_X,IMU_L_Foot_Acc_Y,IMU_L_Foot_Acc_Z,IMU_L_Foot_Gyro_X,IMU_L_Foot_Gyro_Y,IMU_L_Foot_Gyro_Z,IMU_L_Foot_Roll,IMU_L_Foot_Pitch,IMU_L_Foot_Yaw,IMU_L_Foot_Quat_x,IMU_L_Foot_Quat_y,IMU_L_Foot_Quat_z,IMU_L_Foot_Quat_w,IMU_R_Femur_Acc_X,IMU_R_Femur_Acc_Y,IMU_R_Femur_Acc_Z,IMU_R_Femur_Gyro_X,IMU_R_Femur_Gyro_Y,IMU_R_Femur_Gyro_Z,IMU_R_Femur_Roll,IMU_R_Femur_Pitch,IMU_R_Femur_Yaw,IMU_R_Femur_Quat_x,IMU_R_Femur_Quat_y,IMU_R_Femur_Quat_z,IMU_R_Femur_Quat_w,IMU_R_Tibia_Acc_X,IMU_R_Tibia_Acc_Y,IMU_R_Tibia_Acc_Z,IMU_R_Tibia_Gyro_X,IMU_R_Tibia_Gyro_Y,IMU_R_Tibia_Gyro_Z,IMU_R_Tibia_Roll,IMU_R_Tibia_Pitch,IMU_R_Tibia_Yaw,IMU_R_Tibia_Quat_x,IMU_R_Tibia_Quat_y,IMU_R_Tibia_Quat_z,IMU_R_Tibia_Quat_w,IMU_R_Foot_Acc_X,IMU_R_Foot_Acc_Y,IMU_R_Foot_Acc_Z,IMU_R_Foot_Gyro_X,IMU_R_Foot_Gyro_Y,IMU_R_Foot_Gyro_Z,IMU_R_Foot_Roll,IMU_R_Foot_Pitch,IMU_R_Foot_Yaw,IMU_R_Foot_Quat_x,IMU_R_Foot_Quat_y,IMU_R_Foot_Quat_z,IMU_R_Foot_Quat_w,Planter_Left_0,Planter_Left_1,Planter_Left_2,Planter_Left_3,Planter_Left_4,Planter_Left_5,Planter_Left_6,Planter_Left_7,Planter_Left_8,Planter_Left_9,Planter_Left_10,Planter_Left_11,Planter_Left_12,Planter_Left_13,Planter_Left_14,Planter_Left_15,Planter_Left_16,Planter_Left_17,Planter_Right_0,Planter_Right_1,Planter_Right_2,Planter_Right_3,Planter_Right_4,Planter_Right_5,Planter_Right_6,Planter_Right_7,Planter_Right_8,Planter_Right_9,Planter_Right_10,Planter_Right_11,Planter_Right_12,Planter_Right_13,Planter_Right_14,Planter_Right_15,Planter_Right_16,Planter_Right_17
1777283893.0458603,434,1777283876.027408,1777283891.5396292,1777283877.4929833,0,0,-15512.221336364746,-1465.5754566192627,1,1,0.0,0.0,0.0,0.0,0.0,0.0,0.0,0.0,0.0,0.0,0.0,0.0,0.0,0.0,0.0,0.0,0.0,0.0,0.0,0.0,0.0,0.0,0.0,0.0,0.0,0.0,0.0,0.0,0.0,0.0,0.0,0.0,0.0,0.0,0.0,0.0,0.0,0.0,0.0,0.0,0.0,0.0,0.0,0.0,0.0,0.0,0.0,0.0,0.0,0.0,0.0,0.0,0.0,0.0,0.0,0.0,0.0,0.0,0.0,0.0,0.0,0.0,0.0,0.0,0.0,0.0,0.0,0.0,0.0,0.0,0.0,0.0,0.0,0.0,0.0,-1.2633,6.2829,-7.1921,0.9766,-0.061,-0.6104,138.9331,7.5476,35.7111,0.8965,-0.2645,0.166,0.3142,2.115,-6.7758,-6.527,0.3052,-0.4272,-0.1221,-133.9178,-12.6672,-137.2852,-0.2929,-0.8675,-0.3253,0.2362,2.0528,-0.9905,9.666,-0.2441,-0.2441,0.5493,-5.8392,-11.9312,147.2717,-0.1139,0.0194,0.9545,0.2748,0.445,-0.7752,-9.4459,-0.6104,-0.3052,0.3052,-175.3198,-2.6752,-110.874,-0.5659,-0.8231,-0.0204,0.0424,-2.5361,8.7233,3.6606,0.5493,-0.5493,-0.6104,67.2308,15.0183,-157.5989,-0.0001,0.5596,-0.7959,0.2313,6.6609,-6.9672,-1.225,0.1831,-0.1831,0.4272,-99.9536,-43.2751,158.8568,-0.3637,0.6562,0.6394,-0.1679,-9.5416,-0.0239,-1.9619,0.4883,0.0,-0.061,-179.231,78.3545,65.4346,-0.6499,0.4225,-0.5287,0.3458,0,0,0,0,0,0,0,0,0,0,0,0,0,0,0,0,0,0,0,0,0,0,0,0,0,0,0,0,0,0,0,0,0,0,0,0
1777283893.0458603,560,1777283876.0344083,1777283891.5396292,1777283877.4929833,1,125,-15505.220890045166,-1458.5750102996826,1,1,0.0,0.0,0.0,0.0,0.0,0.0,0.0,0.0,0.0,0.0,0.0,0.0,0.0,0.0,0.0,0.0,0.0,0.0,0.0,0.0,0.0,0.0,0.0,0.0,0.0,0.0,0.0,763.313232421875,690.9144897460938,1113.116455078125,1009.2593383789062,634.9988403320312,1129.2012939453125,749.5556030273438,509.91961669921875,1159.36669921875,900.5208129882812,454.7624816894531,1159.1898193359375,685.8410034179688,582.0639038085938,853.6585083007812,742.2788696289062,562.5856323242188,596.6519775390625,726.42431640625,484.7308044433594,437.21588134765625,755.3423461914062,430.0880126953125,246.0674591064453,797.6842041015625,311.2528076171875,172.6388397216797,810.85986328125,580.8234252929688,174.77914428710938,1068.198486328125,621.8695678710938,825.612548828125,1023.0433959960938,661.9027709960938,593.358154296875,1037.9041748046875,665.2897338867188,457.1816101074219,1002.1258544921875,700.0847778320312,240.37850952148438,925.5912475585938,655.9318237304688,161.57606506347656,1018.048828125,900.4324340820312,213.25331115722656,-1.2633,6.2829,-7.1921,0.9766,-0.061,-0.6104,138.9331,7.5476,35.7111,0.8965,-0.2645,0.166,0.3142,2.115,-6.7758,-6.527,0.3052,-0.4272,-0.1221,-133.9178,-12.6672,-137.2852,-0.2929,-0.8675,-0.3253,0.2362,2.0528,-0.9905,9.666,-0.2441,-0.2441,0.5493,-5.8392,-11.9312,147.2717,-0.1139,0.0194,0.9545,0.2748,0.445,-0.7752,-9.4459,-0.6104,-0.3052,0.3052,-175.3198,-2.6752,-110.874,-0.5659,-0.8231,-0.0204,0.0424,-2.5361,8.7233,3.6606,0.5493,-0.5493,-0.6104,67.2308,15.0183,-157.5989,-0.0001,0.5596,-0.7959,0.2313,6.6609,-6.9672,-1.225,0.1831,-0.1831,0.4272,-99.9536,-43.2751,158.8568,-0.3637,0.6562,0.6394,-0.1679,-9.5416,-0.0239,-1.9619,0.4883,0.0,-0.061,-179.231,78.3545,65.4346,-0.6499,0.4225,-0.5287,0.3458,0,0,0,0,0,0,0,0,0,0,0,0,0,0,0,0,0,0,0,0,0,0,0,0,0,0,0,0,0,0,0,0,0,0,0,0
1777283893.0458603,561,1777283876.0374055,1777283891.5396292,1777283877.4929833,0,0,-15502.22373008728,-1455.5778503417969,1,1,0.0,0.0,0.0,0.0,0.0,0.0,0.0,0.0,0.0,0.0,0.0,0.0,0.0,0.0,0.0,0.0,0.0,0.0,0.0,0.0,0.0,0.0,0.0,0.0,0.0,0.0,0.0,764.1117553710938,690.2529296875,1112.1666259765625,1010.228515625,634.9454956054688,1128.2193603515625,750.8936767578125,509.2625427246094,1158.4737548828125,902.01806640625,454.57501220703125,1158.2806396484375,686.5902099609375,580.0555419921875,853.1695556640625,742.8399658203125,558.6145629882812,596.3809204101562,727.0289306640625,479.38720703125,437.5859680175781,755.7709350585938,423.0858154296875,246.78749084472656,798.0323486328125,303.8282470703125,173.75328063964844,811.087890625,573.2551879882812,174.7194366455078,1069.0296630859375,620.5906372070312,823.797607421875,1022.1732788085938,660.467041015625,591.0104370117188,1036.9732666015625,667.96875,454.6603698730469,1001.0394287109375,710.08544921875,238.7482452392578,924.649658203125,668.4141845703125,159.50888061523438,1016.606201171875,911.7382202148438,216.58639526367188,-1.2633,6.2829,-7.1921,0.9766,-0.061,-0.6104,138.9331,7.5476,35.7111,0.8965,-0.2645,0.166,0.3142,2.115,-6.7758,-6.527,0.3052,-0.4272,-0.1221,-133.9178,-12.6672,-137.2852,-0.2929,-0.8675,-0.3253,0.2362,2.0528,-0.9905,9.666,-0.2441,-0.2441,0.5493,-5.8392,-11.9312,147.2717,-0.1139,0.0194,0.9545,0.2748,0.445,-0.7752,-9.4459,-0.6104,-0.3052,0.3052,-175.3198,-2.6752,-110.874,-0.5659,-0.8231,-0.0204,0.0424,-2.5361,8.7233,3.6606,0.5493,-0.5493,-0.6104,67.2308,15.0183,-157.5989,-0.0001,0.5596,-0.7959,0.2313,6.6609,-6.9672,-1.225,0.1831,-0.1831,0.4272,-99.9536,-43.2751,158.8568,-0.3637,0.6562,0.6394,-0.1679,-9.5416,-0.0239,-1.9619,0.4883,0.0,-0.061,-179.231,78.3545,65.4346,-0.6499,0.4225,-0.5287,0.3458,0,0,0,0,0,0,0,0,0,0,0,0,0,0,0,0,0,0,0,0,0,0,0,0,0,0,0,0,0,0,0,0,0,0,0,0
1777283893.0458603,562,1777283876.050491,1777283891.5396292,1777283877.4929833,0,0,-15489.138126373291,-1442.4922466278076,1,1,0.0,0.0,0.0,0.0,0.0,0.0,0.0,0.0,0.0,0.0,0.0,0.0,0.0,0.0,0.0,0.0,0.0,0.0,0.0,0.0,0.0,0.0,0.0,0.0,0.0,0.0,0.0,764.9749145507812,689.7274780273438,1111.203125,1011.2659301757812,635.0236206054688,1127.1866455078125,752.2882080078125,508.73211669921875,1157.5003662109375,903.5747680664062,454.528076171875,1157.2828369140625,687.3701171875,578.2677001953125,852.654052734375,743.4658813476562,554.8535766601562,596.0938110351562,727.6510009765625,474.1971130371094,437.99432373046875,756.1797485351562,416.1312255859375,247.58291625976562,798.3720703125,296.415771484375,174.9900360107422,811.3098754882812,565.6747436523438,174.65634155273438,1069.830322265625,619.5274658203125,821.9418334960938,1021.2620239257812,659.1233520507812,588.7095947265625,1035.8531494140625,670.2434692382812,452.31378173828125,999.6098022460938,718.813720703125,237.4012451171875,923.2407836914062,679.4674072265625,158.06716918945312,1014.8675537109375,921.6151733398438,219.82530212402344,-1.2633,6.2829,-7.1921,0.9766,-0.061,-0.6104,138.9331,7.5476,35.7111,0.8965,-0.2645,0.166,0.3142,2.115,-6.7758,-6.527,0.3052,-0.4272,-0.1221,-133.9178,-12.6672,-137.2852,-0.2929,-0.8675,-0.3253,0.2362,2.0528,-0.9905,9.666,-0.2441,-0.2441,0.5493,-5.8392,-11.9312,147.2717,-0.1139,0.0194,0.9545,0.2748,0.445,-0.7752,-9.4459,-0.6104,-0.3052,0.3052,-175.3198,-2.6752,-110.874,-0.5659,-0.8231,-0.0204,0.0424,-2.5361,8.7233,3.6606,0.5493,-0.5493,-0.6104,67.2308,15.0183,-157.5989,-0.0001,0.5596,-0.7959,0.2313,6.6609,-6.9672,-1.225,0.1831,-0.1831,0.4272,-99.9536,-43.2751,158.8568,-0.3637,0.6562,0.6394,-0.1679,-9.5416,-0.0239,-1.9619,0.4883,0.0,-0.061,-179.231,78.3545,65.4346,-0.6499,0.4225,-0.5287,0.3458,0,0,0,0,0,0,0,0,0,0,0,0,0,0,0,0,0,0,0,0,0,0,0,0,0,0,0,0,0,0,0,0,0,0,0,0
1777283893.0458603,563,1777283876.0680509,1777283891.5396292,1777283877.4929833,0,0,-15471.578359603882,-1424.9324798583984,1,1,0.0,0.0,0.0,0.0,0.0,0.0,0.0,0.0,0.0,0.0,0.0,0.0,0.0,0.0,0.0,0.0,0.0,0.0,0.0,0.0,0.0,0.0,0.0,0.0,0.0,0.0,0.0,765.9017333984375,689.3494873046875,1110.2318115234375,1012.3707885742188,635.2476806640625,1126.10888671875,753.7371826171875,508.3373718261719,1156.4501953125,905.1895751953125,454.6304626464844,1156.2030029296875,688.1780395507812,576.7206420898438,852.1080932617188,744.1590576171875,551.3300170898438,595.78466796875,728.2855224609375,469.178955078125,438.44378662109375,756.5623168945312,409.2338562011719,248.46197509765625,798.6959838867188,289.02667236328125,176.36647033691406,811.523681640625,558.08740234375,174.58807373046875,1070.58544921875,618.7172241210938,820.0603637695312,1020.3230590820312,657.9046630859375,586.460693359375,1034.558837890625,672.1051635742188,450.1094970703125,997.8512573242188,726.1679077148438,236.23121643066406,921.3855590820312,688.9315795898438,157.1009521484375,1012.8711547851562,929.9457397460938,222.86642456054688,-1.2633,6.2829,-7.1921,0.9766,-0.061,-0.6104,138.9331,7.5476,35.7111,0.8965,-0.2645,0.166,0.3142,2.115,-6.7758,-6.527,0.3052,-0.4272,-0.1221,-133.9178,-12.6672,-137.2852,-0.2929,-0.8675,-0.3253,0.2362,2.0528,-0.9905,9.666,-0.2441,-0.2441,0.5493,-5.8392,-11.9312,147.2717,-0.1139,0.0194,0.9545,0.2748,0.445,-0.7752,-9.4459,-0.6104,-0.3052,0.3052,-175.3198,-2.6752,-110.874,-0.5659,-0.8231,-0.0204,0.0424,-2.5361,8.7233,3.6606,0.5493,-0.5493,-0.6104,67.2308,15.0183,-157.5989,-0.0001,0.5596,-0.7959,0.2313,6.6609,-6.9672,-1.225,0.1831,-0.1831,0.4272,-99.9536,-43.2751,158.8568,-0.3637,0.6562,0.6394,-0.1679,-9.5416,-0.0239,-1.9619,0.4883,0.0,-0.061,-179.231,78.3545,65.4346,-0.6499,0.4225,-0.5287,0.3458,0,0,0,0,0,0,0,0,0,0,0,0,0,0,0,0,0,0,0,0,0,0,0,0,0,0,0,0,0,0,0,0,0,0,0,0
1777283893.0458603,564,1777283876.071052,1777283891.5396292,1777283877.4929833,0,0,-15468.577146530151,-1421.931266784668,1,1,0.0,0.0,0.0,0.0,0.0,0.0,0.0,0.0,0.0,0.0,0.0,0.0,0.0,0.0,0.0,0.0,0.0,0.0,0.0,0.0,0.0,0.0,0.0,0.0,0.0,0.0,0.0,766.8900146484375,689.1276245117188,1109.259521484375,1013.5413818359375,635.6320190429688,1124.9925537109375,755.2386474609375,508.0851135253906,1155.3282470703125,906.8612670898438,454.8892517089844,1155.0499267578125,689.01025390625,575.4320068359375,851.5279541015625,744.9208984375,548.0738525390625,595.4461059570312,728.92724609375,464.35247802734375,438.93572998046875,756.9122314453125,402.40411376953125,249.43252563476562,798.9960327148438,281.6734313964844,177.89857482910156,811.72802734375,550.4959106445312,174.51295471191406,1071.28125,618.1919555664062,818.1670532226562,1019.374755859375,656.8372802734375,584.2655639648438,1033.1142578125,673.549560546875,448.01239013671875,995.7944946289062,732.072265625,235.1366729736328,919.1319580078125,696.6709594726562,156.457763671875,1010.6580200195312,936.6390380859375,225.57875061035156,-1.2633,6.2829,-7.1921,0.9766,-0.061,-0.6104,138.9331,7.5476,35.7111,0.8965,-0.2645,0.166,0.3142,2.115,-6.7758,-6.527,0.3052,-0.4272,-0.1221,-133.9178,-12.6672,-137.2852,-0.2929,-0.8675,-0.3253,0.2362,2.0528,-0.9905,9.666,-0.2441,-0.2441,0.5493,-5.8392,-11.9312,147.2717,-0.1139,0.0194,0.9545,0.2748,0.445,-0.7752,-9.4459,-0.6104,-0.3052,0.3052,-175.3198,-2.6752,-110.874,-0.5659,-0.8231,-0.0204,0.0424,-2.5361,8.7233,3.6606,0.5493,-0.5493,-0.6104,67.2308,15.0183,-157.5989,-0.0001,0.5596,-0.7959,0.2313,6.6609,-6.9672,-1.225,0.1831,-0.1831,0.4272,-99.9536,-43.2751,158.8568,-0.3637,0.6562,0.6394,-0.1679,-9.5416,-0.0239,-1.9619,0.4883,0.0,-0.061,-179.231,78.3545,65.4346,-0.6499,0.4225,-0.5287,0.3458,0,0,0,0,0,0,0,0,0,0,0,0,0,0,0,0,0,0,0,0,0,0,0,0,0,0,0,0,0,0,0,0,0,0,0,0
1777283893.0458603,565,1777283876.0873618,1777283891.5396292,1777283877.4929833,0,0,-15452.267408370972,-1405.6215286254883,1,1,0.0,0.0,0.0,0.0,0.0,0.0,0.0,0.0,0.0,0.0,0.0,0.0,0.0,0.0,0.0,0.0,0.0,0.0,0.0,0.0,0.0,0.0,0.0,0.0,0.0,0.0,0.0,767.9360961914062,689.067626953125,1108.2933349609375,1014.774658203125,636.18994140625,1123.845458984375,756.7903442382812,507.9793395996094,1154.141357421875,908.5887451171875,455.30914306640625,1153.833740234375,689.8629150390625,574.4169921875,850.90966796875,745.7512817382812,545.1181030273438,595.0687866210938,729.5706787109375,459.7390441894531,439.4701232910156,757.223388671875,395.6534423828125,250.50213623046875,799.2642822265625,274.367919921875,179.5995635986328,811.9222412109375,542.900390625,174.4298553466797,1071.90625,617.9775390625,816.2752685546875,1018.4400634765625,655.9403076171875,582.1240234375,1031.55419921875,674.579833984375,445.9880676269531,993.4892578125,736.4837646484375,234.0284423828125,916.5573120117188,702.5819091796875,156.00149536132812,1008.2720336914062,941.6434326171875,227.80615234375,-1.2633,6.2829,-7.1921,0.9766,-0.061,-0.6104,138.9331,7.5476,35.7111,0.8965,-0.2645,0.166,0.3142,2.115,-6.7758,-6.527,0.3052,-0.4272,-0.1221,-133.9178,-12.6672,-137.2852,-0.2929,-0.8675,-0.3253,0.2362,2.0528,-0.9905,9.666,-0.2441,-0.2441,0.5493,-5.8392,-11.9312,147.2717,-0.1139,0.0194,0.9545,0.2748,0.445,-0.7752,-9.4459,-0.6104,-0.3052,0.3052,-175.3198,-2.6752,-110.874,-0.5659,-0.8231,-0.0204,0.0424,-2.5361,8.7233,3.6606,0.5493,-0.5493,-0.6104,67.2308,15.0183,-157.5989,-0.0001,0.5596,-0.7959,0.2313,6.6609,-6.9672,-1.225,0.1831,-0.1831,0.4272,-99.9536,-43.2751,158.8568,-0.3637,0.6562,0.6394,-0.1679,-9.5416,-0.0239,-1.9619,0.4883,0.0,-0.061,-179.231,78.3545,65.4346,-0.6499,0.4225,-0.5287,0.3458,0,0,0,0,0,0,0,0,0,0,0,0,0,0,0,0,0,0,0,0,0,0,0,0,0,0,0,0,0,0,0,0,0,0,0,0
1777283893.0468614,566,1777283876.0965781,1777283891.5396292,1777283877.4929833,0,0,-15443.051099777222,-1396.4052200317383,1,1,0.0,0.0,0.0,0.0,0.0,0.0,0.0,0.0,0.0,0.0,0.0,0.0,0.0,0.0,0.0,0.0,0.0,0.0,0.0,0.0,0.0,0.0,0.0,0.0,0.0,0.0,0.0,769.03515625,689.1719360351562,1107.341552734375,1016.066162109375,636.9330444335938,1122.6767578125,758.3900146484375,508.0209655761719,1152.89794921875,910.37060546875,455.8922119140625,1152.5667724609375,690.7318115234375,573.6879272460938,850.24951171875,746.6483764648438,542.4993896484375,594.6421508789062,730.2108764648438,455.3616943359375,440.0458679199219,757.4904174804688,388.9947204589844,251.67816162109375,799.4945678710938,267.1201477050781,181.4787139892578,812.1057739257812,535.2987670898438,174.33859252929688,1072.4515380859375,618.0922241210938,814.3980102539062,1017.5462646484375,655.2266235351562,580.0357666015625,1029.9239501953125,675.2086181640625,444.0068359375,991.0053100585938,739.3990478515625,232.83621215820312,913.7680053710938,706.6021728515625,155.62796020507812,1005.7619018554688,944.9574584960938,229.37612915039062,-1.2633,6.2829,-7.1921,0.9766,-0.061,-0.6104,138.9331,7.5476,35.7111,0.8965,-0.2645,0.166,0.3142,2.115,-6.7758,-6.527,0.3052,-0.4272,-0.1221,-133.9178,-12.6672,-137.2852,-0.2929,-0.8675,-0.3253,0.2362,2.0528,-0.9905,9.666,-0.2441,-0.2441,0.5493,-5.8392,-11.9312,147.2717,-0.1139,0.0194,0.9545,0.2748,0.445,-0.7752,-9.4459,-0.6104,-0.3052,0.3052,-175.3198,-2.6752,-110.874,-0.5659,-0.8231,-0.0204,0.0424,-2.5361,8.7233,3.6606,0.5493,-0.5493,-0.6104,67.2308,15.0183,-157.5989,-0.0001,0.5596,-0.7959,0.2313,6.6609,-6.9672,-1.225,0.1831,-0.1831,0.4272,-99.9536,-43.2751,158.8568,-0.3637,0.6562,0.6394,-0.1679,-9.5416,-0.0239,-1.9619,0.4883,0.0,-0.061,-179.231,78.3545,65.4346,-0.6499,0.4225,-0.5287,0.3458,0,0,0,0,0,0,0,0,0,0,0,0,0,0,0,0,0,0,0,0,0,0,0,0,0,0,0,0,0,0,0,0,0,0,0,0
1777283893.0468614,567,1777283876.103023,1777283891.5396292,1777283877.4929833,0,0,-15436.606168746948,-1389.9602890014648,1,1,0.0,0.0,0.0,0.0,0.0,0.0,0.0,0.0,0.0,0.0,0.0,0.0,0.0,0.0,0.0,0.0,0.0,0.0,0.0,0.0,0.0,0.0,0.0,0.0,0.0,0.0,0.0,770.1810913085938,689.43896484375,1106.412841796875,1017.4100341796875,637.8701782226562,1121.4971923828125,760.0349731445312,508.2074890136719,1151.6080322265625,912.2054443359375,456.6374816894531,1151.2630615234375,691.61328125,573.2546997070312,849.5440673828125,747.6085205078125,540.258056640625,594.154541015625,730.8436279296875,451.2452697753906,440.66131591796875,757.7091674804688,382.4435729980469,252.96807861328125,799.6843872070312,259.9372863769531,183.5409393310547,812.2781982421875,527.6874389648438,174.24026489257812,1072.912353515625,618.5458984375,812.5487060546875,1016.724853515625,654.7035522460938,578.0025024414062,1028.2803955078125,675.4609985351562,442.04779052734375,988.4310913085938,740.8587646484375,231.51365661621094,910.8939208984375,708.7218017578125,155.2746124267578,1003.18310546875,946.6368408203125,230.11553955078125,-1.2633,6.2829,-7.1921,0.9766,-0.061,-0.6104,138.9331,7.5476,35.7111,0.8965,-0.2645,0.166,0.3142,2.115,-6.7758,-6.527,0.3052,-0.4272,-0.1221,-133.9178,-12.6672,-137.2852,-0.2929,-0.8675,-0.3253,0.2362,2.0528,-0.9905,9.666,-0.2441,-0.2441,0.5493,-5.8392,-11.9312,147.2717,-0.1139,0.0194,0.9545,0.2748,0.445,-0.7752,-9.4459,-0.6104,-0.3052,0.3052,-175.3198,-2.6752,-110.874,-0.5659,-0.8231,-0.0204,0.0424,-2.5361,8.7233,3.6606,0.5493,-0.5493,-0.6104,67.2308,15.0183,-157.5989,-0.0001,0.5596,-0.7959,0.2313,6.6609,-6.9672,-1.225,0.1831,-0.1831,0.4272,-99.9536,-43.2751,158.8568,-0.3637,0.6562,0.6394,-0.1679,-9.5416,-0.0239,-1.9619,0.4883,0.0,-0.061,-179.231,78.3545,65.4346,-0.6499,0.4225,-0.5287,0.3458,0,0,0,0,0,0,0,0,0,0,0,0,0,0,0,0,0,0,0,0,0,0,0,0,0,0,0,0,0,0,0,0,0,0,0,0
1777283893.0468614,568,1777283876.1200242,1777283891.5396292,1777283877.4929833,0,0,-15419.605016708374,-1372.9591369628906,1,1,0.0,0.0,0.0,0.0,0.0,0.0,0.0,0.0,0.0,0.0,0.0,0.0,0.0,0.0,0.0,0.0,0.0,0.0,0.0,0.0,0.0,0.0,0.0,0.0,0.0,0.0,0.0,771.3667602539062,689.8629760742188,1105.5167236328125,1018.7993774414062,639.0066528320312,1120.31884765625,761.7222290039062,508.53277587890625,1150.283935546875,914.0912475585938,457.54052734375,1149.9381103515625,692.5045166015625,573.1248779296875,848.7903442382812,748.6254272460938,538.4384155273438,593.593994140625,731.4656982421875,447.41717529296875,441.31549072265625,757.8773803710938,376.0198974609375,254.37986755371094,799.8364868164062,252.82322692871094,185.7875518798828,812.4390258789062,520.0628051757812,174.13754272460938,1073.2880859375,619.3388061523438,810.7421875,1016.0101928710938,654.3740234375,576.029541015625,1026.6904296875,675.375244140625,440.10186767578125,985.8701171875,740.9495849609375,230.04151916503906,908.0792236328125,708.9932250976562,154.92416381835938,1000.5984497070312,946.7965698242188,229.87197875976562,-1.2633,6.2829,-7.1921,0.9766,-0.061,-0.6104,138.9331,7.5476,35.7111,0.8965,-0.2645,0.166,0.3142,2.115,-6.7758,-6.527,0.3052,-0.4272,-0.1221,-133.9178,-12.6672,-137.2852,-0.2929,-0.8675,-0.3253,0.2362,2.0528,-0.9905,9.666,-0.2441,-0.2441,0.5493,-5.8392,-11.9312,147.2717,-0.1139,0.0194,0.9545,0.2748,0.445,-0.7752,-9.4459,-0.6104,-0.3052,0.3052,-175.3198,-2.6752,-110.874,-0.5659,-0.8231,-0.0204,0.0424,-2.5361,8.7233,3.6606,0.5493,-0.5493,-0.6104,67.2308,15.0183,-157.5989,-0.0001,0.5596,-0.7959,0.2313,6.6609,-6.9672,-1.225,0.1831,-0.1831,0.4272,-99.9536,-43.2751,158.8568,-0.3637,0.6562,0.6394,-0.1679,-9.5416,-0.0239,-1.9619,0.4883,0.0,-0.061,-179.231,78.3545,65.4346,-0.6499,0.4225,-0.5287,0.3458,0,0,0,0,0,0,0,0,0,0,0,0,0,0,0,0,0,0,0,0,0,0,0,0,0,0,0,0,0,0,0,0,0,0,0,0
1777283893.0468614,569,1777283876.1225276,1777283891.5396292,1777283877.4929833,0,0,-15417.101621627808,-1370.4557418823242,1,1,0.0,0.0,0.0,0.0,0.0,0.0,0.0,0.0,0.0,0.0,0.0,0.0,0.0,0.0,0.0,0.0,0.0,0.0,0.0,0.0,0.0,0.0,0.0,0.0,0.0,0.0,0.0,772.5843505859375,690.4338989257812,1104.6634521484375,1020.22607421875,640.3430786132812,1119.1556396484375,763.4485473632812,508.98699951171875,1148.93896484375,916.0257568359375,458.5933532714844,1148.609130859375,693.4043579101562,573.3035278320312,847.9863891601562,749.6898803710938,537.0884399414062,592.94921875,732.0750122070312,443.9083251953125,442.00909423828125,757.9946899414062,369.75006103515625,255.92259216308594,799.9603881835938,245.77940368652344,188.2187042236328,812.587646484375,512.4224243164062,174.03472900390625,1073.58349609375,620.4610595703125,808.995361328125,1015.4387817382812,654.2369995117188,574.1276245117188,1025.229248046875,675.0023803710938,438.174072265625,983.4347534179688,739.8013916015625,228.42825317382812,905.4697265625,707.5374145507812,154.6014404296875,998.0758056640625,945.6053466796875,228.53857421875,-1.2633,6.2829,-7.1921,0.9766,-0.061,-0.6104,138.9331,7.5476,35.7111,0.8965,-0.2645,0.166,0.3142,2.115,-6.7758,-6.527,0.3052,-0.4272,-0.1221,-133.9178,-12.6672,-137.2852,-0.2929,-0.8675,-0.3253,0.2362,2.0528,-0.9905,9.666,-0.2441,-0.2441,0.5493,-5.8392,-11.9312,147.2717,-0.1139,0.0194,0.9545,0.2748,0.445,-0.7752,-9.4459,-0.6104,-0.3052,0.3052,-175.3198,-2.6752,-110.874,-0.5659,-0.8231,-0.0204,0.0424,-2.5361,8.7233,3.6606,0.5493,-0.5493,-0.6104,67.2308,15.0183,-157.5989,-0.0001,0.5596,-0.7959,0.2313,6.6609,-6.9672,-1.225,0.1831,-0.1831,0.4272,-99.9536,-43.2751,158.8568,-0.3637,0.6562,0.6394,-0.1679,-9.5416,-0.0239,-1.9619,0.4883,0.0,-0.061,-179.231,78.3545,65.4346,-0.6499,0.4225,-0.5287,0.3458,0,0,0,0,0,0,0,0,0,0,0,0,0,0,0,0,0,0,0,0,0,0,0,0,0,0,0,0,0,0,0,0,0,0,0,0
1777283893.0468614,570,1777283876.13754,1777283891.5396292,1777283877.4929833,0,0,-15402.08911895752,-1355.4432392120361,1,1,0.0,0.0,0.0,0.0,0.0,0.0,0.0,0.0,0.0,0.0,0.0,0.0,0.0,0.0,0.0,0.0,0.0,0.0,0.0,0.0,0.0,0.0,0.0,0.0,0.0,0.0,0.0,773.8258666992188,691.1375122070312,1103.863525390625,1021.681396484375,641.874755859375,1118.022705078125,765.2103881835938,509.55670166015625,1147.588623046875,918.0059204101562,459.7842102050781,1147.29443359375,694.3133544921875,573.7935180664062,847.1314086914062,750.7894287109375,536.2590942382812,592.2109985351562,732.6701049804688,440.754638671875,442.7458190917969,758.0625610351562,363.6692199707031,257.60736083984375,800.073486328125,238.80690002441406,190.83798217773438,812.723876953125,504.7674865722656,173.937744140625,1073.809326171875,621.8919677734375,807.3278198242188,1015.0471801757812,654.2880249023438,572.31396484375,1023.9755859375,674.4036254882812,436.2837829589844,981.238525390625,737.5803833007812,226.70790100097656,903.1985473632812,704.5424194335938,154.3627166748047,995.6836547851562,943.2734375,226.0785675048828,-1.2633,6.2829,-7.1921,0.9766,-0.061,-0.6104,138.9331,7.5476,35.7111,0.8965,-0.2645,0.166,0.3142,2.115,-6.7758,-6.527,0.3052,-0.4272,-0.1221,-133.9178,-12.6672,-137.2852,-0.2929,-0.8675,-0.3253,0.2362,2.0528,-0.9905,9.666,-0.2441,-0.2441,0.5493,-5.8392,-11.9312,147.2717,-0.1139,0.0194,0.9545,0.2748,0.445,-0.7752,-9.4459,-0.6104,-0.3052,0.3052,-175.3198,-2.6752,-110.874,-0.5659,-0.8231,-0.0204,0.0424,-2.5361,8.7233,3.6606,0.5493,-0.5493,-0.6104,67.2308,15.0183,-157.5989,-0.0001,0.5596,-0.7959,0.2313,6.6609,-6.9672,-1.225,0.1831,-0.1831,0.4272,-99.9536,-43.2751,158.8568,-0.3637,0.6562,0.6394,-0.1679,-9.5416,-0.0239,-1.9619,0.4883,0.0,-0.061,-179.231,78.3545,65.4346,-0.6499,0.4225,-0.5287,0.3458,0,0,0,0,0,0,0,0,0,0,0,0,0,0,0,0,0,0,0,0,0,0,0,0,0,0,0,0,0,0,0,0,0,0,0,0
1777283893.0468614,571,1777283876.1395442,1777283891.5396292,1777283877.4929833,0,0,-15400.084972381592,-1353.4390926361084,1,1,0.0,0.0,0.0,0.0,0.0,0.0,0.0,0.0,0.0,0.0,0.0,0.0,0.0,0.0,0.0,0.0,0.0,0.0,0.0,0.0,0.0,0.0,0.0,0.0,0.0,0.0,0.0,775.0831909179688,691.955078125,1103.127685546875,1023.15625,643.591064453125,1116.9365234375,767.003662109375,510.2249755859375,1146.2496337890625,920.028076171875,461.0976257324219,1146.0128173828125,695.2341918945312,574.5952758789062,846.2266845703125,751.90771484375,536.0037841796875,591.3731689453125,733.2496337890625,437.99871826171875,443.533447265625,758.0835571289062,357.8237609863281,259.4483642578125,800.2000732421875,231.9107208251953,193.6595916748047,812.8475952148438,497.10467529296875,173.8539276123047,1073.98193359375,623.6000366210938,805.7621459960938,1014.8699340820312,654.5186767578125,570.6119384765625,1023.0072021484375,673.6453857421875,434.463623046875,979.3862915039062,734.4765625,224.93521118164062,901.3718872070312,700.25146484375,154.27774047851562,993.4854736328125,940.032470703125,222.5442657470703,-1.2633,6.2829,-7.1921,0.9766,-0.061,-0.6104,138.9331,7.5476,35.7111,0.8965,-0.2645,0.166,0.3142,2.115,-6.7758,-6.527,0.3052,-0.4272,-0.1221,-133.9178,-12.6672,-137.2852,-0.2929,-0.8675,-0.3253,0.2362,2.0528,-0.9905,9.666,-0.2441,-0.2441,0.5493,-5.8392,-11.9312,147.2717,-0.1139,0.0194,0.9545,0.2748,0.445,-0.7752,-9.4459,-0.6104,-0.3052,0.3052,-175.3198,-2.6752,-110.874,-0.5659,-0.8231,-0.0204,0.0424,-2.5361,8.7233,3.6606,0.5493,-0.5493,-0.6104,67.2308,15.0183,-157.5989,-0.0001,0.5596,-0.7959,0.2313,6.6609,-6.9672,-1.225,0.1831,-0.1831,0.4272,-99.9536,-43.2751,158.8568,-0.3637,0.6562,0.6394,-0.1679,-9.5416,-0.0239,-1.9619,0.4883,0.0,-0.061,-179.231,78.3545,65.4346,-0.6499,0.4225,-0.5287,0.3458,0,0,0,0,0,0,0,0,0,0,0,0,0,0,0,0,0,0,0,0,0,0,0,0,0,0,0,0,0,0,0,0,0,0,0,0
1777283893.0468614,572,1777283876.1552925,1777283891.5396292,1777283877.4929833,0,0,-15384.336709976196,-1337.690830230713,1,1,0.0,0.0,0.0,0.0,0.0,0.0,0.0,0.0,0.0,0.0,0.0,0.0,0.0,0.0,0.0,0.0,0.0,0.0,0.0,0.0,0.0,0.0,0.0,0.0,0.0,0.0,0.0,776.3489379882812,692.8644409179688,1102.4669189453125,1024.641357421875,645.4747924804688,1115.9146728515625,768.8240356445312,510.9718322753906,1144.9398193359375,922.0877075195312,462.5145263671875,1144.783935546875,696.171630859375,575.7066650390625,845.2760620117188,753.024658203125,536.376708984375,590.43408203125,733.8116455078125,435.6913757324219,444.3848571777344,758.0602416992188,352.27313232421875,261.4638671875,800.3695678710938,225.1063690185547,196.71737670898438,812.9591674804688,489.4486083984375,173.7909698486328,1074.1234130859375,625.5433349609375,804.3234252929688,1014.936279296875,654.9161987304688,569.0504150390625,1022.393798828125,672.7932739257812,432.75653076171875,977.9642944335938,730.6875,223.1784210205078,900.057373046875,694.9390258789062,154.40818786621094,991.5326538085938,936.1082763671875,218.08384704589844,-1.2633,6.2829,-7.1921,0.9766,-0.061,-0.6104,138.9331,7.5476,35.7111,0.8965,-0.2645,0.166,0.3142,2.115,-6.7758,-6.527,0.3052,-0.4272,-0.1221,-133.9178,-12.6672,-137.2852,-0.2929,-0.8675,-0.3253,0.2362,2.0528,-0.9905,9.666,-0.2441,-0.2441,0.5493,-5.8392,-11.9312,147.2717,-0.1139,0.0194,0.9545,0.2748,0.445,-0.7752,-9.4459,-0.6104,-0.3052,0.3052,-175.3198,-2.6752,-110.874,-0.5659,-0.8231,-0.0204,0.0424,-2.5361,8.7233,3.6606,0.5493,-0.5493,-0.6104,67.2308,15.0183,-157.5989,-0.0001,0.5596,-0.7959,0.2313,6.6609,-6.9672,-1.225,0.1831,-0.1831,0.4272,-99.9536,-43.2751,158.8568,-0.3637,0.6562,0.6394,-0.1679,-9.5416,-0.0239,-1.9619,0.4883,0.0,-0.061,-179.231,78.3545,65.4346,-0.6499,0.4225,-0.5287,0.3458,0,0,0,0,0,0,0,0,0,0,0,0,0,0,0,0,0,0,0,0,0,0,0,0,0,0,0,0,0,0,0,0,0,0,0,0
1777283893.0468614,573,1777283876.1708455,1777283891.5396292,1777283877.4929833,0,0,-15368.783712387085,-1322.1378326416016,1,1,0.0,0.0,0.0,0.0,0.0,0.0,0.0,0.0,0.0,0.0,0.0,0.0,0.0,0.0,0.0,0.0,0.0,0.0,0.0,0.0,0.0,0.0,0.0,0.0,0.0,0.0,0.0,777.6163330078125,693.83984375,1101.8917236328125,1026.1279296875,647.50244140625,1114.9749755859375,770.6665649414062,511.7745056152344,1143.6778564453125,924.1793212890625,464.0125732421875,1143.626708984375,697.1322021484375,577.1223754882812,844.286865234375,754.1165771484375,537.4310302734375,589.398193359375,734.3527221679688,433.89288330078125,445.3183288574219,757.9944458007812,347.09112548828125,263.6770324707031,800.6134033203125,218.4282989501953,200.0743408203125,813.0589599609375,481.8240051269531,173.75503540039062,1074.2601318359375,627.67041015625,803.0381469726562,1015.2673950195312,655.4625854492188,567.6613159179688,1022.1900024414062,671.9039916992188,431.2112121582031,977.0306396484375,726.3992919921875,221.51060485839844,899.2767333984375,688.8800659179688,154.7887420654297,989.8590698242188,931.69287109375,212.93231201171875,-1.2633,6.2829,-7.1921,0.9766,-0.061,-0.6104,138.9331,7.5476,35.7111,0.8965,-0.2645,0.166,0.3142,2.115,-6.7758,-6.527,0.3052,-0.4272,-0.1221,-133.9178,-12.6672,-137.2852,-0.2929,-0.8675,-0.3253,0.2362,2.0528,-0.9905,9.666,-0.2441,-0.2441,0.5493,-5.8392,-11.9312,147.2717,-0.1139,0.0194,0.9545,0.2748,0.445,-0.7752,-9.4459,-0.6104,-0.3052,0.3052,-175.3198,-2.6752,-110.874,-0.5659,-0.8231,-0.0204,0.0424,-2.5361,8.7233,3.6606,0.5493,-0.5493,-0.6104,67.2308,15.0183,-157.5989,-0.0001,0.5596,-0.7959,0.2313,6.6609,-6.9672,-1.225,0.1831,-0.1831,0.4272,-99.9536,-43.2751,158.8568,-0.3637,0.6562,0.6394,-0.1679,-9.5416,-0.0239,-1.9619,0.4883,0.0,-0.061,-179.231,78.3545,65.4346,-0.6499,0.4225,-0.5287,0.3458,0,0,0,0,0,0,0,0,0,0,0,0,0,0,0,0,0,0,0,0,0,0,0,0,0,0,0,0,0,0,0,0,0,0,0,0
1777283893.0468614,574,1777283876.1743531,1777283891.5396292,1777283877.4929833,0,0,-15365.276098251343,-1318.6302185058594,1,1,0.0,0.0,0.0,0.0,0.0,0.0,0.0,0.0,0.0,0.0,0.0,0.0,0.0,0.0,0.0,0.0,0.0,0.0,0.0,0.0,0.0,0.0,0.0,0.0,0.0,0.0,0.0,778.8796997070312,694.8531494140625,1101.4127197265625,1027.607421875,649.644287109375,1114.13525390625,772.5260009765625,512.6082153320312,1142.482666015625,926.296630859375,465.5666809082031,1142.5595703125,698.123779296875,578.8338012695312,843.2699584960938,755.1569213867188,539.2164306640625,588.2765502929688,734.8672485351562,432.6728820800781,446.3575744628906,757.8865356445312,342.3652038574219,266.1163635253906,800.9611206054688,211.939453125,203.83070373535156,813.1467895507812,474.26690673828125,173.7476348876953,1074.42138671875,629.9220581054688,801.9321899414062,1015.8726196289062,656.1329345703125,566.4766235351562,1022.4286499023438,671.0179443359375,429.8765869140625,976.6078491210938,721.7681274414062,220.00064086914062,899.0046997070312,682.3201904296875,155.41629028320312,988.4801025390625,926.921630859375,207.3889923095703,-1.2633,6.2829,-7.1921,0.9766,-0.061,-0.6104,138.9331,7.5476,35.7111,0.8965,-0.2645,0.166,0.3142,2.115,-6.7758,-6.527,0.3052,-0.4272,-0.1221,-133.9178,-12.6672,-137.2852,-0.2929,-0.8675,-0.3253,0.2362,2.0528,-0.9905,9.666,-0.2441,-0.2441,0.5493,-5.8392,-11.9312,147.2717,-0.1139,0.0194,0.9545,0.2748,0.445,-0.7752,-9.4459,-0.6104,-0.3052,0.3052,-175.3198,-2.6752,-110.874,-0.5659,-0.8231,-0.0204,0.0424,-2.5361,8.7233,3.6606,0.5493,-0.5493,-0.6104,67.2308,15.0183,-157.5989,-0.0001,0.5596,-0.7959,0.2313,6.6609,-6.9672,-1.225,0.1831,-0.1831,0.4272,-99.9536,-43.2751,158.8568,-0.3637,0.6562,0.6394,-0.1679,-9.5416,-0.0239,-1.9619,0.4883,0.0,-0.061,-179.231,78.3545,65.4346,-0.6499,0.4225,-0.5287,0.3458,0,0,0,0,0,0,0,0,0,0,0,0,0,0,0,0,0,0,0,0,0,0,0,0,0,0,0,0,0,0,0,0,0,0,0,0
1777283893.0478625,575,1777283876.1893158,1777283891.5396292,1777283877.4929833,0,0,-15350.313425064087,-1303.6675453186035,1,1,0.0,0.0,0.0,0.0,0.0,0.0,0.0,0.0,0.0,0.0,0.0,0.0,0.0,0.0,0.0,0.0,0.0,0.0,0.0,0.0,0.0,0.0,0.0,0.0,0.0,0.0,0.0,780.1344604492188,695.8744506835938,1101.0391845703125,1029.0726318359375,651.8652954101562,1113.4127197265625,774.3968505859375,513.4467163085938,1141.373291015625,928.4325561523438,467.14959716796875,1141.5997314453125,699.1549072265625,580.8282470703125,842.2407836914062,756.1173706054688,541.7758178710938,587.0885009765625,735.3469848632812,432.10882568359375,447.5311584472656,757.7350463867188,338.1942443847656,268.8153076171875,801.4361572265625,205.74072265625,208.12847900390625,813.220703125,466.82513427734375,173.7618865966797,1074.6375732421875,632.2332763671875,801.0283203125,1016.7471313476562,656.8942260742188,565.5242919921875,1023.1145629882812,670.15283203125,428.7955017089844,976.6796875,716.9080810546875,218.7055206298828,899.1761474609375,675.4548950195312,156.24937438964844,987.3955688476562,921.865234375,201.78636169433594,-1.2633,6.2829,-7.1921,0.9766,-0.061,-0.6104,138.9331,7.5476,35.7111,0.8965,-0.2645,0.166,0.3142,2.115,-6.7758,-6.527,0.3052,-0.4272,-0.1221,-133.9178,-12.6672,-137.2852,-0.2929,-0.8675,-0.3253,0.2362,2.0528,-0.9905,9.666,-0.2441,-0.2441,0.5493,-5.8392,-11.9312,147.2717,-0.1139,0.0194,0.9545,0.2748,0.445,-0.7752,-9.4459,-0.6104,-0.3052,0.3052,-175.3198,-2.6752,-110.874,-0.5659,-0.8231,-0.0204,0.0424,-2.5361,8.7233,3.6606,0.5493,-0.5493,-0.6104,67.2308,15.0183,-157.5989,-0.0001,0.5596,-0.7959,0.2313,6.6609,-6.9672,-1.225,0.1831,-0.1831,0.4272,-99.9536,-43.2751,158.8568,-0.3637,0.6562,0.6394,-0.1679,-9.5416,-0.0239,-1.9619,0.4883,0.0,-0.061,-179.231,78.3545,65.4346,-0.6499,0.4225,-0.5287,0.3458,0,0,0,0,0,0,0,0,0,0,0,0,0,0,0,0,0,0,0,0,0,0,0,0,0,0,0,0,0,0,0,0,0,0,0,0
1777283893.0478625,576,1777283876.191406,1777283891.5396292,1777283877.4929833,0,0,-15348.223209381104,-1301.5773296356201,1,1,0.0,0.0,0.0,0.0,0.0,0.0,0.0,0.0,0.0,0.0,0.0,0.0,0.0,0.0,0.0,0.0,0.0,0.0,0.0,0.0,0.0,0.0,0.0,0.0,0.0,0.0,0.0,781.377197265625,696.8729858398438,1100.77978515625,1030.5172119140625,654.1264038085938,1112.82275390625,776.2733154296875,514.2630004882812,1140.367919921875,930.5794677734375,468.7327575683594,1140.761962890625,700.2337646484375,583.0888671875,841.21923828125,756.9692993164062,545.14208984375,585.861328125,735.7813720703125,432.2818298339844,448.8713073730469,757.5369262695312,334.6836853027344,271.8113708496094,802.0510864257812,199.9784698486328,213.1505126953125,813.2752075195312,459.5572204589844,173.77890014648438,1074.9368896484375,634.5360717773438,800.3429565429688,1017.8699951171875,657.70361328125,564.82373046875,1024.2203369140625,669.299560546875,427.9984436035156,977.1930541992188,711.8876953125,217.66493225097656,899.69873046875,668.4217529296875,157.216796875,986.59423828125,916.5380859375,196.45303344726562,-1.2633,6.2829,-7.1921,0.9766,-0.061,-0.6104,138.9331,7.5476,35.7111,0.8965,-0.2645,0.166,0.3142,2.115,-6.7758,-6.527,0.3052,-0.4272,-0.1221,-133.9178,-12.6672,-137.2852,-0.2929,-0.8675,-0.3253,0.2362,2.0528,-0.9905,9.666,-0.2441,-0.2441,0.5493,-5.8392,-11.9312,147.2717,-0.1139,0.0194,0.9545,0.2748,0.445,-0.7752,-9.4459,-0.6104,-0.3052,0.3052,-175.3198,-2.6752,-110.874,-0.5659,-0.8231,-0.0204,0.0424,-2.5361,8.7233,3.6606,0.5493,-0.5493,-0.6104,67.2308,15.0183,-157.5989,-0.0001,0.5596,-0.7959,0.2313,6.6609,-6.9672,-1.225,0.1831,-0.1831,0.4272,-99.9536,-43.2751,158.8568,-0.3637,0.6562,0.6394,-0.1679,-9.5416,-0.0239,-1.9619,0.4883,0.0,-0.061,-179.231,78.3545,65.4346,-0.6499,0.4225,-0.5287,0.3458,0,0,0,0,0,0,0,0,0,0,0,0,0,0,0,0,0,0,0,0,0,0,0,0,0,0,0,0,0,0,0,0,0,0,0,0
1777283893.0478625,577,1777283876.20847,1777283891.5396292,1777283877.4929833,0,0,-15331.159114837646,-1284.513235092163,1,1,0.0,0.0,0.0,0.0,0.0,0.0,0.0,0.0,0.0,0.0,0.0,0.0,0.0,0.0,0.0,0.0,0.0,0.0,0.0,0.0,0.0,0.0,0.0,0.0,0.0,0.0,0.0,782.6052856445312,697.818115234375,1100.64208984375,1031.9359130859375,656.3857421875,1112.3780517578125,778.149658203125,515.0303955078125,1139.4832763671875,932.7293090820312,470.2870788574219,1140.058837890625,701.367431640625,585.5940551757812,840.2295532226562,757.6854248046875,549.33447265625,584.631103515625,736.157958984375,433.2706298828125,450.41259765625,757.2885131835938,331.93890380859375,275.1441955566406,802.8028564453125,194.8480682373047,219.11233520507812,813.2996215820312,452.5299072265625,173.76614379882812,1075.3433837890625,636.7618408203125,799.88330078125,1019.2044067382812,658.5077514648438,564.3819580078125,1025.685791015625,668.4224243164062,427.4986267089844,978.0653686523438,706.7360229492188,216.898681640625,900.468017578125,661.3049926757812,158.2329559326172,986.05615234375,910.9213256835938,191.67269897460938,-1.2633,6.2829,-7.1921,0.9766,-0.061,-0.6104,138.9331,7.5476,35.7111,0.8965,-0.2645,0.166,0.3142,2.115,-6.7758,-6.527,0.3052,-0.4272,-0.1221,-133.9178,-12.6672,-137.2852,-0.2929,-0.8675,-0.3253,0.2362,2.0528,-0.9905,9.666,-0.2441,-0.2441,0.5493,-5.8392,-11.9312,147.2717,-0.1139,0.0194,0.9545,0.2748,0.445,-0.7752,-9.4459,-0.6104,-0.3052,0.3052,-175.3198,-2.6752,-110.874,-0.5659,-0.8231,-0.0204,0.0424,-2.5361,8.7233,3.6606,0.5493,-0.5493,-0.6104,67.2308,15.0183,-157.5989,-0.0001,0.5596,-0.7959,0.2313,6.6609,-6.9672,-1.225,0.1831,-0.1831,0.4272,-99.9536,-43.2751,158.8568,-0.3637,0.6562,0.6394,-0.1679,-9.5416,-0.0239,-1.9619,0.4883,0.0,-0.061,-179.231,78.3545,65.4346,-0.6499,0.4225,-0.5287,0.3458,0,0,0,0,0,0,0,0,0,0,0,0,0,0,0,0,0,0,0,0,0,0,0,0,0,0,0,0,0,0,0,0,0,0,0,0
1777283893.0478625,578,1777283876.2206838,1777283891.5396292,1777283877.4929833,0,0,-15318.945407867432,-1272.2995281219482,1,1,0.0,0.0,0.0,0.0,0.0,0.0,0.0,0.0,0.0,0.0,0.0,0.0,0.0,0.0,0.0,0.0,0.0,0.0,0.0,0.0,0.0,0.0,0.0,0.0,0.0,0.0,0.0,783.8170166015625,698.6806640625,1100.6317138671875,1033.3248291015625,658.6004638671875,1112.088134765625,780.0205078125,515.7229614257812,1138.734375,934.8740844726562,471.78387451171875,1139.4998779296875,702.5606689453125,588.3173828125,839.2999877929688,758.2416381835938,554.354736328125,583.4413452148438,736.4634399414062,435.1436767578125,452.1900939941406,756.9871215820312,330.0567321777344,278.85308837890625,803.6704711914062,190.59059143066406,226.24488830566406,813.2770385742188,445.8134460449219,173.67913818359375,1075.8748779296875,638.8443603515625,799.6448974609375,1020.6995849609375,659.2431640625,564.1907348632812,1027.421630859375,667.4632568359375,427.28936767578125,979.1946411132812,701.4547729492188,216.40646362304688,901.3800659179688,654.1490478515625,159.21534729003906,985.751953125,904.9918212890625,187.6463623046875,-1.2633,6.2829,-7.1921,0.9766,-0.061,-0.6104,138.9331,7.5476,35.7111,0.8965,-0.2645,0.166,0.3142,2.115,-6.7758,-6.527,0.3052,-0.4272,-0.1221,-133.9178,-12.6672,-137.2852,-0.2929,-0.8675,-0.3253,0.2362,2.0528,-0.9905,9.666,-0.2441,-0.2441,0.5493,-5.8392,-11.9312,147.2717,-0.1139,0.0194,0.9545,0.2748,0.445,-0.7752,-9.4459,-0.6104,-0.3052,0.3052,-175.3198,-2.6752,-110.874,-0.5659,-0.8231,-0.0204,0.0424,-2.5361,8.7233,3.6606,0.5493,-0.5493,-0.6104,67.2308,15.0183,-157.5989,-0.0001,0.5596,-0.7959,0.2313,6.6609,-6.9672,-1.225,0.1831,-0.1831,0.4272,-99.9536,-43.2751,158.8568,-0.3637,0.6562,0.6394,-0.1679,-9.5416,-0.0239,-1.9619,0.4883,0.0,-0.061,-179.231,78.3545,65.4346,-0.6499,0.4225,-0.5287,0.3458,0,0,0,0,0,0,0,0,0,0,0,0,0,0,0,0,0,0,0,0,0,0,0,0,0,0,0,0,0,0,0,0,0,0,0,0
1777283893.0478625,579,1777283876.2228394,1777283891.5396292,1777283877.4929833,0,0,-15316.789865493774,-1270.143985748291,1,1,0.0,0.0,0.0,0.0,0.0,0.0,0.0,0.0,0.0,0.0,0.0,0.0,0.0,0.0,0.0,0.0,0.0,0.0,0.0,0.0,0.0,0.0,0.0,0.0,0.0,0.0,0.0,785.0108642578125,699.433349609375,1100.7530517578125,1034.6810302734375,660.7286987304688,1111.9583740234375,781.8806762695312,516.3167724609375,1138.133544921875,937.005859375,473.1958923339844,1139.091064453125,703.815185546875,591.22802734375,838.4620971679688,758.6195068359375,560.18505859375,582.3426513671875,736.685791015625,437.9508056640625,454.2370910644531,756.6326904296875,329.116455078125,282.9742126464844,804.6155395507812,187.48060607910156,234.76678466796875,813.1845703125,439.475830078125,173.4672088623047,1076.541259765625,640.7219848632812,799.610595703125,1022.2949829101562,659.8381958007812,564.2264404296875,1029.3184814453125,666.3490600585938,427.3439636230469,980.4714965820312,696.0317993164062,216.16966247558594,902.3419189453125,646.9739990234375,160.09860229492188,985.642333984375,898.74609375,184.4707489013672,-1.2633,6.2829,-7.1921,0.9766,-0.061,-0.6104,138.9331,7.5476,35.7111,0.8965,-0.2645,0.166,0.3142,2.115,-6.7758,-6.527,0.3052,-0.4272,-0.1221,-133.9178,-12.6672,-137.2852,-0.2929,-0.8675,-0.3253,0.2362,2.0528,-0.9905,9.666,-0.2441,-0.2441,0.5493,-5.8392,-11.9312,147.2717,-0.1139,0.0194,0.9545,0.2748,0.445,-0.7752,-9.4459,-0.6104,-0.3052,0.3052,-175.3198,-2.6752,-110.874,-0.5659,-0.8231,-0.0204,0.0424,-2.5361,8.7233,3.6606,0.5493,-0.5493,-0.6104,67.2308,15.0183,-157.5989,-0.0001,0.5596,-0.7959,0.2313,6.6609,-6.9672,-1.225,0.1831,-0.1831,0.4272,-99.9536,-43.2751,158.8568,-0.3637,0.6562,0.6394,-0.1679,-9.5416,-0.0239,-1.9619,0.4883,0.0,-0.061,-179.231,78.3545,65.4346,-0.6499,0.4225,-0.5287,0.3458,0,0,0,0,0,0,0,0,0,0,0,0,0,0,0,0,0,0,0,0,0,0,0,0,0,0,0,0,0,0,0,0,0,0,0,0
1777283893.0478625,580,1777283876.2395072,1777283891.5396292,1777283877.4929833,0,0,-15300.122022628784,-1253.4761428833008,1,1,0.0,0.0,0.0,0.0,0.0,0.0,0.0,0.0,0.0,0.0,0.0,0.0,0.0,0.0,0.0,0.0,0.0,0.0,0.0,0.0,0.0,0.0,0.0,0.0,0.0,0.0,0.0,786.1856079101562,700.052490234375,1101.0081787109375,1036.0028076171875,662.7312622070312,1111.9896240234375,783.7258911132812,516.7904052734375,1137.6905517578125,939.117431640625,474.49798583984375,1138.8353271484375,705.1288452148438,594.2913208007812,837.74951171875,758.8072509765625,566.7864990234375,581.3900756835938,736.8158569335938,441.7153625488281,456.5832214355469,756.2299194335938,329.1718444824219,287.5365295410156,805.5875244140625,185.80487060546875,244.84861755371094,812.9959106445312,433.57733154296875,173.0830078125,1077.344482421875,642.3394775390625,799.7506103515625,1023.9257202148438,660.2178344726562,564.4518432617188,1031.2596435546875,665.001220703125,427.61859130859375,981.7900390625,690.4520874023438,216.15478515625,903.2774047851562,639.7874755859375,160.8407440185547,985.6802978515625,892.2084350585938,182.14041137695312,-1.2633,6.2829,-7.1921,0.9766,-0.061,-0.6104,138.9331,7.5476,35.7111,0.8965,-0.2645,0.166,0.3142,2.115,-6.7758,-6.527,0.3052,-0.4272,-0.1221,-133.9178,-12.6672,-137.2852,-0.2929,-0.8675,-0.3253,0.2362,2.0528,-0.9905,9.666,-0.2441,-0.2441,0.5493,-5.8392,-11.9312,147.2717,-0.1139,0.0194,0.9545,0.2748,0.445,-0.7752,-9.4459,-0.6104,-0.3052,0.3052,-175.3198,-2.6752,-110.874,-0.5659,-0.8231,-0.0204,0.0424,-2.5361,8.7233,3.6606,0.5493,-0.5493,-0.6104,67.2308,15.0183,-157.5989,-0.0001,0.5596,-0.7959,0.2313,6.6609,-6.9672,-1.225,0.1831,-0.1831,0.4272,-99.9536,-43.2751,158.8568,-0.3637,0.6562,0.6394,-0.1679,-9.5416,-0.0239,-1.9619,0.4883,0.0,-0.061,-179.231,78.3545,65.4346,-0.6499,0.4225,-0.5287,0.3458,0,0,0,0,0,0,0,0,0,0,0,0,0,0,0,0,0,0,0,0,0,0,0,0,0,0,0,0,0,0,0,0,0,0,0,0
1777283893.0478625,581,1777283876.2420123,1777283891.5396292,1777283877.4929833,0,0,-15297.616958618164,-1250.9710788726807,1,1,0.0,0.0,0.0,0.0,0.0,0.0,0.0,0.0,0.0,0.0,0.0,0.0,0.0,0.0,0.0,0.0,0.0,0.0,0.0,0.0,0.0,0.0,0.0,0.0,0.0,0.0,0.0,787.3397216796875,700.5181884765625,1101.397216796875,1037.288818359375,664.572998046875,1112.1778564453125,785.5521850585938,517.1255493164062,1137.4114990234375,941.2022094726562,475.66802978515625,1138.732177734375,706.4949340820312,597.4698486328125,837.1965942382812,758.80126953125,574.0989379882812,580.6414794921875,736.8495483398438,446.42913818359375,459.251953125,755.789794921875,330.2455139160156,292.5577087402344,806.5338134765625,185.83319091796875,256.5743713378906,812.6851806640625,428.16815185546875,172.4943389892578,1078.2783203125,643.6497192382812,800.0250244140625,1025.528564453125,660.3089599609375,564.8198852539062,1033.1351318359375,663.3450927734375,428.05731201171875,983.056640625,684.704345703125,216.31808471679688,904.1299438476562,632.592529296875,161.42283630371094,985.8160400390625,885.4265747070312,180.56822204589844,-1.2633,6.2829,-7.1921,0.9766,-0.061,-0.6104,138.9331,7.5476,35.7111,0.8965,-0.2645,0.166,0.3142,2.115,-6.7758,-6.527,0.3052,-0.4272,-0.1221,-133.9178,-12.6672,-137.2852,-0.2929,-0.8675,-0.3253,0.2362,2.0528,-0.9905,9.666,-0.2441,-0.2441,0.5493,-5.8392,-11.9312,147.2717,-0.1139,0.0194,0.9545,0.2748,0.445,-0.7752,-9.4459,-0.6104,-0.3052,0.3052,-175.3198,-2.6752,-110.874,-0.5659,-0.8231,-0.0204,0.0424,-2.5361,8.7233,3.6606,0.5493,-0.5493,-0.6104,67.2308,15.0183,-157.5989,-0.0001,0.5596,-0.7959,0.2313,6.6609,-6.9672,-1.225,0.1831,-0.1831,0.4272,-99.9536,-43.2751,158.8568,-0.3637,0.6562,0.6394,-0.1679,-9.5416,-0.0239,-1.9619,0.4883,0.0,-0.061,-179.231,78.3545,65.4346,-0.6499,0.4225,-0.5287,0.3458,0,0,0,0,0,0,0,0,0,0,0,0,0,0,0,0,0,0,0,0,0,0,0,0,0,0,0,0,0,0,0,0,0,0,0,0
1777283893.0478625,582,1777283876.2661474,1777283891.5396292,1777283877.4929833,0,0,-15273.481845855713,-1226.8359661102295,1,1,0.0,0.0,0.0,0.0,0.0,0.0,0.0,0.0,0.0,0.0,0.0,0.0,0.0,0.0,0.0,0.0,0.0,0.0,0.0,0.0,0.0,0.0,0.0,0.0,0.0,0.0,0.0,788.4717407226562,700.815185546875,1101.9183349609375,1038.538818359375,666.224365234375,1112.5145263671875,787.3565673828125,517.3077392578125,1137.299560546875,943.2545166015625,476.6875305175781,1138.7781982421875,707.9022216796875,600.7247924804688,836.8369750976562,758.6060791015625,582.0435180664062,580.154052734375,736.7890014648438,452.0504150390625,462.2582092285156,755.3303833007812,332.3271179199219,298.0387878417969,807.412109375,187.7858428955078,269.9092712402344,812.2314453125,423.2919921875,171.69654846191406,1079.330078125,644.6149291992188,800.38671875,1027.0479736328125,660.0468139648438,565.2791748046875,1034.8533935546875,661.3186645507812,428.5986633300781,984.1968994140625,678.7840576171875,216.6110076904297,904.8627319335938,625.3905639648438,161.84494018554688,986.00244140625,878.4603271484375,179.61544799804688,-1.2633,6.2829,-7.1921,0.9766,-0.061,-0.6104,138.9331,7.5476,35.7111,0.8965,-0.2645,0.166,0.3142,2.115,-6.7758,-6.527,0.3052,-0.4272,-0.1221,-133.9178,-12.6672,-137.2852,-0.2929,-0.8675,-0.3253,0.2362,2.0528,-0.9905,9.666,-0.2441,-0.2441,0.5493,-5.8392,-11.9312,147.2717,-0.1139,0.0194,0.9545,0.2748,0.445,-0.7752,-9.4459,-0.6104,-0.3052,0.3052,-175.3198,-2.6752,-110.874,-0.5659,-0.8231,-0.0204,0.0424,-2.5361,8.7233,3.6606,0.5493,-0.5493,-0.6104,67.2308,15.0183,-157.5989,-0.0001,0.5596,-0.7959,0.2313,6.6609,-6.9672,-1.225,0.1831,-0.1831,0.4272,-99.9536,-43.2751,158.8568,-0.3637,0.6562,0.6394,-0.1679,-9.5416,-0.0239,-1.9619,0.4883,0.0,-0.061,-179.231,78.3545,65.4346,-0.6499,0.4225,-0.5287,0.3458,0,0,0,0,0,0,0,0,0,0,0,0,0,0,0,0,0,0,0,0,0,0,0,0,0,0,0,0,0,0,0,0,0,0,0,0
1777283893.0478625,583,1777283876.2694085,1777283891.5396292,1777283877.4929833,0,0,-15270.220756530762,-1223.5748767852783,1,1,0.0,0.0,0.0,0.0,0.0,0.0,0.0,0.0,0.0,0.0,0.0,0.0,0.0,0.0,0.0,0.0,0.0,0.0,0.0,0.0,0.0,0.0,0.0,0.0,0.0,0.0,0.0,789.580078125,700.933349609375,1102.5672607421875,1039.752685546875,667.6622314453125,1112.98681640625,789.1362915039062,517.3267211914062,1137.3546142578125,945.2695922851562,477.5419006347656,1138.9671630859375,709.3347778320312,604.01806640625,836.70166015625,758.233642578125,590.5254516601562,579.9811401367188,736.6428833007812,458.505615234375,465.6060791015625,754.87646484375,335.37542724609375,303.9593811035156,808.2033081054688,191.80162048339844,284.6808776855469,811.6223754882812,418.99786376953125,170.72283935546875,1080.481201171875,645.2077026367188,800.7861938476562,1028.43994140625,659.3802490234375,565.7792358398438,1036.3492431640625,658.8789672851562,429.1827087402344,985.159912109375,672.6939086914062,216.98577880859375,905.4584350585938,618.1829833984375,162.12167358398438,986.2000732421875,871.3696899414062,179.12277221679688,-1.2633,6.2829,-7.1921,0.9766,-0.061,-0.6104,138.9331,7.5476,35.7111,0.8965,-0.2645,0.166,0.3142,2.115,-6.7758,-6.527,0.3052,-0.4272,-0.1221,-133.9178,-12.6672,-137.2852,-0.2929,-0.8675,-0.3253,0.2362,2.0528,-0.9905,9.666,-0.2441,-0.2441,0.5493,-5.8392,-11.9312,147.2717,-0.1139,0.0194,0.9545,0.2748,0.445,-0.7752,-9.4459,-0.6104,-0.3052,0.3052,-175.3198,-2.6752,-110.874,-0.5659,-0.8231,-0.0204,0.0424,-2.5361,8.7233,3.6606,0.5493,-0.5493,-0.6104,67.2308,15.0183,-157.5989,-0.0001,0.5596,-0.7959,0.2313,6.6609,-6.9672,-1.225,0.1831,-0.1831,0.4272,-99.9536,-43.2751,158.8568,-0.3637,0.6562,0.6394,-0.1679,-9.5416,-0.0239,-1.9619,0.4883,0.0,-0.061,-179.231,78.3545,65.4346,-0.6499,0.4225,-0.5287,0.3458,0,0,0,0,0,0,0,0,0,0,0,0,0,0,0,0,0,0,0,0,0,0,0,0,0,0,0,0,0,0,0,0,0,0,0,0
1777283893.0478625,584,1777283876.2714183,1777283891.5396292,1777283877.4929833,0,0,-15268.210887908936,-1221.5650081634521,1,1,0.0,0.0,0.0,0.0,0.0,0.0,0.0,0.0,0.0,0.0,0.0,0.0,0.0,0.0,0.0,0.0,0.0,0.0,0.0,0.0,0.0,0.0,0.0,0.0,0.0,0.0,0.0,790.6634521484375,700.8674926757812,1103.3375244140625,1040.9310302734375,668.870361328125,1113.57861328125,790.8890991210938,517.1764526367188,1137.572998046875,947.2432250976562,478.220947265625,1139.2908935546875,710.7724609375,607.3136596679688,836.8175659179688,757.7020874023438,599.4391479492188,580.1692504882812,736.4246826171875,465.6946716308594,469.2862548828125,754.457275390625,339.32427978515625,310.2729187011719,808.9182739257812,197.90966796875,300.5742492675781,810.8550415039062,415.3590087890625,169.65042114257812,1081.7086181640625,645.4116821289062,801.1765747070312,1029.6748046875,658.2755126953125,566.275634765625,1037.58740234375,656.0055541992188,429.7574157714844,985.9196166992188,666.4432983398438,217.4002685546875,905.9166259765625,610.9708251953125,162.2779998779297,986.3807373046875,864.2052001953125,178.9364013671875,-1.2633,6.2829,-7.1921,0.9766,-0.061,-0.6104,138.9331,7.5476,35.7111,0.8965,-0.2645,0.166,0.3142,2.115,-6.7758,-6.527,0.3052,-0.4272,-0.1221,-133.9178,-12.6672,-137.2852,-0.2929,-0.8675,-0.3253,0.2362,2.0528,-0.9905,9.666,-0.2441,-0.2441,0.5493,-5.8392,-11.9312,147.2717,-0.1139,0.0194,0.9545,0.2748,0.445,-0.7752,-9.4459,-0.6104,-0.3052,0.3052,-175.3198,-2.6752,-110.874,-0.5659,-0.8231,-0.0204,0.0424,-2.5361,8.7233,3.6606,0.5493,-0.5493,-0.6104,67.2308,15.0183,-157.5989,-0.0001,0.5596,-0.7959,0.2313,6.6609,-6.9672,-1.225,0.1831,-0.1831,0.4272,-99.9536,-43.2751,158.8568,-0.3637,0.6562,0.6394,-0.1679,-9.5416,-0.0239,-1.9619,0.4883,0.0,-0.061,-179.231,78.3545,65.4346,-0.6499,0.4225,-0.5287,0.3458,0,0,0,0,0,0,0,0,0,0,0,0,0,0,0,0,0,0,0,0,0,0,0,0,0,0,0,0,0,0,0,0,0,0,0,0
1777283893.0478625,585,1777283876.2888868,1777283891.5396292,1777283877.4929833,0,0,-15250.742435455322,-1204.0965557098389,1,1,0.0,0.0,0.0,0.0,0.0,0.0,0.0,0.0,0.0,0.0,0.0,0.0,0.0,0.0,0.0,0.0,0.0,0.0,0.0,0.0,0.0,0.0,0.0,0.0,0.0,0.0,0.0,791.7208862304688,700.6175537109375,1104.220703125,1042.0748291015625,669.8395385742188,1114.271484375,792.6127319335938,516.8551635742188,1137.948486328125,949.1720581054688,478.7188415527344,1139.73974609375,712.1921997070312,610.5791015625,837.2057495117188,757.03369140625,608.6727294921875,580.7545776367188,736.1514282226562,473.4983215332031,473.27392578125,754.1038208007812,344.0911560058594,316.9032897949219,809.5982055664062,206.00607299804688,317.13885498046875,809.9342651367188,412.4940490722656,168.60128784179688,1082.986083984375,645.2219848632812,801.5179443359375,1030.7376708984375,656.7179565429688,566.7333374023438,1038.5606689453125,652.7015991210938,430.2832336425781,986.4730224609375,660.0468139648438,217.8213348388672,906.2509155273438,603.7537231445312,162.34544372558594,986.5289306640625,857.0031127929688,178.92567443847656,-1.2633,6.2829,-7.1921,0.9766,-0.061,-0.6104,138.9331,7.5476,35.7111,0.8965,-0.2645,0.166,0.3142,2.115,-6.7758,-6.527,0.3052,-0.4272,-0.1221,-133.9178,-12.6672,-137.2852,-0.2929,-0.8675,-0.3253,0.2362,2.0528,-0.9905,9.666,-0.2441,-0.2441,0.5493,-5.8392,-11.9312,147.2717,-0.1139,0.0194,0.9545,0.2748,0.445,-0.7752,-9.4459,-0.6104,-0.3052,0.3052,-175.3198,-2.6752,-110.874,-0.5659,-0.8231,-0.0204,0.0424,-2.5361,8.7233,3.6606,0.5493,-0.5493,-0.6104,67.2308,15.0183,-157.5989,-0.0001,0.5596,-0.7959,0.2313,6.6609,-6.9672,-1.225,0.1831,-0.1831,0.4272,-99.9536,-43.2751,158.8568,-0.3637,0.6562,0.6394,-0.1679,-9.5416,-0.0239,-1.9619,0.4883,0.0,-0.061,-179.231,78.3545,65.4346,-0.6499,0.4225,-0.5287,0.3458,0,0,0,0,0,0,0,0,0,0,0,0,0,0,0,0,0,0,0,0,0,0,0,0,0,0,0,0,0,0,0,0,0,0,0,0
1777283893.0488622,586,1777283876.2923965,1777283891.5396292,1777283877.4929833,0,0,-15247.232675552368,-1200.5867958068848,1,1,0.0,0.0,0.0,0.0,0.0,0.0,0.0,0.0,0.0,0.0,0.0,0.0,0.0,0.0,0.0,0.0,0.0,0.0,0.0,0.0,0.0,0.0,0.0,0.0,0.0,0.0,0.0,792.7518920898438,700.1881103515625,1105.2066650390625,1043.18505859375,670.5673217773438,1115.0457763671875,794.3047485351562,516.3653564453125,1138.472412109375,951.0531005859375,479.033935546875,1140.3026123046875,713.5686645507812,613.7864990234375,837.880615234375,756.2530517578125,618.1137084960938,581.7608032226562,735.841796875,481.7871398925781,477.52734375,753.8450317382812,349.5867614746094,323.7434387207031,810.3096923828125,215.8374786376953,333.8050537109375,808.8681640625,410.5840759277344,167.73704528808594,1084.28515625,644.6455078125,801.7811279296875,1031.6270751953125,654.7111206054688,567.1286010742188,1039.2861328125,648.9913940429688,430.73516845703125,986.8362426757812,653.5227661132812,218.22645568847656,906.4848022460938,596.5292358398438,162.35791015625,986.6412353515625,849.78466796875,178.9917449951172,-1.2633,6.2829,-7.1921,0.9766,-0.061,-0.6104,138.9331,7.5476,35.7111,0.8965,-0.2645,0.166,0.3142,2.115,-6.7758,-6.527,0.3052,-0.4272,-0.1221,-133.9178,-12.6672,-137.2852,-0.2929,-0.8675,-0.3253,0.2362,2.0528,-0.9905,9.666,-0.2441,-0.2441,0.5493,-5.8392,-11.9312,147.2717,-0.1139,0.0194,0.9545,0.2748,0.445,-0.7752,-9.4459,-0.6104,-0.3052,0.3052,-175.3198,-2.6752,-110.874,-0.5659,-0.8231,-0.0204,0.0424,-2.5361,8.7233,3.6606,0.5493,-0.5493,-0.6104,67.2308,15.0183,-157.5989,-0.0001,0.5596,-0.7959,0.2313,6.6609,-6.9672,-1.225,0.1831,-0.1831,0.4272,-99.9536,-43.2751,158.8568,-0.3637,0.6562,0.6394,-0.1679,-9.5416,-0.0239,-1.9619,0.4883,0.0,-0.061,-179.231,78.3545,65.4346,-0.6499,0.4225,-0.5287,0.3458,0,0,0,0,0,0,0,0,0,0,0,0,0,0,0,0,0,0,0,0,0,0,0,0,0,0,0,0,0,0,0,0,0,0,0,0
1777283893.0488622,587,1777283876.3065948,1777283891.5396292,1777283877.4929833,0,0,-15233.034372329712,-1186.3884925842285,1,1,0.0,0.0,0.0,0.0,0.0,0.0,0.0,0.0,0.0,0.0,0.0,0.0,0.0,0.0,0.0,0.0,0.0,0.0,0.0,0.0,0.0,0.0,0.0,0.0,0.0,0.0,0.0,793.756591796875,699.5875854492188,1106.283447265625,1044.263427734375,671.0576782226562,1115.8817138671875,795.9625854492188,515.7130737304688,1139.134033203125,952.8836059570312,479.16864013671875,1140.968017578125,714.876708984375,616.9124145507812,838.8486328125,755.3851318359375,627.6527709960938,583.1974487304688,735.5139770507812,490.4303283691406,481.98724365234375,753.7044677734375,355.72381591796875,330.6566467285156,811.1354370117188,226.99801635742188,349.91259765625,807.6634521484375,409.8794860839844,167.24710083007812,1085.5762939453125,643.7002563476562,801.9498291015625,1032.3521728515625,652.2741088867188,567.4489135742188,1039.7974853515625,644.916015625,431.10235595703125,987.0380249023438,646.8911743164062,218.60348510742188,906.6463012695312,589.2921752929688,162.34767150878906,986.7232666015625,842.55810546875,179.0685272216797,-1.2633,6.2829,-7.1921,0.9766,-0.061,-0.6104,138.9331,7.5476,35.7111,0.8965,-0.2645,0.166,0.3142,2.115,-6.7758,-6.527,0.3052,-0.4272,-0.1221,-133.9178,-12.6672,-137.2852,-0.2929,-0.8675,-0.3253,0.2362,2.0528,-0.9905,9.666,-0.2441,-0.2441,0.5493,-5.8392,-11.9312,147.2717,-0.1139,0.0194,0.9545,0.2748,0.445,-0.7752,-9.4459,-0.6104,-0.3052,0.3052,-175.3198,-2.6752,-110.874,-0.5659,-0.8231,-0.0204,0.0424,-2.5361,8.7233,3.6606,0.5493,-0.5493,-0.6104,67.2308,15.0183,-157.5989,-0.0001,0.5596,-0.7959,0.2313,6.6609,-6.9672,-1.225,0.1831,-0.1831,0.4272,-99.9536,-43.2751,158.8568,-0.3637,0.6562,0.6394,-0.1679,-9.5416,-0.0239,-1.9619,0.4883,0.0,-0.061,-179.231,78.3545,65.4346,-0.6499,0.4225,-0.5287,0.3458,0,0,0,0,0,0,0,0,0,0,0,0,0,0,0,0,0,0,0,0,0,0,0,0,0,0,0,0,0,0,0,0,0,0,0,0
1777283893.0488622,588,1777283876.310769,1777283891.5396292,1777283877.4929833,0,0,-15228.860139846802,-1182.2142601013184,1,1,0.0,0.0,0.0,0.0,0.0,0.0,0.0,0.0,0.0,0.0,0.0,0.0,0.0,0.0,0.0,0.0,0.0,0.0,0.0,0.0,0.0,0.0,0.0,0.0,0.0,0.0,0.0,794.7357788085938,698.8278198242188,1107.4376220703125,1045.3114013671875,671.320068359375,1116.7601318359375,797.5830688476562,514.9077758789062,1139.9207763671875,954.6609497070312,479.12896728515625,1141.7237548828125,716.0924682617188,619.9369506835938,840.1080322265625,754.4537963867188,637.1878051757812,585.0594482421875,735.1844482421875,499.3038330078125,486.57763671875,753.6974487304688,362.4243469238281,337.48095703125,812.16015625,238.95086669921875,364.7547607421875,806.3200073242188,410.68975830078125,167.3278045654297,1086.83056640625,642.414794921875,802.0206909179688,1032.929443359375,649.4373779296875,567.69189453125,1040.1376953125,640.52685546875,431.3858947753906,987.1129760742188,640.172119140625,218.94888305664062,906.7631225585938,582.0349731445312,162.34214782714844,986.7855224609375,835.3221435546875,179.11827087402344,-1.2633,6.2829,-7.1921,0.9766,-0.061,-0.6104,138.9331,7.5476,35.7111,0.8965,-0.2645,0.166,0.3142,2.115,-6.7758,-6.527,0.3052,-0.4272,-0.1221,-133.9178,-12.6672,-137.2852,-0.2929,-0.8675,-0.3253,0.2362,2.0528,-0.9905,9.666,-0.2441,-0.2441,0.5493,-5.8392,-11.9312,147.2717,-0.1139,0.0194,0.9545,0.2748,0.445,-0.7752,-9.4459,-0.6104,-0.3052,0.3052,-175.3198,-2.6752,-110.874,-0.5659,-0.8231,-0.0204,0.0424,-2.5361,8.7233,3.6606,0.5493,-0.5493,-0.6104,67.2308,15.0183,-157.5989,-0.0001,0.5596,-0.7959,0.2313,6.6609,-6.9672,-1.225,0.1831,-0.1831,0.4272,-99.9536,-43.2751,158.8568,-0.3637,0.6562,0.6394,-0.1679,-9.5416,-0.0239,-1.9619,0.4883,0.0,-0.061,-179.231,78.3545,65.4346,-0.6499,0.4225,-0.5287,0.3458,0,0,0,0,0,0,0,0,0,0,0,0,0,0,0,0,0,0,0,0,0,0,0,0,0,0,0,0,0,0,0,0,0,0,0,0
1777283893.0488622,589,1777283876.3227198,1777283891.5396292,1777283877.4929833,0,0,-15216.909408569336,-1170.2635288238525,1,1,0.0,0.0,0.0,0.0,0.0,0.0,0.0,0.0,0.0,0.0,0.0,0.0,0.0,0.0,0.0,0.0,0.0,0.0,0.0,0.0,0.0,0.0,0.0,0.0,0.0,0.0,0.0,795.690673828125,697.9229125976562,1108.6546630859375,1046.33056640625,671.36865234375,1117.6634521484375,799.1627807617188,513.9614868164062,1140.8189697265625,956.3826904296875,478.9241027832031,1142.5574951171875,717.1962280273438,622.8419189453125,841.6491088867188,753.4811401367188,646.6261596679688,587.32763671875,734.866455078125,508.2966613769531,491.2081604003906,753.8290405273438,369.6249694824219,344.0367736816406,813.452392578125,251.08517456054688,377.6412048339844,804.8269653320312,413.3526306152344,168.1510772705078,1088.019775390625,640.8258666992188,802.0018310546875,1033.378662109375,646.23828125,567.862548828125,1040.3507080078125,635.878662109375,431.5951232910156,987.0950927734375,633.3841552734375,219.26524353027344,906.8589477539062,574.7486572265625,162.36183166503906,986.83984375,828.0697631835938,179.1245880126953,-1.2633,6.2829,-7.1921,0.9766,-0.061,-0.6104,138.9331,7.5476,35.7111,0.8965,-0.2645,0.166,0.3142,2.115,-6.7758,-6.527,0.3052,-0.4272,-0.1221,-133.9178,-12.6672,-137.2852,-0.2929,-0.8675,-0.3253,0.2362,2.0528,-0.9905,9.666,-0.2441,-0.2441,0.5493,-5.8392,-11.9312,147.2717,-0.1139,0.0194,0.9545,0.2748,0.445,-0.7752,-9.4459,-0.6104,-0.3052,0.3052,-175.3198,-2.6752,-110.874,-0.5659,-0.8231,-0.0204,0.0424,-2.5361,8.7233,3.6606,0.5493,-0.5493,-0.6104,67.2308,15.0183,-157.5989,-0.0001,0.5596,-0.7959,0.2313,6.6609,-6.9672,-1.225,0.1831,-0.1831,0.4272,-99.9536,-43.2751,158.8568,-0.3637,0.6562,0.6394,-0.1679,-9.5416,-0.0239,-1.9619,0.4883,0.0,-0.061,-179.231,78.3545,65.4346,-0.6499,0.4225,-0.5287,0.3458,0,0,0,0,0,0,0,0,0,0,0,0,0,0,0,0,0,0,0,0,0,0,0,0,0,0,0,0,0,0,0,0,0,0,0,0
1777283893.0488622,590,1777283876.342236,1777283891.5396292,1777283877.4929833,0,0,-15197.39317893982,-1150.747299194336,1,1,0.0,0.0,0.0,0.0,0.0,0.0,0.0,0.0,0.0,0.0,0.0,0.0,0.0,0.0,0.0,0.0,0.0,0.0,0.0,0.0,0.0,0.0,0.0,0.0,0.0,0.0,0.0,796.6226196289062,696.8885498046875,1109.9195556640625,1047.322265625,671.2213134765625,1118.576171875,800.6978759765625,512.8883056640625,1141.8138427734375,958.0465087890625,478.5657958984375,1143.45703125,718.173583984375,625.6090087890625,843.4539794921875,752.4866943359375,655.8861083984375,589.9701538085938,734.5690307617188,517.3152465820312,495.7774963378906,754.09375,377.2798767089844,350.13653564453125,815.0460205078125,262.8103332519531,387.9748840332031,803.1625366210938,418.1839904785156,169.82501220703125,1089.1190185546875,638.976318359375,801.9099731445312,1033.7196044921875,642.716552734375,567.9710693359375,1040.4754638671875,631.0233764648438,431.7439880371094,987.0126342773438,626.5431518554688,219.5585174560547,906.951171875,567.4236450195312,162.41981506347656,986.8966674804688,820.7919311523438,179.08517456054688,-1.2633,6.2829,-7.1921,0.9766,-0.061,-0.6104,138.9331,7.5476,35.7111,0.8965,-0.2645,0.166,0.3142,2.115,-6.7758,-6.527,0.3052,-0.4272,-0.1221,-133.9178,-12.6672,-137.2852,-0.2929,-0.8675,-0.3253,0.2362,2.0528,-0.9905,9.666,-0.2441,-0.2441,0.5493,-5.8392,-11.9312,147.2717,-0.1139,0.0194,0.9545,0.2748,0.445,-0.7752,-9.4459,-0.6104,-0.3052,0.3052,-175.3198,-2.6752,-110.874,-0.5659,-0.8231,-0.0204,0.0424,-2.5361,8.7233,3.6606,0.5493,-0.5493,-0.6104,67.2308,15.0183,-157.5989,-0.0001,0.5596,-0.7959,0.2313,6.6609,-6.9672,-1.225,0.1831,-0.1831,0.4272,-99.9536,-43.2751,158.8568,-0.3637,0.6562,0.6394,-0.1679,-9.5416,-0.0239,-1.9619,0.4883,0.0,-0.061,-179.231,78.3545,65.4346,-0.6499,0.4225,-0.5287,0.3458,0,0,0,0,0,0,0,0,0,0,0,0,0,0,0,0,0,0,0,0,0,0,0,0,0,0,0,0,0,0,0,0,0,0,0,0
1777283893.0488622,591,1777283876.3432376,1777283891.5396292,1777283877.4929833,0,0,-15196.391582489014,-1149.7457027435303,1,1,0.0,0.0,0.0,0.0,0.0,0.0,0.0,0.0,0.0,0.0,0.0,0.0,0.0,0.0,0.0,0.0,0.0,0.0,0.0,0.0,0.0,0.0,0.0,0.0,0.0,0.0,0.0,797.5326538085938,695.7413330078125,1111.2164306640625,1048.2872314453125,670.8986206054688,1119.484130859375,802.1846313476562,511.7037048339844,1142.8902587890625,959.650146484375,478.0680236816406,1144.409912109375,719.0175170898438,628.2175903320312,845.49755859375,751.4877319335938,664.8970947265625,592.9446411132812,734.2968139648438,526.28564453125,500.1783142089844,754.4756469726562,385.3616027832031,355.5950927734375,816.9269409179688,273.6744689941406,395.329833984375,801.2967529296875,425.41650390625,172.3558807373047,1090.1063232421875,636.9115600585938,801.76611328125,1033.9697265625,638.9110717773438,568.0294799804688,1040.5413818359375,626.0050659179688,431.847412109375,986.8849487304688,619.662109375,219.83560180664062,907.0502319335938,560.0511474609375,162.52230834960938,986.9633178710938,813.4803466796875,179.00576782226562,-1.2633,6.2829,-7.1921,0.9766,-0.061,-0.6104,138.9331,7.5476,35.7111,0.8965,-0.2645,0.166,0.3142,2.115,-6.7758,-6.527,0.3052,-0.4272,-0.1221,-133.9178,-12.6672,-137.2852,-0.2929,-0.8675,-0.3253,0.2362,2.0528,-0.9905,9.666,-0.2441,-0.2441,0.5493,-5.8392,-11.9312,147.2717,-0.1139,0.0194,0.9545,0.2748,0.445,-0.7752,-9.4459,-0.6104,-0.3052,0.3052,-175.3198,-2.6752,-110.874,-0.5659,-0.8231,-0.0204,0.0424,-2.5361,8.7233,3.6606,0.5493,-0.5493,-0.6104,67.2308,15.0183,-157.5989,-0.0001,0.5596,-0.7959,0.2313,6.6609,-6.9672,-1.225,0.1831,-0.1831,0.4272,-99.9536,-43.2751,158.8568,-0.3637,0.6562,0.6394,-0.1679,-9.5416,-0.0239,-1.9619,0.4883,0.0,-0.061,-179.231,78.3545,65.4346,-0.6499,0.4225,-0.5287,0.3458,0,0,0,0,0,0,0,0,0,0,0,0,0,0,0,0,0,0,0,0,0,0,0,0,0,0,0,0,0,0,0,0,0,0,0,0
1777283893.0488622,592,1777283876.3580399,1777283891.5396292,1777283877.4929833,0,0,-15181.589365005493,-1134.9434852600098,1,1,0.0,0.0,0.0,0.0,0.0,0.0,0.0,0.0,0.0,0.0,0.0,0.0,0.0,0.0,0.0,0.0,0.0,0.0,0.0,0.0,0.0,0.0,0.0,0.0,0.0,0.0,0.0,798.4208984375,694.498046875,1112.5294189453125,1049.2257080078125,670.4230346679688,1120.3751220703125,803.6192016601562,510.4239501953125,1144.0323486328125,961.1917724609375,477.44622802734375,1145.4036865234375,719.7286987304688,630.6433715820312,847.7482299804688,750.4994506835938,673.599365234375,596.20068359375,734.0499267578125,535.154296875,504.30224609375,754.9487915039062,393.8604736328125,360.2401428222656,819.033447265625,283.46942138671875,399.50714111328125,799.197265625,435.1448059082031,175.62815856933594,1090.9649658203125,634.6763916015625,801.591796875,1034.1417236328125,634.8571166992188,568.0499267578125,1040.5665283203125,620.857666015625,431.9187316894531,986.7210693359375,612.7505493164062,220.10255432128906,907.1600952148438,552.6246337890625,162.66940307617188,987.0435180664062,806.1292724609375,178.89527893066406,-1.2633,6.2829,-7.1921,0.9766,-0.061,-0.6104,138.9331,7.5476,35.7111,0.8965,-0.2645,0.166,0.3142,2.115,-6.7758,-6.527,0.3052,-0.4272,-0.1221,-133.9178,-12.6672,-137.2852,-0.2929,-0.8675,-0.3253,0.2362,2.0528,-0.9905,9.666,-0.2441,-0.2441,0.5493,-5.8392,-11.9312,147.2717,-0.1139,0.0194,0.9545,0.2748,0.445,-0.7752,-9.4459,-0.6104,-0.3052,0.3052,-175.3198,-2.6752,-110.874,-0.5659,-0.8231,-0.0204,0.0424,-2.5361,8.7233,3.6606,0.5493,-0.5493,-0.6104,67.2308,15.0183,-157.5989,-0.0001,0.5596,-0.7959,0.2313,6.6609,-6.9672,-1.225,0.1831,-0.1831,0.4272,-99.9536,-43.2751,158.8568,-0.3637,0.6562,0.6394,-0.1679,-9.5416,-0.0239,-1.9619,0.4883,0.0,-0.061,-179.231,78.3545,65.4346,-0.6499,0.4225,-0.5287,0.3458,0,0,0,0,0,0,0,0,0,0,0,0,0,0,0,0,0,0,0,0,0,0,0,0,0,0,0,0,0,0,0,0,0,0,0,0
1777283893.0488622,593,1777283876.3695977,1777283891.5396292,1777283877.4929833,0,0,-15170.031547546387,-1123.3856678009033,1,1,0.0,0.0,0.0,0.0,0.0,0.0,0.0,0.0,0.0,0.0,0.0,0.0,0.0,0.0,0.0,0.0,0.0,0.0,0.0,0.0,0.0,0.0,0.0,0.0,0.0,0.0,0.0,799.286376953125,693.1752319335938,1113.8427734375,1050.136962890625,669.8179931640625,1121.23828125,804.9981689453125,509.0655822753906,1145.22412109375,962.6698608398438,476.7170104980469,1146.4259033203125,720.3153076171875,632.8589477539062,850.169189453125,749.535400390625,681.9428100585938,599.6823120117188,733.82421875,543.886474609375,508.0452880859375,755.4785766601562,402.782958984375,363.9209899902344,821.2706909179688,292.2718811035156,400.5472106933594,796.8346557617188,447.29791259765625,179.4149169921875,1091.6837158203125,632.3118896484375,801.4054565429688,1034.2445068359375,630.5859985351562,568.0426025390625,1040.55810546875,615.6041259765625,431.9679870605469,986.5208129882812,605.8153076171875,220.36349487304688,907.27880859375,545.1412963867188,162.8560333251953,987.1373901367188,798.736572265625,178.76255798339844,-1.2633,6.2829,-7.1921,0.9766,-0.061,-0.6104,138.9331,7.5476,35.7111,0.8965,-0.2645,0.166,0.3142,2.115,-6.7758,-6.527,0.3052,-0.4272,-0.1221,-133.9178,-12.6672,-137.2852,-0.2929,-0.8675,-0.3253,0.2362,2.0528,-0.9905,9.666,-0.2441,-0.2441,0.5493,-5.8392,-11.9312,147.2717,-0.1139,0.0194,0.9545,0.2748,0.445,-0.7752,-9.4459,-0.6104,-0.3052,0.3052,-175.3198,-2.6752,-110.874,-0.5659,-0.8231,-0.0204,0.0424,-2.5361,8.7233,3.6606,0.5493,-0.5493,-0.6104,67.2308,15.0183,-157.5989,-0.0001,0.5596,-0.7959,0.2313,6.6609,-6.9672,-1.225,0.1831,-0.1831,0.4272,-99.9536,-43.2751,158.8568,-0.3637,0.6562,0.6394,-0.1679,-9.5416,-0.0239,-1.9619,0.4883,0.0,-0.061,-179.231,78.3545,65.4346,-0.6499,0.4225,-0.5287,0.3458,0,0,0,0,0,0,0,0,0,0,0,0,0,0,0,0,0,0,0,0,0,0,0,0,0,0,0,0,0,0,0,0,0,0,0,0
1777283893.0488622,594,1777283876.3733897,1777283891.5396292,1777283877.4929833,0,0,-15166.239500045776,-1119.593620300293,1,1,0.0,0.0,0.0,0.0,0.0,0.0,0.0,0.0,0.0,0.0,0.0,0.0,0.0,0.0,0.0,0.0,0.0,0.0,0.0,0.0,0.0,0.0,0.0,0.0,0.0,0.0,0.0,800.1268310546875,691.7889404296875,1115.1407470703125,1051.0191650390625,669.1072387695312,1122.0633544921875,806.3187866210938,507.64520263671875,1146.4495849609375,964.0833740234375,475.8977355957031,1147.464599609375,720.79150390625,634.8350830078125,852.7196655273438,748.6080322265625,689.8854370117188,603.3302612304688,733.6119384765625,552.4642944335938,511.31231689453125,756.02294921875,412.1480407714844,366.5157775878906,823.531494140625,300.40130615234375,398.6934814453125,794.1869506835938,461.6510314941406,183.41688537597656,1092.25732421875,629.8526611328125,801.2197875976562,1034.2823486328125,626.1251831054688,568.0150756835938,1040.514892578125,610.2588500976562,432.0014343261719,986.27685546875,598.8607177734375,220.62022399902344,907.4002685546875,537.6023559570312,163.07278442382812,987.2423706054688,791.3036499023438,178.61456298828125,-1.2633,6.2829,-7.1921,0.9766,-0.061,-0.6104,138.9331,7.5476,35.7111,0.8965,-0.2645,0.166,0.3142,2.115,-6.7758,-6.527,0.3052,-0.4272,-0.1221,-133.9178,-12.6672,-137.2852,-0.2929,-0.8675,-0.3253,0.2362,2.0528,-0.9905,9.666,-0.2441,-0.2441,0.5493,-5.8392,-11.9312,147.2717,-0.1139,0.0194,0.9545,0.2748,0.445,-0.7752,-9.4459,-0.6104,-0.3052,0.3052,-175.3198,-2.6752,-110.874,-0.5659,-0.8231,-0.0204,0.0424,-2.5361,8.7233,3.6606,0.5493,-0.5493,-0.6104,67.2308,15.0183,-157.5989,-0.0001,0.5596,-0.7959,0.2313,6.6609,-6.9672,-1.225,0.1831,-0.1831,0.4272,-99.9536,-43.2751,158.8568,-0.3637,0.6562,0.6394,-0.1679,-9.5416,-0.0239,-1.9619,0.4883,0.0,-0.061,-179.231,78.3545,65.4346,-0.6499,0.4225,-0.5287,0.3458,0,0,0,0,0,0,0,0,0,0,0,0,0,0,0,0,0,0,0,0,0,0,0,0,0,0,0,0,0,0,0,0,0,0,0,0
1777283893.0488622,595,1777283876.3905506,1777283891.5396292,1777283877.4929833,0,0,-15149.078607559204,-1102.4327278137207,1,1,0.0,0.0,0.0,0.0,0.0,0.0,0.0,0.0,0.0,0.0,0.0,0.0,0.0,0.0,0.0,0.0,0.0,0.0,0.0,0.0,0.0,0.0,0.0,0.0,0.0,0.0,0.0,800.9385986328125,690.3543090820312,1116.4080810546875,1051.8695068359375,668.3140869140625,1122.8404541015625,807.5787353515625,506.178955078125,1147.6927490234375,965.431640625,475.0060119628906,1148.5074462890625,721.1754760742188,636.5432739257812,855.3565063476562,747.72900390625,697.391845703125,607.0841674804688,733.4021606445312,560.88330078125,514.0209350585938,756.5352783203125,421.9825439453125,367.9366149902344,825.7125854492188,308.3218078613281,394.32159423828125,791.2411499023438,477.8718566894531,187.31658935546875,1092.687255859375,627.3253784179688,801.040771484375,1034.2572021484375,621.4993286132812,567.97216796875,1040.4302978515625,604.8301391601562,432.02154541015625,985.9783325195312,591.8893432617188,220.87229919433594,907.5161743164062,530.0127563476562,163.3077850341797,987.3546752929688,783.8347778320312,178.45599365234375,-1.2633,6.2829,-7.1921,0.9766,-0.061,-0.6104,138.9331,7.5476,35.7111,0.8965,-0.2645,0.166,0.3142,2.115,-6.7758,-6.527,0.3052,-0.4272,-0.1221,-133.9178,-12.6672,-137.2852,-0.2929,-0.8675,-0.3253,0.2362,2.0528,-0.9905,9.666,-0.2441,-0.2441,0.5493,-5.8392,-11.9312,147.2717,-0.1139,0.0194,0.9545,0.2748,0.445,-0.7752,-9.4459,-0.6104,-0.3052,0.3052,-175.3198,-2.6752,-110.874,-0.5659,-0.8231,-0.0204,0.0424,-2.5361,8.7233,3.6606,0.5493,-0.5493,-0.6104,67.2308,15.0183,-157.5989,-0.0001,0.5596,-0.7959,0.2313,6.6609,-6.9672,-1.225,0.1831,-0.1831,0.4272,-99.9536,-43.2751,158.8568,-0.3637,0.6562,0.6394,-0.1679,-9.5416,-0.0239,-1.9619,0.4883,0.0,-0.061,-179.231,78.3545,65.4346,-0.6499,0.4225,-0.5287,0.3458,0,0,0,0,0,0,0,0,0,0,0,0,0,0,0,0,0,0,0,0,0,0,0,0,0,0,0,0,0,0,0,0,0,0,0,0
1777283893.0498593,596,1777283876.3930972,1777283891.5396292,1777283877.4929833,0,0,-15146.53205871582,-1099.886178970337,1,1,0.0,0.0,0.0,0.0,0.0,0.0,0.0,0.0,0.0,0.0,0.0,0.0,0.0,0.0,0.0,0.0,0.0,0.0,0.0,0.0,0.0,0.0,0.0,0.0,0.0,0.0,0.0,801.7169189453125,688.8856811523438,1117.6297607421875,1052.684326171875,667.4609985351562,1123.56005859375,808.7764892578125,504.6824951171875,1148.9381103515625,966.7144775390625,474.0594177246094,1149.542724609375,721.4869384765625,637.9578857421875,858.0357055664062,746.9089965820312,704.4314575195312,610.8839111328125,733.1814575195312,569.1485595703125,516.1046752929688,756.9669189453125,432.31640625,368.1324768066406,827.7228393554688,316.5303039550781,387.85662841796875,787.99365234375,495.58428955078125,190.83114624023438,1092.9798583984375,624.7485961914062,800.8677978515625,1034.16943359375,616.7320556640625,567.9156494140625,1040.2955322265625,599.323974609375,432.0279235839844,985.6146240234375,584.9024047851562,221.1176300048828,907.6184692382812,522.3802490234375,163.54904174804688,987.4696655273438,776.336669921875,178.28919982910156,-1.2633,6.2829,-7.1921,0.9766,-0.061,-0.6104,138.9331,7.5476,35.7111,0.8965,-0.2645,0.166,0.3142,2.115,-6.7758,-6.527,0.3052,-0.4272,-0.1221,-133.9178,-12.6672,-137.2852,-0.2929,-0.8675,-0.3253,0.2362,2.0528,-0.9905,9.666,-0.2441,-0.2441,0.5493,-5.8392,-11.9312,147.2717,-0.1139,0.0194,0.9545,0.2748,0.445,-0.7752,-9.4459,-0.6104,-0.3052,0.3052,-175.3198,-2.6752,-110.874,-0.5659,-0.8231,-0.0204,0.0424,-2.5361,8.7233,3.6606,0.5493,-0.5493,-0.6104,67.2308,15.0183,-157.5989,-0.0001,0.5596,-0.7959,0.2313,6.6609,-6.9672,-1.225,0.1831,-0.1831,0.4272,-99.9536,-43.2751,158.8568,-0.3637,0.6562,0.6394,-0.1679,-9.5416,-0.0239,-1.9619,0.4883,0.0,-0.061,-179.231,78.3545,65.4346,-0.6499,0.4225,-0.5287,0.3458,0,0,0,0,0,0,0,0,0,0,0,0,0,0,0,0,0,0,0,0,0,0,0,0,0,0,0,0,0,0,0,0,0,0,0,0
1777283893.0498593,597,1777283876.4078841,1777283891.5396292,1777283877.4929833,0,0,-15131.745100021362,-1085.099220275879,1,1,0.0,0.0,0.0,0.0,0.0,0.0,0.0,0.0,0.0,0.0,0.0,0.0,0.0,0.0,0.0,0.0,0.0,0.0,0.0,0.0,0.0,0.0,0.0,0.0,0.0,0.0,0.0,802.4563598632812,687.3966064453125,1118.7913818359375,1053.4588623046875,666.5692138671875,1124.21240234375,809.9111938476562,503.1708679199219,1150.17041015625,967.9320678710938,473.07537841796875,1150.55908203125,721.7452392578125,639.0589599609375,860.7132568359375,746.15771484375,710.9771728515625,614.6707763671875,732.9345092773438,577.2708129882812,517.5147094726562,757.2698974609375,443.17938232421875,367.0904235839844,829.4854736328125,325.4637145996094,379.69921875,784.451171875,514.428955078125,193.75119018554688,1093.1461181640625,622.1334228515625,800.69482421875,1034.0196533203125,611.8471069335938,567.84521484375,1040.1029052734375,593.7465209960938,432.0182800292969,985.1785888671875,577.900634765625,221.35336303710938,907.7014770507812,514.7145385742188,163.7865447998047,987.5823974609375,768.8168334960938,178.11453247070312,-1.2633,6.2829,-7.1921,0.9766,-0.061,-0.6104,138.9331,7.5476,35.7111,0.8965,-0.2645,0.166,0.3142,2.115,-6.7758,-6.527,0.3052,-0.4272,-0.1221,-133.9178,-12.6672,-137.2852,-0.2929,-0.8675,-0.3253,0.2362,2.0528,-0.9905,9.666,-0.2441,-0.2441,0.5493,-5.8392,-11.9312,147.2717,-0.1139,0.0194,0.9545,0.2748,0.445,-0.7752,-9.4459,-0.6104,-0.3052,0.3052,-175.3198,-2.6752,-110.874,-0.5659,-0.8231,-0.0204,0.0424,-2.5361,8.7233,3.6606,0.5493,-0.5493,-0.6104,67.2308,15.0183,-157.5989,-0.0001,0.5596,-0.7959,0.2313,6.6609,-6.9672,-1.225,0.1831,-0.1831,0.4272,-99.9536,-43.2751,158.8568,-0.3637,0.6562,0.6394,-0.1679,-9.5416,-0.0239,-1.9619,0.4883,0.0,-0.061,-179.231,78.3545,65.4346,-0.6499,0.4225,-0.5287,0.3458,0,0,0,0,0,0,0,0,0,0,0,0,0,0,0,0,0,0,0,0,0,0,0,0,0,0,0,0,0,0,0,0,0,0,0,0
1777283893.0498593,598,1777283876.4102747,1777283891.5396292,1777283877.4929833,0,0,-15129.354476928711,-1082.7085971832275,1,1,0.0,0.0,0.0,0.0,0.0,0.0,0.0,0.0,0.0,0.0,0.0,0.0,0.0,0.0,0.0,0.0,0.0,0.0,0.0,0.0,0.0,0.0,0.0,0.0,0.0,0.0,0.0,803.1510009765625,685.9002075195312,1119.8792724609375,1054.1884765625,665.6583862304688,1124.7877197265625,810.9822998046875,501.6585998535156,1151.3753662109375,969.0847778320312,472.0707092285156,1151.54541015625,721.9668579101562,639.8338623046875,863.3466186523438,745.4833374023438,717.0040893554688,618.3880615234375,732.6455078125,585.2628784179688,518.2216796875,757.3997192382812,454.5998229980469,364.83428955078125,830.9367065429688,335.44342041015625,370.1752014160156,780.6314697265625,534.1065673828125,195.95912170410156,1093.1995849609375,619.4855346679688,800.512451171875,1033.8099365234375,606.8689575195312,567.7593383789062,1039.84814453125,588.1062622070312,431.98980712890625,984.6695556640625,570.8839721679688,221.57696533203125,907.7626342773438,507.02691650390625,164.0130157470703,987.6882934570312,761.2825927734375,177.9312286376953,-1.2633,6.2829,-7.1921,0.9766,-0.061,-0.6104,138.9331,7.5476,35.7111,0.8965,-0.2645,0.166,0.3142,2.115,-6.7758,-6.527,0.3052,-0.4272,-0.1221,-133.9178,-12.6672,-137.2852,-0.2929,-0.8675,-0.3253,0.2362,2.0528,-0.9905,9.666,-0.2441,-0.2441,0.5493,-5.8392,-11.9312,147.2717,-0.1139,0.0194,0.9545,0.2748,0.445,-0.7752,-9.4459,-0.6104,-0.3052,0.3052,-175.3198,-2.6752,-110.874,-0.5659,-0.8231,-0.0204,0.0424,-2.5361,8.7233,3.6606,0.5493,-0.5493,-0.6104,67.2308,15.0183,-157.5989,-0.0001,0.5596,-0.7959,0.2313,6.6609,-6.9672,-1.225,0.1831,-0.1831,0.4272,-99.9536,-43.2751,158.8568,-0.3637,0.6562,0.6394,-0.1679,-9.5416,-0.0239,-1.9619,0.4883,0.0,-0.061,-179.231,78.3545,65.4346,-0.6499,0.4225,-0.5287,0.3458,0,0,0,0,0,0,0,0,0,0,0,0,0,0,0,0,0,0,0,0,0,0,0,0,0,0,0,0,0,0,0,0,0,0,0,0
1777283893.0498593,599,1777283876.4231527,1777283891.5396292,1777283877.4929833,0,0,-15116.47653579712,-1069.8306560516357,1,1,0.0,0.0,0.0,0.0,0.0,0.0,0.0,0.0,0.0,0.0,0.0,0.0,0.0,0.0,0.0,0.0,0.0,0.0,0.0,0.0,0.0,0.0,0.0,0.0,0.0,0.0,0.0,803.795166015625,684.4088134765625,1120.880615234375,1054.8677978515625,664.7466430664062,1125.2767333984375,811.9896240234375,500.15960693359375,1152.5389404296875,970.1729736328125,471.0616455078125,1152.491455078125,722.1640625,640.2789306640625,865.89501953125,744.8919677734375,722.4888305664062,621.9812622070312,732.2988891601562,593.1377563476562,518.2150268554688,757.31689453125,466.6047058105469,361.4220275878906,832.0239868164062,346.659423828125,359.51580810546875,776.5639038085938,554.3992919921875,197.42742919921875,1093.15478515625,616.80712890625,800.3097534179688,1033.544189453125,601.8233642578125,567.6558837890625,1039.531494140625,582.414306640625,431.9405212402344,984.0948486328125,563.8519287109375,221.78701782226562,907.802490234375,499.3294982910156,164.2237548828125,987.7839965820312,753.739990234375,177.7383270263672,-1.2633,6.2829,-7.1921,0.9766,-0.061,-0.6104,138.9331,7.5476,35.7111,0.8965,-0.2645,0.166,0.3142,2.115,-6.7758,-6.527,0.3052,-0.4272,-0.1221,-133.9178,-12.6672,-137.2852,-0.2929,-0.8675,-0.3253,0.2362,2.0528,-0.9905,9.666,-0.2441,-0.2441,0.5493,-5.8392,-11.9312,147.2717,-0.1139,0.0194,0.9545,0.2748,0.445,-0.7752,-9.4459,-0.6104,-0.3052,0.3052,-175.3198,-2.6752,-110.874,-0.5659,-0.8231,-0.0204,0.0424,-2.5361,8.7233,3.6606,0.5493,-0.5493,-0.6104,67.2308,15.0183,-157.5989,-0.0001,0.5596,-0.7959,0.2313,6.6609,-6.9672,-1.225,0.1831,-0.1831,0.4272,-99.9536,-43.2751,158.8568,-0.3637,0.6562,0.6394,-0.1679,-9.5416,-0.0239,-1.9619,0.4883,0.0,-0.061,-179.231,78.3545,65.4346,-0.6499,0.4225,-0.5287,0.3458,0,0,0,0,0,0,0,0,0,0,0,0,0,0,0,0,0,0,0,0,0,0,0,0,0,0,0,0,0,0,0,0,0,0,0,0
1777283893.0498593,600,1777283876.4394722,1777283891.5396292,1777283877.4929833,0,0,-15100.157022476196,-1053.511142730713,1,1,0.0,0.0,0.0,0.0,0.0,0.0,0.0,0.0,0.0,0.0,0.0,0.0,0.0,0.0,0.0,0.0,0.0,0.0,0.0,0.0,0.0,0.0,0.0,0.0,0.0,0.0,0.0,804.3837890625,682.9345703125,1121.7838134765625,1055.4921875,663.85009765625,1125.6705322265625,812.9332275390625,498.687255859375,1153.6483154296875,971.1968994140625,470.06353759765625,1153.3876953125,722.3438110351562,640.39990234375,868.3204345703125,744.3872680664062,727.4093017578125,625.3985595703125,731.8809204101562,600.9075317382812,517.5023193359375,756.989013671875,479.2196960449219,356.9416198730469,832.7054443359375,359.1859436035156,347.8675231933594,772.2886962890625,575.1702880859375,198.2023162841797,1093.026123046875,614.099609375,800.0765991210938,1033.2293701171875,596.7365112304688,567.5333862304688,1039.1590576171875,576.6842651367188,431.8702697753906,983.4696044921875,556.8035888671875,221.98377990722656,907.8246459960938,491.63427734375,164.4160614013672,987.8685302734375,746.193115234375,177.53575134277344,-1.2633,6.2829,-7.1921,0.9766,-0.061,-0.6104,138.9331,7.5476,35.7111,0.8965,-0.2645,0.166,0.3142,2.115,-6.7758,-6.527,0.3052,-0.4272,-0.1221,-133.9178,-12.6672,-137.2852,-0.2929,-0.8675,-0.3253,0.2362,2.0528,-0.9905,9.666,-0.2441,-0.2441,0.5493,-5.8392,-11.9312,147.2717,-0.1139,0.0194,0.9545,0.2748,0.445,-0.7752,-9.4459,-0.6104,-0.3052,0.3052,-175.3198,-2.6752,-110.874,-0.5659,-0.8231,-0.0204,0.0424,-2.5361,8.7233,3.6606,0.5493,-0.5493,-0.6104,67.2308,15.0183,-157.5989,-0.0001,0.5596,-0.7959,0.2313,6.6609,-6.9672,-1.225,0.1831,-0.1831,0.4272,-99.9536,-43.2751,158.8568,-0.3637,0.6562,0.6394,-0.1679,-9.5416,-0.0239,-1.9619,0.4883,0.0,-0.061,-179.231,78.3545,65.4346,-0.6499,0.4225,-0.5287,0.3458,0,0,0,0,0,0,0,0,0,0,0,0,0,0,0,0,0,0,0,0,0,0,0,0,0,0,0,0,0,0,0,0,0,0,0,0
1777283893.0498593,601,1777283876.4424734,1777283891.5396292,1777283877.4929833,0,0,-15097.155809402466,-1050.5099296569824,1,1,0.0,0.0,0.0,0.0,0.0,0.0,0.0,0.0,0.0,0.0,0.0,0.0,0.0,0.0,0.0,0.0,0.0,0.0,0.0,0.0,0.0,0.0,0.0,0.0,0.0,0.0,0.0,804.9127197265625,681.4894409179688,1122.5782470703125,1056.0576171875,662.9832153320312,1125.9617919921875,813.8128051757812,497.25433349609375,1154.691650390625,972.156494140625,469.0909118652344,1154.2252197265625,722.507568359375,640.2114868164062,870.5879516601562,743.969970703125,731.7448120117188,628.5911254882812,731.3801879882812,608.5830688476562,516.1068115234375,756.3920288085938,492.4692687988281,351.50592041015625,832.9524536132812,373.0152893066406,335.32427978515625,767.8548583984375,596.3492431640625,198.38034057617188,1092.8271484375,611.3655395507812,799.8049926757812,1032.8748779296875,591.6341552734375,567.3914184570312,1038.74169921875,570.9310913085938,431.78143310546875,982.8156127929688,549.7374267578125,222.1692657470703,907.8346557617188,483.9517517089844,164.58872985839844,987.9437255859375,738.6436157226562,177.3248291015625,-1.2633,6.2829,-7.1921,0.9766,-0.061,-0.6104,138.9331,7.5476,35.7111,0.8965,-0.2645,0.166,0.3142,2.115,-6.7758,-6.527,0.3052,-0.4272,-0.1221,-133.9178,-12.6672,-137.2852,-0.2929,-0.8675,-0.3253,0.2362,2.0528,-0.9905,9.666,-0.2441,-0.2441,0.5493,-5.8392,-11.9312,147.2717,-0.1139,0.0194,0.9545,0.2748,0.445,-0.7752,-9.4459,-0.6104,-0.3052,0.3052,-175.3198,-2.6752,-110.874,-0.5659,-0.8231,-0.0204,0.0424,-2.5361,8.7233,3.6606,0.5493,-0.5493,-0.6104,67.2308,15.0183,-157.5989,-0.0001,0.5596,-0.7959,0.2313,6.6609,-6.9672,-1.225,0.1831,-0.1831,0.4272,-99.9536,-43.2751,158.8568,-0.3637,0.6562,0.6394,-0.1679,-9.5416,-0.0239,-1.9619,0.4883,0.0,-0.061,-179.231,78.3545,65.4346,-0.6499,0.4225,-0.5287,0.3458,0,0,0,0,0,0,0,0,0,0,0,0,0,0,0,0,0,0,0,0,0,0,0,0,0,0,0,0,0,0,0,0,0,0,0,0
1777283893.0498593,602,1777283876.4575796,1777283891.5396292,1777283877.4929833,0,0,-15082.04960823059,-1035.4037284851074,1,1,0.0,0.0,0.0,0.0,0.0,0.0,0.0,0.0,0.0,0.0,0.0,0.0,0.0,0.0,0.0,0.0,0.0,0.0,0.0,0.0,0.0,0.0,0.0,0.0,0.0,0.0,0.0,805.3789672851562,680.0850830078125,1123.255126953125,1056.560791015625,662.1587524414062,1126.1444091796875,814.6279907226562,495.87310791015625,1155.6578369140625,973.0513916015625,468.1571044921875,1154.9962158203125,722.6513671875,639.7363891601562,872.6661987304688,743.6373901367188,735.4769287109375,631.5133666992188,730.7880859375,616.1747436523438,514.0656127929688,755.51123046875,506.3759460449219,345.2481384277344,832.7531127929688,388.0953063964844,321.9682922363281,763.3179931640625,617.9097900390625,198.08534240722656,1092.570068359375,608.6102294921875,799.4900512695312,1032.491943359375,586.5401611328125,567.2311401367188,1038.29443359375,565.169677734375,431.67852783203125,982.1588745117188,542.651611328125,222.3470458984375,907.8389892578125,476.289794921875,164.74156188964844,988.0140380859375,731.0913696289062,177.10877990722656,-1.2633,6.2829,-7.1921,0.9766,-0.061,-0.6104,138.9331,7.5476,35.7111,0.8965,-0.2645,0.166,0.3142,2.115,-6.7758,-6.527,0.3052,-0.4272,-0.1221,-133.9178,-12.6672,-137.2852,-0.2929,-0.8675,-0.3253,0.2362,2.0528,-0.9905,9.666,-0.2441,-0.2441,0.5493,-5.8392,-11.9312,147.2717,-0.1139,0.0194,0.9545,0.2748,0.445,-0.7752,-9.4459,-0.6104,-0.3052,0.3052,-175.3198,-2.6752,-110.874,-0.5659,-0.8231,-0.0204,0.0424,-2.5361,8.7233,3.6606,0.5493,-0.5493,-0.6104,67.2308,15.0183,-157.5989,-0.0001,0.5596,-0.7959,0.2313,6.6609,-6.9672,-1.225,0.1831,-0.1831,0.4272,-99.9536,-43.2751,158.8568,-0.3637,0.6562,0.6394,-0.1679,-9.5416,-0.0239,-1.9619,0.4883,0.0,-0.061,-179.231,78.3545,65.4346,-0.6499,0.4225,-0.5287,0.3458,0,0,0,0,0,0,0,0,0,0,0,0,0,0,0,0,0,0,0,0,0,0,0,0,0,0,0,0,0,0,0,0,0,0,0,0
1777283893.050643,603,1777283876.4600904,1777283891.5396292,1777283877.4929833,0,0,-15079.538822174072,-1032.8929424285889,1,1,0.0,0.0,0.0,0.0,0.0,0.0,0.0,0.0,0.0,0.0,0.0,0.0,0.0,0.0,0.0,0.0,0.0,0.0,0.0,0.0,0.0,0.0,0.0,0.0,0.0,0.0,0.0,805.7808227539062,678.7330932617188,1123.8072509765625,1056.9996337890625,661.3880004882812,1126.21435546875,815.3779296875,494.5553283691406,1156.5372314453125,973.8807373046875,467.2745361328125,1155.693603515625,722.7666625976562,639.003173828125,874.5275268554688,743.3834228515625,738.59033203125,634.1237182617188,730.09765625,623.6922607421875,511.4276428222656,754.342041015625,520.9580688476562,338.3168029785156,832.1153564453125,404.3585510253906,307.90655517578125,758.7387084960938,639.8461303710938,197.45068359375,1092.265625,605.8428344726562,799.1305541992188,1032.0931396484375,581.4752197265625,567.054931640625,1037.8345947265625,559.41357421875,431.5678405761719,981.5263671875,535.5446166992188,222.52186584472656,907.8436889648438,468.6523742675781,164.87548828125,988.0856323242188,723.5347290039062,176.89254760742188,-1.2633,6.2829,-7.1921,0.9766,-0.061,-0.6104,138.9331,7.5476,35.7111,0.8965,-0.2645,0.166,0.3142,2.115,-6.7758,-6.527,0.3052,-0.4272,-0.1221,-133.9178,-12.6672,-137.2852,-0.2929,-0.8675,-0.3253,0.2362,2.0528,-0.9905,9.666,-0.2441,-0.2441,0.5493,-5.8392,-11.9312,147.2717,-0.1139,0.0194,0.9545,0.2748,0.445,-0.7752,-9.4459,-0.6104,-0.3052,0.3052,-175.3198,-2.6752,-110.874,-0.5659,-0.8231,-0.0204,0.0424,-2.5361,8.7233,3.6606,0.5493,-0.5493,-0.6104,67.2308,15.0183,-157.5989,-0.0001,0.5596,-0.7959,0.2313,6.6609,-6.9672,-1.225,0.1831,-0.1831,0.4272,-99.9536,-43.2751,158.8568,-0.3637,0.6562,0.6394,-0.1679,-9.5416,-0.0239,-1.9619,0.4883,0.0,-0.061,-179.231,78.3545,65.4346,-0.6499,0.4225,-0.5287,0.3458,0,0,0,0,0,0,0,0,0,0,0,0,0,0,0,0,0,0,0,0,0,0,0,0,0,0,0,0,0,0,0,0,0,0,0,0
1777283893.050643,604,1777283876.4828887,1777283891.5396292,1777283877.4929833,0,0,-15056.740522384644,-1010.0946426391602,1,1,0.0,0.0,0.0,0.0,0.0,0.0,0.0,0.0,0.0,0.0,0.0,0.0,0.0,0.0,0.0,0.0,0.0,0.0,0.0,0.0,0.0,0.0,0.0,0.0,0.0,0.0,0.0,806.1175537109375,677.4448852539062,1124.2294921875,1057.373291015625,660.6807861328125,1126.1697998046875,816.0614013671875,493.3119812011719,1157.3212890625,974.6431884765625,466.4543762207031,1156.311279296875,722.8417358398438,638.0438232421875,876.1483764648438,743.1982421875,741.074462890625,636.3854370117188,729.3036499023438,631.1448364257812,508.2518615722656,752.8914184570312,536.2267456054688,330.8719787597656,831.0673217773438,421.7379150390625,293.2930908203125,754.1829833984375,662.1539306640625,196.60926818847656,1091.923583984375,603.075927734375,798.7282104492188,1031.6910400390625,576.455810546875,566.8663940429688,1037.3800048828125,553.6743774414062,431.4562683105469,980.943115234375,528.415283203125,222.69903564453125,907.8541870117188,461.0396728515625,164.99282836914062,988.1654052734375,715.9720458984375,176.68243408203125,-1.2633,6.2829,-7.1921,0.9766,-0.061,-0.6104,138.9331,7.5476,35.7111,0.8965,-0.2645,0.166,0.3142,2.115,-6.7758,-6.527,0.3052,-0.4272,-0.1221,-133.9178,-12.6672,-137.2852,-0.2929,-0.8675,-0.3253,0.2362,2.0528,-0.9905,9.666,-0.2441,-0.2441,0.5493,-5.8392,-11.9312,147.2717,-0.1139,0.0194,0.9545,0.2748,0.445,-0.7752,-9.4459,-0.6104,-0.3052,0.3052,-175.3198,-2.6752,-110.874,-0.5659,-0.8231,-0.0204,0.0424,-2.5361,8.7233,3.6606,0.5493,-0.5493,-0.6104,67.2308,15.0183,-157.5989,-0.0001,0.5596,-0.7959,0.2313,6.6609,-6.9672,-1.225,0.1831,-0.1831,0.4272,-99.9536,-43.2751,158.8568,-0.3637,0.6562,0.6394,-0.1679,-9.5416,-0.0239,-1.9619,0.4883,0.0,-0.061,-179.231,78.3545,65.4346,-0.6499,0.4225,-0.5287,0.3458,0,0,0,0,0,0,0,0,0,0,0,0,0,0,0,0,0,0,0,0,0,0,0,0,0,0,0,0,0,0,0,0,0,0,0,0
1777283893.050643,605,1777283876.490011,1777283891.5396292,1777283877.4929833,0,0,-15049.618244171143,-1002.9723644256592,1,1,0.0,0.0,0.0,0.0,0.0,0.0,0.0,0.0,0.0,0.0,0.0,0.0,0.0,0.0,0.0,0.0,0.0,0.0,0.0,0.0,0.0,0.0,0.0,0.0,0.0,0.0,0.0,806.3894653320312,676.2315673828125,1124.5184326171875,1057.681396484375,660.0457153320312,1126.0113525390625,816.6768798828125,492.15350341796875,1158.00244140625,975.3372192382812,465.70684814453125,1156.8438720703125,722.86279296875,636.8916015625,877.5094604492188,743.0689697265625,742.9251708984375,638.2677001953125,728.40185546875,638.540283203125,504.6065368652344,751.1778564453125,552.180419921875,323.0814514160156,829.6531372070312,440.1690979003906,278.3336486816406,749.7245483398438,684.8167724609375,195.6916961669922,1091.55224609375,600.3252563476562,798.2871704101562,1031.2974853515625,571.49365234375,566.6697387695312,1036.94677734375,547.9610595703125,431.3503112792969,980.4297485351562,521.2635498046875,222.8838653564453,907.8753662109375,453.44915771484375,165.09764099121094,988.2597045898438,708.402587890625,176.48512268066406,-1.2633,6.2829,-7.1921,0.9766,-0.061,-0.6104,138.9331,7.5476,35.7111,0.8965,-0.2645,0.166,0.3142,2.115,-6.7758,-6.527,0.3052,-0.4272,-0.1221,-133.9178,-12.6672,-137.2852,-0.2929,-0.8675,-0.3253,0.2362,2.0528,-0.9905,9.666,-0.2441,-0.2441,0.5493,-5.8392,-11.9312,147.2717,-0.1139,0.0194,0.9545,0.2748,0.445,-0.7752,-9.4459,-0.6104,-0.3052,0.3052,-175.3198,-2.6752,-110.874,-0.5659,-0.8231,-0.0204,0.0424,-2.5361,8.7233,3.6606,0.5493,-0.5493,-0.6104,67.2308,15.0183,-157.5989,-0.0001,0.5596,-0.7959,0.2313,6.6609,-6.9672,-1.225,0.1831,-0.1831,0.4272,-99.9536,-43.2751,158.8568,-0.3637,0.6562,0.6394,-0.1679,-9.5416,-0.0239,-1.9619,0.4883,0.0,-0.061,-179.231,78.3545,65.4346,-0.6499,0.4225,-0.5287,0.3458,0,0,0,0,0,0,0,0,0,0,0,0,0,0,0,0,0,0,0,0,0,0,0,0,0,0,0,0,0,0,0,0,0,0,0,0
1777283893.050643,606,1777283876.4934464,1777283891.5396292,1777283877.4929833,0,0,-15046.182870864868,-999.5369911193848,1,1,0.0,0.0,0.0,0.0,0.0,0.0,0.0,0.0,0.0,0.0,0.0,0.0,0.0,0.0,0.0,0.0,0.0,0.0,0.0,0.0,0.0,0.0,0.0,0.0,0.0,0.0,0.0,806.5973510742188,675.103759765625,1124.67333984375,1057.9248046875,659.490478515625,1125.7415771484375,817.222412109375,491.08941650390625,1158.57470703125,975.9608154296875,465.04095458984375,1157.286865234375,722.8157958984375,635.5786743164062,878.5960083007812,742.980224609375,744.1465454101562,639.7467041015625,727.3897705078125,645.8838500976562,500.56866455078125,749.2321166992188,568.7989501953125,315.11761474609375,827.924560546875,459.58477783203125,263.27484130859375,745.4475708007812,707.7988891601562,194.83087158203125,1091.158935546875,597.6082763671875,797.813232421875,1030.9224853515625,566.5955810546875,566.4691772460938,1036.548583984375,542.2797241210938,431.25531005859375,980.00048828125,514.090576171875,223.0810546875,907.9115600585938,445.8760986328125,165.1958770751953,988.373046875,700.8272094726562,176.30615234375,-1.2633,6.2829,-7.1921,0.9766,-0.061,-0.6104,138.9331,7.5476,35.7111,0.8965,-0.2645,0.166,0.3142,2.115,-6.7758,-6.527,0.3052,-0.4272,-0.1221,-133.9178,-12.6672,-137.2852,-0.2929,-0.8675,-0.3253,0.2362,2.0528,-0.9905,9.666,-0.2441,-0.2441,0.5493,-5.8392,-11.9312,147.2717,-0.1139,0.0194,0.9545,0.2748,0.445,-0.7752,-9.4459,-0.6104,-0.3052,0.3052,-175.3198,-2.6752,-110.874,-0.5659,-0.8231,-0.0204,0.0424,-2.5361,8.7233,3.6606,0.5493,-0.5493,-0.6104,67.2308,15.0183,-157.5989,-0.0001,0.5596,-0.7959,0.2313,6.6609,-6.9672,-1.225,0.1831,-0.1831,0.4272,-99.9536,-43.2751,158.8568,-0.3637,0.6562,0.6394,-0.1679,-9.5416,-0.0239,-1.9619,0.4883,0.0,-0.061,-179.231,78.3545,65.4346,-0.6499,0.4225,-0.5287,0.3458,0,0,0,0,0,0,0,0,0,0,0,0,0,0,0,0,0,0,0,0,0,0,0,0,0,0,0,0,0,0,0,0,0,0,0,0
1777283893.050643,607,1777283876.5073228,1777283891.5396292,1777283877.4929833,0,0,-15032.306432723999,-985.6605529785156,1,1,0.0,0.0,0.0,0.0,0.0,0.0,0.0,0.0,0.0,0.0,0.0,0.0,0.0,0.0,0.0,0.0,0.0,0.0,0.0,0.0,0.0,0.0,0.0,0.0,0.0,0.0,0.0,806.742431640625,674.0715942382812,1124.6951904296875,1058.1044921875,659.02197265625,1125.365478515625,817.6959838867188,490.12847900390625,1159.0328369140625,976.5118408203125,464.4647216796875,1157.6363525390625,722.6873779296875,634.1358032226562,879.3981323242188,742.9152221679688,744.7525634765625,640.8069458007812,726.2679443359375,653.1762084960938,496.2236633300781,747.096435546875,586.03759765625,307.154541015625,825.9309692382812,479.9039611816406,248.38369750976562,741.4497680664062,731.0418701171875,194.1686553955078,1090.74951171875,594.9428100585938,797.312744140625,1030.57373046875,561.7637939453125,566.2688598632812,1036.1944580078125,536.6337890625,431.1748962402344,979.6624755859375,506.898681640625,223.2943878173828,907.9669799804688,438.3148498535156,165.29501342773438,988.5078125,693.2482299804688,176.14859008789062,-1.2633,6.2829,-7.1921,0.9766,-0.061,-0.6104,138.9331,7.5476,35.7111,0.8965,-0.2645,0.166,0.3142,2.115,-6.7758,-6.527,0.3052,-0.4272,-0.1221,-133.9178,-12.6672,-137.2852,-0.2929,-0.8675,-0.3253,0.2362,2.0528,-0.9905,9.666,-0.2441,-0.2441,0.5493,-5.8392,-11.9312,147.2717,-0.1139,0.0194,0.9545,0.2748,0.445,-0.7752,-9.4459,-0.6104,-0.3052,0.3052,-175.3198,-2.6752,-110.874,-0.5659,-0.8231,-0.0204,0.0424,-2.5361,8.7233,3.6606,0.5493,-0.5493,-0.6104,67.2308,15.0183,-157.5989,-0.0001,0.5596,-0.7959,0.2313,6.6609,-6.9672,-1.225,0.1831,-0.1831,0.4272,-99.9536,-43.2751,158.8568,-0.3637,0.6562,0.6394,-0.1679,-9.5416,-0.0239,-1.9619,0.4883,0.0,-0.061,-179.231,78.3545,65.4346,-0.6499,0.4225,-0.5287,0.3458,0,0,0,0,0,0,0,0,0,0,0,0,0,0,0,0,0,0,0,0,0,0,0,0,0,0,0,0,0,0,0,0,0,0,0,0
1777283893.050643,608,1777283876.5103252,1777283891.5396292,1777283877.4929833,0,0,-15029.304027557373,-982.6581478118896,1,1,0.0,0.0,0.0,0.0,0.0,0.0,0.0,0.0,0.0,0.0,0.0,0.0,0.0,0.0,0.0,0.0,0.0,0.0,0.0,0.0,0.0,0.0,0.0,0.0,0.0,0.0,0.0,806.82568359375,673.14453125,1124.5872802734375,1058.22119140625,658.6464233398438,1124.8895263671875,818.0953979492188,489.2784729003906,1159.373291015625,976.9883422851562,463.9852600097656,1157.889404296875,722.466064453125,632.5919189453125,879.911376953125,742.857177734375,744.7684936523438,641.4423217773438,725.0413818359375,660.4111328125,491.6647033691406,744.8234252929688,603.8214721679688,299.36456298828125,823.7113647460938,501.0213623046875,233.92333984375,737.8428955078125,754.4631958007812,193.8596954345703,1090.328857421875,592.3462524414062,796.7920532226562,1030.2559814453125,556.996826171875,566.0722045898438,1035.8895263671875,531.0240478515625,431.111083984375,979.4160766601562,499.6912841796875,223.5264892578125,908.044921875,430.75970458984375,165.40284729003906,988.663330078125,685.669189453125,176.01199340820312,-1.2633,6.2829,-7.1921,0.9766,-0.061,-0.6104,138.9331,7.5476,35.7111,0.8965,-0.2645,0.166,0.3142,2.115,-6.7758,-6.527,0.3052,-0.4272,-0.1221,-133.9178,-12.6672,-137.2852,-0.2929,-0.8675,-0.3253,0.2362,2.0528,-0.9905,9.666,-0.2441,-0.2441,0.5493,-5.8392,-11.9312,147.2717,-0.1139,0.0194,0.9545,0.2748,0.445,-0.7752,-9.4459,-0.6104,-0.3052,0.3052,-175.3198,-2.6752,-110.874,-0.5659,-0.8231,-0.0204,0.0424,-2.5361,8.7233,3.6606,0.5493,-0.5493,-0.6104,67.2308,15.0183,-157.5989,-0.0001,0.5596,-0.7959,0.2313,6.6609,-6.9672,-1.225,0.1831,-0.1831,0.4272,-99.9536,-43.2751,158.8568,-0.3637,0.6562,0.6394,-0.1679,-9.5416,-0.0239,-1.9619,0.4883,0.0,-0.061,-179.231,78.3545,65.4346,-0.6499,0.4225,-0.5287,0.3458,0,0,0,0,0,0,0,0,0,0,0,0,0,0,0,0,0,0,0,0,0,0,0,0,0,0,0,0,0,0,0,0,0,0,0,0
1777283893.050643,609,1777283876.5237691,1777283891.5396292,1777283877.4929833,0,0,-15015.860080718994,-969.2142009735107,1,1,0.0,0.0,0.0,0.0,0.0,0.0,0.0,0.0,0.0,0.0,0.0,0.0,0.0,0.0,0.0,0.0,0.0,0.0,0.0,0.0,0.0,0.0,0.0,0.0,0.0,0.0,0.0,806.8479614257812,672.3310546875,1124.3546142578125,1058.2760009765625,658.3696899414062,1124.32177734375,818.4188232421875,488.5461730957031,1159.59326171875,977.3882446289062,463.6087341308594,1158.0435791015625,722.1430053710938,630.9752197265625,880.1368408203125,742.7904052734375,744.2322998046875,641.6566772460938,723.7208862304688,667.5738525390625,486.9913024902344,742.4739379882812,622.0414428710938,291.9134216308594,821.291015625,522.7998657226562,220.1306915283203,734.75,777.953125,194.06829833984375,1089.900146484375,589.8344116210938,796.2568359375,1029.97119140625,552.2907104492188,565.882080078125,1035.634521484375,525.4494018554688,431.0644836425781,979.2562255859375,492.4723205566406,223.77902221679688,908.1474609375,423.2059020996094,165.52601623535156,988.8359375,678.0933837890625,175.89195251464844,-1.2633,6.2829,-7.1921,0.9766,-0.061,-0.6104,138.9331,7.5476,35.7111,0.8965,-0.2645,0.166,0.3142,2.115,-6.7758,-6.527,0.3052,-0.4272,-0.1221,-133.9178,-12.6672,-137.2852,-0.2929,-0.8675,-0.3253,0.2362,2.0528,-0.9905,9.666,-0.2441,-0.2441,0.5493,-5.8392,-11.9312,147.2717,-0.1139,0.0194,0.9545,0.2748,0.445,-0.7752,-9.4459,-0.6104,-0.3052,0.3052,-175.3198,-2.6752,-110.874,-0.5659,-0.8231,-0.0204,0.0424,-2.5361,8.7233,3.6606,0.5493,-0.5493,-0.6104,67.2308,15.0183,-157.5989,-0.0001,0.5596,-0.7959,0.2313,6.6609,-6.9672,-1.225,0.1831,-0.1831,0.4272,-99.9536,-43.2751,158.8568,-0.3637,0.6562,0.6394,-0.1679,-9.5416,-0.0239,-1.9619,0.4883,0.0,-0.061,-179.231,78.3545,65.4346,-0.6499,0.4225,-0.5287,0.3458,0,0,0,0,0,0,0,0,0,0,0,0,0,0,0,0,0,0,0,0,0,0,0,0,0,0,0,0,0,0,0,0,0,0,0,0
1777283893.050643,610,1777283876.5400856,1777283891.5396292,1777283877.4929833,0,0,-14999.5436668396,-952.8977870941162,1,1,0.0,0.0,0.0,0.0,0.0,0.0,0.0,0.0,0.0,0.0,0.0,0.0,0.0,0.0,0.0,0.0,0.0,0.0,0.0,0.0,0.0,0.0,0.0,0.0,0.0,0.0,0.0,806.8094482421875,671.6386108398438,1124.00390625,1058.268798828125,658.197021484375,1123.6708984375,818.6643676757812,487.9373779296875,1159.6915283203125,977.7098999023438,463.34051513671875,1158.0972900390625,721.7127685546875,629.3135375976562,880.0814208984375,742.7020874023438,743.1947021484375,641.4644775390625,722.324462890625,674.63916015625,482.3066101074219,740.1143188476562,640.5515747070312,284.9542541503906,818.684326171875,545.0668334960938,207.2010040283203,732.2982788085938,801.3704223632812,194.95693969726562,1089.4654541015625,587.4213256835938,795.7117919921875,1029.7186279296875,547.6403198242188,565.7008056640625,1035.42724609375,519.9075317382812,431.0348815917969,979.1737060546875,485.24578857421875,224.052978515625,908.27490234375,415.6501770019531,165.66905212402344,989.0194091796875,670.5234375,175.78067016601562,-1.2633,6.2829,-7.1921,0.9766,-0.061,-0.6104,138.9331,7.5476,35.7111,0.8965,-0.2645,0.166,0.3142,2.115,-6.7758,-6.527,0.3052,-0.4272,-0.1221,-133.9178,-12.6672,-137.2852,-0.2929,-0.8675,-0.3253,0.2362,2.0528,-0.9905,9.666,-0.2441,-0.2441,0.5493,-5.8392,-11.9312,147.2717,-0.1139,0.0194,0.9545,0.2748,0.445,-0.7752,-9.4459,-0.6104,-0.3052,0.3052,-175.3198,-2.6752,-110.874,-0.5659,-0.8231,-0.0204,0.0424,-2.5361,8.7233,3.6606,0.5493,-0.5493,-0.6104,67.2308,15.0183,-157.5989,-0.0001,0.5596,-0.7959,0.2313,6.6609,-6.9672,-1.225,0.1831,-0.1831,0.4272,-99.9536,-43.2751,158.8568,-0.3637,0.6562,0.6394,-0.1679,-9.5416,-0.0239,-1.9619,0.4883,0.0,-0.061,-179.231,78.3545,65.4346,-0.6499,0.4225,-0.5287,0.3458,0,0,0,0,0,0,0,0,0,0,0,0,0,0,0,0,0,0,0,0,0,0,0,0,0,0,0,0,0,0,0,0,0,0,0,0
1777283893.051764,611,1777283876.5426831,1777283891.5396292,1777283877.4929833,0,0,-14996.946096420288,-950.3002166748047,1,1,0.0,0.0,0.0,0.0,0.0,0.0,0.0,0.0,0.0,0.0,0.0,0.0,0.0,0.0,0.0,0.0,0.0,0.0,0.0,0.0,0.0,0.0,0.0,0.0,0.0,0.0,0.0,806.7097778320312,671.0736083984375,1123.5433349609375,1058.19921875,658.1336059570312,1122.9461669921875,818.8306884765625,487.45672607421875,1159.667724609375,977.9517822265625,463.185302734375,1158.0491943359375,721.174072265625,627.6354370117188,879.757568359375,742.5833740234375,741.7188110351562,640.89013671875,720.8777465820312,681.5709838867188,477.713134765625,737.8128662109375,659.1690673828125,278.6207275390625,815.9039916992188,567.611328125,195.28369140625,730.6074829101562,824.5380249023438,196.66696166992188,1089.0252685546875,585.1192016601562,795.1605224609375,1029.4952392578125,543.0408935546875,565.5303955078125,1035.262451171875,514.3961181640625,431.0220031738281,979.1574096679688,478.0154113769531,224.3493194580078,908.4261474609375,408.0911560058594,165.83436584472656,989.2061157226562,662.960205078125,175.66921997070312,-1.2633,6.2829,-7.1921,0.9766,-0.061,-0.6104,138.9331,7.5476,35.7111,0.8965,-0.2645,0.166,0.3142,2.115,-6.7758,-6.527,0.3052,-0.4272,-0.1221,-133.9178,-12.6672,-137.2852,-0.2929,-0.8675,-0.3253,0.2362,2.0528,-0.9905,9.666,-0.2441,-0.2441,0.5493,-5.8392,-11.9312,147.2717,-0.1139,0.0194,0.9545,0.2748,0.445,-0.7752,-9.4459,-0.6104,-0.3052,0.3052,-175.3198,-2.6752,-110.874,-0.5659,-0.8231,-0.0204,0.0424,-2.5361,8.7233,3.6606,0.5493,-0.5493,-0.6104,67.2308,15.0183,-157.5989,-0.0001,0.5596,-0.7959,0.2313,6.6609,-6.9672,-1.225,0.1831,-0.1831,0.4272,-99.9536,-43.2751,158.8568,-0.3637,0.6562,0.6394,-0.1679,-9.5416,-0.0239,-1.9619,0.4883,0.0,-0.061,-179.231,78.3545,65.4346,-0.6499,0.4225,-0.5287,0.3458,0,0,0,0,0,0,0,0,0,0,0,0,0,0,0,0,0,0,0,0,0,0,0,0,0,0,0,0,0,0,0,0,0,0,0,0
1777283893.051764,612,1777283876.5577886,1777283891.5396292,1777283877.4929833,0,0,-14981.84061050415,-935.194730758667,1,1,0.0,0.0,0.0,0.0,0.0,0.0,0.0,0.0,0.0,0.0,0.0,0.0,0.0,0.0,0.0,0.0,0.0,0.0,0.0,0.0,0.0,0.0,0.0,0.0,0.0,0.0,0.0,806.5477905273438,670.641357421875,1122.98193359375,1058.066162109375,658.1842041015625,1122.1571044921875,818.9166259765625,487.10797119140625,1159.52294921875,978.1128540039062,463.14703369140625,1157.8992919921875,720.5306396484375,625.9710693359375,879.1831665039062,742.4302368164062,739.8790283203125,639.967529296875,719.4136352539062,688.3218994140625,473.30712890625,735.6353759765625,677.6773071289062,273.01971435546875,812.9710083007812,590.1809692382812,184.48983764648438,729.77490234375,847.2406005859375,199.2943878173828,1088.5784912109375,582.93896484375,794.6055908203125,1029.29638671875,538.48974609375,565.372802734375,1035.13427734375,508.91400146484375,431.0263366699219,979.1954956054688,470.7847900390625,224.6695098876953,908.5991821289062,400.5287170410156,166.02279663085938,989.3904418945312,655.403076171875,175.55052185058594,-1.2633,6.2829,-7.1921,0.9766,-0.061,-0.6104,138.9331,7.5476,35.7111,0.8965,-0.2645,0.166,0.3142,2.115,-6.7758,-6.527,0.3052,-0.4272,-0.1221,-133.9178,-12.6672,-137.2852,-0.2929,-0.8675,-0.3253,0.2362,2.0528,-0.9905,9.666,-0.2441,-0.2441,0.5493,-5.8392,-11.9312,147.2717,-0.1139,0.0194,0.9545,0.2748,0.445,-0.7752,-9.4459,-0.6104,-0.3052,0.3052,-175.3198,-2.6752,-110.874,-0.5659,-0.8231,-0.0204,0.0424,-2.5361,8.7233,3.6606,0.5493,-0.5493,-0.6104,67.2308,15.0183,-157.5989,-0.0001,0.5596,-0.7959,0.2313,6.6609,-6.9672,-1.225,0.1831,-0.1831,0.4272,-99.9536,-43.2751,158.8568,-0.3637,0.6562,0.6394,-0.1679,-9.5416,-0.0239,-1.9619,0.4883,0.0,-0.061,-179.231,78.3545,65.4346,-0.6499,0.4225,-0.5287,0.3458,0,0,0,0,0,0,0,0,0,0,0,0,0,0,0,0,0,0,0,0,0,0,0,0,0,0,0,0,0,0,0,0,0,0,0,0
1777283893.051764,613,1777283876.560327,1777283891.5396292,1777283877.4929833,0,0,-14979.302167892456,-932.6562881469727,1,1,0.0,0.0,0.0,0.0,0.0,0.0,0.0,0.0,0.0,0.0,0.0,0.0,0.0,0.0,0.0,0.0,0.0,0.0,0.0,0.0,0.0,0.0,0.0,0.0,0.0,0.0,0.0,806.3218383789062,670.3460693359375,1122.32958984375,1057.8677978515625,658.3531494140625,1121.3128662109375,818.9215087890625,486.89385986328125,1159.2593994140625,978.1923217773438,463.22900390625,1157.647705078125,719.7910766601562,624.3521728515625,878.3809814453125,742.243896484375,737.758544921875,638.7381591796875,717.9713745117188,694.8335571289062,469.1722717285156,733.6431884765625,695.8309326171875,268.22357177734375,809.9253540039062,612.4813842773438,174.9043731689453,729.8595581054688,869.2276611328125,202.8667449951172,1088.122802734375,580.8905639648438,794.0485229492188,1029.1158447265625,533.9871215820312,565.2299194335938,1035.035888671875,503.46209716796875,431.0495910644531,979.2771606445312,463.55731201171875,225.01614379882812,908.7918090820312,392.963623046875,166.23460388183594,989.5695190429688,647.8502197265625,175.42108154296875,-1.2633,6.2829,-7.1921,0.9766,-0.061,-0.6104,138.9331,7.5476,35.7111,0.8965,-0.2645,0.166,0.3142,2.115,-6.7758,-6.527,0.3052,-0.4272,-0.1221,-133.9178,-12.6672,-137.2852,-0.2929,-0.8675,-0.3253,0.2362,2.0528,-0.9905,9.666,-0.2441,-0.2441,0.5493,-5.8392,-11.9312,147.2717,-0.1139,0.0194,0.9545,0.2748,0.445,-0.7752,-9.4459,-0.6104,-0.3052,0.3052,-175.3198,-2.6752,-110.874,-0.5659,-0.8231,-0.0204,0.0424,-2.5361,8.7233,3.6606,0.5493,-0.5493,-0.6104,67.2308,15.0183,-157.5989,-0.0001,0.5596,-0.7959,0.2313,6.6609,-6.9672,-1.225,0.1831,-0.1831,0.4272,-99.9536,-43.2751,158.8568,-0.3637,0.6562,0.6394,-0.1679,-9.5416,-0.0239,-1.9619,0.4883,0.0,-0.061,-179.231,78.3545,65.4346,-0.6499,0.4225,-0.5287,0.3458,0,0,0,0,0,0,0,0,0,0,0,0,0,0,0,0,0,0,0,0,0,0,0,0,0,0,0,0,0,0,0,0,0,0,0,0
1777283893.051764,614,1777283876.5856173,1777283891.5396292,1777283877.4929833,0,0,-14954.011917114258,-907.3660373687744,1,1,0.0,0.0,0.0,0.0,0.0,0.0,0.0,0.0,0.0,0.0,0.0,0.0,0.0,0.0,0.0,0.0,0.0,0.0,0.0,0.0,0.0,0.0,0.0,0.0,0.0,0.0,0.0,806.0296020507812,670.1908569335938,1121.596923828125,1057.6016845703125,658.6444702148438,1120.42236328125,818.8447875976562,486.8162536621094,1158.88037109375,978.1895141601562,463.4338684082031,1157.295654296875,718.9691162109375,622.8125610351562,877.3775024414062,742.030517578125,735.4464721679688,637.2494506835938,716.5952758789062,701.038330078125,465.3730163574219,731.8917236328125,713.3633422851562,264.2629699707031,806.8345947265625,634.1805419921875,166.59461975097656,730.870361328125,890.2216186523438,207.32662963867188,1087.654541015625,578.9835815429688,793.4898681640625,1028.9464111328125,529.5371704101562,565.1038818359375,1034.9605712890625,498.04425048828125,431.0949401855469,979.3928833007812,456.3366394042969,225.39324951171875,909.0023803710938,385.3964538574219,166.46998596191406,989.743896484375,640.2987670898438,175.28111267089844,-1.2633,6.2829,-7.1921,0.9766,-0.061,-0.6104,138.9331,7.5476,35.7111,0.8965,-0.2645,0.166,0.3142,2.115,-6.7758,-6.527,0.3052,-0.4272,-0.1221,-133.9178,-12.6672,-137.2852,-0.2929,-0.8675,-0.3253,0.2362,2.0528,-0.9905,9.666,-0.2441,-0.2441,0.5493,-5.8392,-11.9312,147.2717,-0.1139,0.0194,0.9545,0.2748,0.445,-0.7752,-9.4459,-0.6104,-0.3052,0.3052,-175.3198,-2.6752,-110.874,-0.5659,-0.8231,-0.0204,0.0424,-2.5361,8.7233,3.6606,0.5493,-0.5493,-0.6104,67.2308,15.0183,-157.5989,-0.0001,0.5596,-0.7959,0.2313,6.6609,-6.9672,-1.225,0.1831,-0.1831,0.4272,-99.9536,-43.2751,158.8568,-0.3637,0.6562,0.6394,-0.1679,-9.5416,-0.0239,-1.9619,0.4883,0.0,-0.061,-179.231,78.3545,65.4346,-0.6499,0.4225,-0.5287,0.3458,0,0,0,0,0,0,0,0,0,0,0,0,0,0,0,0,0,0,0,0,0,0,0,0,0,0,0,0,0,0,0,0,0,0,0,0
1777283893.051764,615,1777283876.5896294,1777283891.5396292,1777283877.4929833,0,0,-14949.999809265137,-903.3539295196533,1,1,0.0,0.0,0.0,0.0,0.0,0.0,0.0,0.0,0.0,0.0,0.0,0.0,0.0,0.0,0.0,0.0,0.0,0.0,0.0,0.0,0.0,0.0,0.0,0.0,0.0,0.0,0.0,805.6685180664062,670.1780395507812,1120.7945556640625,1057.2650146484375,659.061767578125,1119.4940185546875,818.6864624023438,486.8763122558594,1158.390625,978.104248046875,463.7636413574219,1156.8453369140625,718.0830688476562,621.3876342773438,876.2023315429688,741.8009643554688,733.0341186523438,635.5518798828125,715.3324584960938,706.8614501953125,461.9494934082031,730.4312744140625,729.9970092773438,261.1218566894531,803.7969360351562,654.9183349609375,159.60879516601562,732.7617797851562,909.9317016601562,212.52560424804688,1087.1688232421875,577.2274780273438,792.9293212890625,1028.7802734375,525.148193359375,564.9970092773438,1034.901611328125,492.66748046875,431.1671142578125,979.5347900390625,449.126708984375,225.80630493164062,909.229736328125,377.827392578125,166.72891235351562,989.9161987304688,632.7456665039062,175.1338348388672,-1.2633,6.2829,-7.1921,0.9766,-0.061,-0.6104,138.9331,7.5476,35.7111,0.8965,-0.2645,0.166,0.3142,2.115,-6.7758,-6.527,0.3052,-0.4272,-0.1221,-133.9178,-12.6672,-137.2852,-0.2929,-0.8675,-0.3253,0.2362,2.0528,-0.9905,9.666,-0.2441,-0.2441,0.5493,-5.8392,-11.9312,147.2717,-0.1139,0.0194,0.9545,0.2748,0.445,-0.7752,-9.4459,-0.6104,-0.3052,0.3052,-175.3198,-2.6752,-110.874,-0.5659,-0.8231,-0.0204,0.0424,-2.5361,8.7233,3.6606,0.5493,-0.5493,-0.6104,67.2308,15.0183,-157.5989,-0.0001,0.5596,-0.7959,0.2313,6.6609,-6.9672,-1.225,0.1831,-0.1831,0.4272,-99.9536,-43.2751,158.8568,-0.3637,0.6562,0.6394,-0.1679,-9.5416,-0.0239,-1.9619,0.4883,0.0,-0.061,-179.231,78.3545,65.4346,-0.6499,0.4225,-0.5287,0.3458,0,0,0,0,0,0,0,0,0,0,0,0,0,0,0,0,0,0,0,0,0,0,0,0,0,0,0,0,0,0,0,0,0,0,0,0
1777283893.051764,616,1777283876.594629,1777283891.5396292,1777283877.4929833,0,0,-14945.000171661377,-898.3542919158936,1,1,0.0,0.0,0.0,0.0,0.0,0.0,0.0,0.0,0.0,0.0,0.0,0.0,0.0,0.0,0.0,0.0,0.0,0.0,0.0,0.0,0.0,0.0,0.0,0.0,0.0,0.0,0.0,805.2357177734375,670.3090209960938,1119.933349609375,1056.8548583984375,659.6078491210938,1118.535888671875,818.4464721679688,487.07452392578125,1157.7962646484375,977.9362182617188,464.21954345703125,1156.2996826171875,717.155029296875,620.1138305664062,874.8869018554688,741.569580078125,730.611083984375,633.6964111328125,714.2305908203125,712.2245483398438,458.91387939453125,729.3060913085938,745.455810546875,258.7366638183594,800.9369506835938,674.3189697265625,153.9638671875,735.4381713867188,928.07080078125,218.22903442382812,1086.6600341796875,575.6317138671875,792.3658447265625,1028.6087646484375,520.832763671875,564.9111938476562,1034.8521728515625,487.3415832519531,431.271728515625,979.6963500976562,441.9317321777344,226.26206970214844,909.472900390625,370.2561950683594,167.0102996826172,990.0906982421875,625.1879272460938,174.9842529296875,-1.2633,6.2829,-7.1921,0.9766,-0.061,-0.6104,138.9331,7.5476,35.7111,0.8965,-0.2645,0.166,0.3142,2.115,-6.7758,-6.527,0.3052,-0.4272,-0.1221,-133.9178,-12.6672,-137.2852,-0.2929,-0.8675,-0.3253,0.2362,2.0528,-0.9905,9.666,-0.2441,-0.2441,0.5493,-5.8392,-11.9312,147.2717,-0.1139,0.0194,0.9545,0.2748,0.445,-0.7752,-9.4459,-0.6104,-0.3052,0.3052,-175.3198,-2.6752,-110.874,-0.5659,-0.8231,-0.0204,0.0424,-2.5361,8.7233,3.6606,0.5493,-0.5493,-0.6104,67.2308,15.0183,-157.5989,-0.0001,0.5596,-0.7959,0.2313,6.6609,-6.9672,-1.225,0.1831,-0.1831,0.4272,-99.9536,-43.2751,158.8568,-0.3637,0.6562,0.6394,-0.1679,-9.5416,-0.0239,-1.9619,0.4883,0.0,-0.061,-179.231,78.3545,65.4346,-0.6499,0.4225,-0.5287,0.3458,0,0,0,0,0,0,0,0,0,0,0,0,0,0,0,0,0,0,0,0,0,0,0,0,0,0,0,0,0,0,0,0,0,0,0,0
1777283893.051764,617,1777283876.6214435,1777283891.5396292,1777283877.4929833,0,0,-14918.185710906982,-871.539831161499,1,1,0.0,0.0,0.0,0.0,0.0,0.0,0.0,0.0,0.0,0.0,0.0,0.0,0.0,0.0,0.0,0.0,0.0,0.0,0.0,0.0,0.0,0.0,0.0,0.0,0.0,0.0,0.0,804.7285766601562,670.584716796875,1119.0242919921875,1056.3682861328125,660.284912109375,1117.555419921875,818.1248779296875,487.4107971191406,1157.1044921875,977.685302734375,464.8021545410156,1155.6627197265625,716.2095336914062,619.0272216796875,873.4632568359375,741.3529052734375,728.2615356445312,631.7318115234375,713.3348999023438,717.05078125,456.250244140625,728.5535278320312,759.4793701171875,257.0001525878906,798.393798828125,692.0089111328125,149.62762451171875,738.765625,944.3739624023438,224.13192749023438,1086.1217041015625,574.2055053710938,791.7973022460938,1028.4228515625,516.607177734375,564.8482055664062,1034.8045654296875,482.07855224609375,431.4148864746094,979.8714599609375,434.75579833984375,226.7681427001953,909.7298583984375,362.68267822265625,167.3114776611328,990.2720336914062,617.6234741210938,174.8372802734375,-1.2633,6.2829,-7.1921,0.9766,-0.061,-0.6104,138.9331,7.5476,35.7111,0.8965,-0.2645,0.166,0.3142,2.115,-6.7758,-6.527,0.3052,-0.4272,-0.1221,-133.9178,-12.6672,-137.2852,-0.2929,-0.8675,-0.3253,0.2362,2.0528,-0.9905,9.666,-0.2441,-0.2441,0.5493,-5.8392,-11.9312,147.2717,-0.1139,0.0194,0.9545,0.2748,0.445,-0.7752,-9.4459,-0.6104,-0.3052,0.3052,-175.3198,-2.6752,-110.874,-0.5659,-0.8231,-0.0204,0.0424,-2.5361,8.7233,3.6606,0.5493,-0.5493,-0.6104,67.2308,15.0183,-157.5989,-0.0001,0.5596,-0.7959,0.2313,6.6609,-6.9672,-1.225,0.1831,-0.1831,0.4272,-99.9536,-43.2751,158.8568,-0.3637,0.6562,0.6394,-0.1679,-9.5416,-0.0239,-1.9619,0.4883,0.0,-0.061,-179.231,78.3545,65.4346,-0.6499,0.4225,-0.5287,0.3458,0,0,0,0,0,0,0,0,0,0,0,0,0,0,0,0,0,0,0,0,0,0,0,0,0,0,0,0,0,0,0,0,0,0,0,0
1777283893.051764,619,1777283876.6239464,1777283891.5396292,1777283877.4929833,1,1,-14915.682792663574,-869.0369129180908,1,1,0.0,0.0,0.0,0.0,0.0,0.0,0.0,0.0,0.0,0.0,0.0,0.0,0.0,0.0,0.0,0.0,0.0,0.0,0.0,0.0,0.0,0.0,0.0,0.0,0.0,0.0,0.0,803.4815673828125,671.5712280273438,1117.105712890625,1055.1556396484375,662.0361328125,1115.5557861328125,817.238037109375,488.4947509765625,1155.463623046875,976.9345703125,466.3453674316406,1154.135498046875,714.36767578125,617.5531616210938,870.41455078125,741.0343017578125,724.0734252929688,627.645751953125,712.314453125,724.8246459960938,451.8532409667969,728.2675170898438,782.3452758789062,254.8814697265625,794.784423828125,720.9063110351562,144.43374633789062,746.7447509765625,970.625244140625,235.11712646484375,1084.928955078125,571.8967895507812,790.6329956054688,1027.9686279296875,508.5076904296875,564.7926025390625,1034.6795654296875,471.7946472167969,431.8401794433594,980.2359619140625,420.4761962890625,227.96385192871094,910.2681274414062,347.5312194824219,167.95614624023438,990.6715087890625,602.4741821289062,174.56256103515625,-1.2633,6.2829,-7.1921,0.9766,-0.061,-0.6104,138.9331,7.5476,35.7111,0.8965,-0.2645,0.166,0.3142,2.115,-6.7758,-6.527,0.3052,-0.4272,-0.1221,-133.9178,-12.6672,-137.2852,-0.2929,-0.8675,-0.3253,0.2362,2.0528,-0.9905,9.666,-0.2441,-0.2441,0.5493,-5.8392,-11.9312,147.2717,-0.1139,0.0194,0.9545,0.2748,0.445,-0.7752,-9.4459,-0.6104,-0.3052,0.3052,-175.3198,-2.6752,-110.874,-0.5659,-0.8231,-0.0204,0.0424,-2.5361,8.7233,3.6606,0.5493,-0.5493,-0.6104,67.2308,15.0183,-157.5989,-0.0001,0.5596,-0.7959,0.2313,6.6609,-6.9672,-1.225,0.1831,-0.1831,0.4272,-99.9536,-43.2751,158.8568,-0.3637,0.6562,0.6394,-0.1679,-9.5416,-0.0239,-1.9619,0.4883,0.0,-0.061,-179.231,78.3545,65.4346,-0.6499,0.4225,-0.5287,0.3458,0,0,0,0,0,0,0,0,0,0,0,0,0,0,0,0,0,0,0,0,0,0,0,0,0,0,0,0,0,0,0,0,0,0,0,0
1777283893.051764,620,1777283876.6388674,1777283891.5396292,1777283877.4929833,0,0,-14900.761842727661,-854.1159629821777,1,1,0.0,0.0,0.0,0.0,0.0,0.0,0.0,0.0,0.0,0.0,0.0,0.0,0.0,0.0,0.0,0.0,0.0,0.0,0.0,0.0,0.0,0.0,0.0,0.0,0.0,0.0,0.0,802.7381591796875,672.2816162109375,1116.1177978515625,1054.4254150390625,663.1094970703125,1114.55029296875,816.6730346679688,489.2398376464844,1154.5352783203125,976.4344482421875,467.3025817871094,1153.2586669921875,713.5185546875,617.22607421875,868.8458862304688,740.9657592773438,722.3502807617188,625.5928344726562,712.2444458007812,727.6758422851562,449.9856262207031,728.7510986328125,790.8761596679688,254.1634979248047,793.9082641601562,731.5772094726562,143.2156524658203,751.0852661132812,980.3016357421875,239.4789581298828,1084.261474609375,571.0297241210938,790.0294189453125,1027.680908203125,504.6829528808594,564.7984619140625,1034.58203125,466.8016357421875,432.13238525390625,980.4097290039062,413.3788757324219,228.67062377929688,910.534912109375,339.9575500488281,168.29275512695312,990.895263671875,594.8931884765625,174.43382263183594,-1.2633,6.2829,-7.1921,0.9766,-0.061,-0.6104,138.9331,7.5476,35.7111,0.8965,-0.2645,0.166,0.3142,2.115,-6.7758,-6.527,0.3052,-0.4272,-0.1221,-133.9178,-12.6672,-137.2852,-0.2929,-0.8675,-0.3253,0.2362,2.0528,-0.9905,9.666,-0.2441,-0.2441,0.5493,-5.8392,-11.9312,147.2717,-0.1139,0.0194,0.9545,0.2748,0.445,-0.7752,-9.4459,-0.6104,-0.3052,0.3052,-175.3198,-2.6752,-110.874,-0.5659,-0.8231,-0.0204,0.0424,-2.5361,8.7233,3.6606,0.5493,-0.5493,-0.6104,67.2308,15.0183,-157.5989,-0.0001,0.5596,-0.7959,0.2313,6.6609,-6.9672,-1.225,0.1831,-0.1831,0.4272,-99.9536,-43.2751,158.8568,-0.3637,0.6562,0.6394,-0.1679,-9.5416,-0.0239,-1.9619,0.4883,0.0,-0.061,-179.231,78.3545,65.4346,-0.6499,0.4225,-0.5287,0.3458,0,0,0,0,0,0,0,0,0,0,0,0,0,0,0,0,0,0,0,0,0,0,0,0,0,0,0,0,0,0,0,0,0,0,0,0
1777283893.0527623,621,1777283876.64088,1777283891.5396292,1777283877.4929833,0,0,-14898.749113082886,-852.1032333374023,1,1,0.0,0.0,0.0,0.0,0.0,0.0,0.0,0.0,0.0,0.0,0.0,0.0,0.0,0.0,0.0,0.0,0.0,0.0,0.0,0.0,0.0,0.0,0.0,0.0,0.0,0.0,0.0,801.913330078125,673.1358032226562,1115.124755859375,1053.61083984375,664.3121948242188,1113.550048828125,816.0272216796875,490.11773681640625,1153.5504150390625,975.8508911132812,468.3795471191406,1152.31689453125,712.7430419921875,617.2044067382812,867.2796630859375,740.9761352539062,720.9292602539062,623.5669555664062,712.4857788085938,729.8079223632812,448.238525390625,729.6347045898438,797.3726806640625,253.45526123046875,793.6925659179688,739.5018920898438,142.63894653320312,755.4791870117188,987.6207885742188,242.65611267089844,1083.5390625,570.3633422851562,789.4058837890625,1027.3409423828125,501.04669189453125,564.823974609375,1034.4468994140625,461.9273376464844,432.4832458496094,980.5657348632812,406.31378173828125,229.46240234375,910.7877807617188,332.3900146484375,168.6409149169922,991.1369018554688,587.3131713867188,174.30548095703125,-1.2633,6.2829,-7.1921,0.9766,-0.061,-0.6104,138.9331,7.5476,35.7111,0.8965,-0.2645,0.166,0.3142,2.115,-6.7758,-6.527,0.3052,-0.4272,-0.1221,-133.9178,-12.6672,-137.2852,-0.2929,-0.8675,-0.3253,0.2362,2.0528,-0.9905,9.666,-0.2441,-0.2441,0.5493,-5.8392,-11.9312,147.2717,-0.1139,0.0194,0.9545,0.2748,0.445,-0.7752,-9.4459,-0.6104,-0.3052,0.3052,-175.3198,-2.6752,-110.874,-0.5659,-0.8231,-0.0204,0.0424,-2.5361,8.7233,3.6606,0.5493,-0.5493,-0.6104,67.2308,15.0183,-157.5989,-0.0001,0.5596,-0.7959,0.2313,6.6609,-6.9672,-1.225,0.1831,-0.1831,0.4272,-99.9536,-43.2751,158.8568,-0.3637,0.6562,0.6394,-0.1679,-9.5416,-0.0239,-1.9619,0.4883,0.0,-0.061,-179.231,78.3545,65.4346,-0.6499,0.4225,-0.5287,0.3458,0,0,0,0,0,0,0,0,0,0,0,0,0,0,0,0,0,0,0,0,0,0,0,0,0,0,0,0,0,0,0,0,0,0,0,0
