Recv_Timestamp,Device_Name,Acc_X,Acc_Y,Acc_Z,Gyro_X,Gyro_Y,Gyro_Z,Roll,Pitch,Yaw,Quat_x,Quat_y,Quat_z,Quat_w
1777290490.8725798,Trunk,0.0,0.0,0.0,0.0,0.0,0.0,0.0,0.0,0.0,0.0,0.0,0.0,1.0
1777290490.8725798,L_Femur,0.0,0.0,0.0,0.0,0.0,0.0,0.0,0.0,0.0,0.0,0.0,0.0,1.0
1777290490.8725798,L_Tibia,-1.2489,15.858,3.2252,197.2046,84.7168,52.002,135.9064,-0.3571,-17.8748,0.9158,0.1428,-0.0612,0.3704
1777290490.8725798,L_Foot,0.0,0.0,0.0,0.0,0.0,0.0,0.0,0.0,0.0,0.0,0.0,0.0,1.0
1777290490.8725798,R_Femur,0.0,0.0,0.0,0.0,0.0,0.0,0.0,0.0,0.0,0.0,0.0,0.0,1.0
1777290490.8725798,R_Tibia,0.0,0.0,0.0,0.0,0.0,0.0,0.0,0.0,0.0,0.0,0.0,0.0,1.0
1777290490.8725798,R_Foot,0.0,0.0,0.0,0.0,0.0,0.0,0.0,0.0,0.0,0.0,0.0,0.0,1.0
1777290490.8725798,Trunk,0.0,0.0,0.0,0.0,0.0,0.0,0.0,0.0,0.0,0.0,0.0,0.0,1.0
1777290490.8725798,L_Femur,0.0,0.0,0.0,0.0,0.0,0.0,0.0,0.0,0.0,0.0,0.0,0.0,1.0
1777290490.8725798,L_Tibia,-1.2489,15.858,3.2252,197.2046,84.7168,52.002,135.9064,-0.3571,-17.8748,0.9158,0.1428,-0.0612,0.3704
1777290490.8725798,L_Foot,-0.914,0.4067,10.8097,17.0288,26.3672,7.6904,12.4475,5.9656,-94.7681,0.0352,0.1147,-0.7268,0.6763
1777290490.8725798,R_Femur,0.0,0.0,0.0,0.0,0.0,0.0,0.0,0.0,0.0,0.0,0.0,0.0,1.0
1777290490.8725798,R_Tibia,0.0,0.0,0.0,0.0,0.0,0.0,0.0,0.0,0.0,0.0,0.0,0.0,1.0
1777290490.8725798,R_Foot,0.0,0.0,0.0,0.0,0.0,0.0,0.0,0.0,0.0,0.0,0.0,0.0,1.0
1777290490.8725798,Trunk,0.0,0.0,0.0,0.0,0.0,0.0,0.0,0.0,0.0,0.0,0.0,0.0,1.0
1777290490.8725798,L_Femur,0.0,0.0,0.0,0.0,0.0,0.0,0.0,0.0,0.0,0.0,0.0,0.0,1.0
1777290490.8725798,L_Tibia,-1.2489,15.858,3.2252,197.2046,84.7168,52.002,135.9064,-0.3571,-17.8748,0.9158,0.1428,-0.0612,0.3704
1777290490.8725798,L_Foot,-0.914,0.4067,10.8097,17.0288,26.3672,7.6904,12.4475,5.9656,-94.7681,0.0352,0.1147,-0.7268,0.6763
1777290490.8725798,R_Femur,-0.5694,6.5126,-5.8618,108.3374,-104.6143,6.7139,65.4895,-7.3004,-6.3611,0.5419,-0.0235,-0.081,0.8362
1777290490.8725798,R_Tibia,0.0,0.0,0.0,0.0,0.0,0.0,0.0,0.0,0.0,0.0,0.0,0.0,1.0
1777290490.8725798,R_Foot,0.0,0.0,0.0,0.0,0.0,0.0,0.0,0.0,0.0,0.0,0.0,0.0,1.0
1777290490.8725798,Trunk,1.0192,14.0301,-6.0389,-9.3384,30.8228,2.1973,89.6924,0.6592,-16.0785,0.6977,0.1027,-0.0951,0.7026
1777290490.8725798,L_Femur,0.0,0.0,0.0,0.0,0.0,0.0,0.0,0.0,0.0,0.0,0.0,0.0,1.0
1777290490.8725798,L_Tibia,-1.2489,15.858,3.2252,197.2046,84.7168,52.002,135.9064,-0.3571,-17.8748,0.9158,0.1428,-0.0612,0.3704
1777290490.8725798,L_Foot,-0.914,0.4067,10.8097,17.0288,26.3672,7.6904,12.4475,5.9656,-94.7681,0.0352,0.1147,-0.7268,0.6763
1777290490.8725798,R_Femur,-0.5694,6.5126,-5.8618,108.3374,-104.6143,6.7139,65.4895,-7.3004,-6.3611,0.5419,-0.0235,-0.081,0.8362
1777290490.8725798,R_Tibia,0.0,0.0,0.0,0.0,0.0,0.0,0.0,0.0,0.0,0.0,0.0,0.0,1.0
1777290490.8725798,R_Foot,0.0,0.0,0.0,0.0,0.0,0.0,0.0,0.0,0.0,0.0,0.0,0.0,1.0
1777290490.8725798,Trunk,1.0192,14.0301,-6.0389,-9.3384,30.8228,2.1973,89.6924,0.6592,-16.0785,0.6977,0.1027,-0.0951,0.7026
1777290490.8725798,L_Femur,-3.273,17.0447,2.5361,-50.354,46.5698,-6.2256,125.3925,-0.2417,4.8615,0.8877,-0.0387,0.0176,0.4584
1777290490.8725798,L_Tibia,-1.2489,15.858,3.2252,197.2046,84.7168,52.002,135.9064,-0.3571,-17.8748,0.9158,0.1428,-0.0612,0.3704
1777290490.8725798,L_Foot,-0.914,0.4067,10.8097,17.0288,26.3672,7.6904,12.4475,5.9656,-94.7681,0.0352,0.1147,-0.7268,0.6763
1777290490.8725798,R_Femur,-0.5694,6.5126,-5.8618,108.3374,-104.6143,6.7139,65.4895,-7.3004,-6.3611,0.5419,-0.0235,-0.081,0.8362
1777290490.8725798,R_Tibia,0.0,0.0,0.0,0.0,0.0,0.0,0.0,0.0,0.0,0.0,0.0,0.0,1.0
1777290490.8725798,R_Foot,0.0,0.0,0.0,0.0,0.0,0.0,0.0,0.0,0.0,0.0,0.0,0.0,1.0
1777290490.8738034,Trunk,1.0192,14.0301,-6.0389,-9.3384,30.8228,2.1973,89.6924,0.6592,-16.0785,0.6977,0.1027,-0.0951,0.7026
1777290490.8738034,L_Femur,-3.273,17.0447,2.5361,-50.354,46.5698,-6.2256,125.3925,-0.2417,4.8615,0.8877,-0.0387,0.0176,0.4584
1777290490.8738034,L_Tibia,-1.4403,17.3318,4.656,224.4873,67.4438,54.6875,139.1858,-1.7029,-17.7484,0.9267,0.1394,-0.0675,0.3423
1777290490.8738034,L_Foot,-0.914,0.4067,10.8097,17.0288,26.3672,7.6904,12.4475,5.9656,-94.7681,0.0352,0.1147,-0.7268,0.6763
1777290490.8738034,R_Femur,-0.5694,6.5126,-5.8618,108.3374,-104.6143,6.7139,65.4895,-7.3004,-6.3611,0.5419,-0.0235,-0.081,0.8362
1777290490.8738034,R_Tibia,0.0,0.0,0.0,0.0,0.0,0.0,0.0,0.0,0.0,0.0,0.0,0.0,1.0
1777290490.8738034,R_Foot,0.0,0.0,0.0,0.0,0.0,0.0,0.0,0.0,0.0,0.0,0.0,0.0,1.0
1777290490.8738034,Trunk,1.0192,14.0301,-6.0389,-9.3384,30.8228,2.1973,89.6924,0.6592,-16.0785,0.6977,0.1027,-0.0951,0.7026
1777290490.8738034,L_Femur,-3.273,17.0447,2.5361,-50.354,46.5698,-6.2256,125.3925,-0.2417,4.8615,0.8877,-0.0387,0.0176,0.4584
1777290490.8738034,L_Tibia,-1.4403,17.3318,4.656,224.4873,67.4438,54.6875,139.1858,-1.7029,-17.7484,0.9267,0.1394,-0.0675,0.3423
1777290490.8738034,L_Foot,-1.3686,-6.4169,15.1737,121.6431,113.7085,28.5034,13.9362,7.1686,-94.1144,0.0371,0.1309,-0.72,0.6805
1777290490.8738034,R_Femur,-0.5694,6.5126,-5.8618,108.3374,-104.6143,6.7139,65.4895,-7.3004,-6.3611,0.5419,-0.0235,-0.081,0.8362
1777290490.8738034,R_Tibia,0.0,0.0,0.0,0.0,0.0,0.0,0.0,0.0,0.0,0.0,0.0,0.0,1.0
1777290490.8738034,R_Foot,0.0,0.0,0.0,0.0,0.0,0.0,0.0,0.0,0.0,0.0,0.0,0.0,1.0
1777290490.8743114,Trunk,1.0192,14.0301,-6.0389,-9.3384,30.8228,2.1973,89.6924,0.6592,-16.0785,0.6977,0.1027,-0.0951,0.7026
1777290490.8743114,L_Femur,-3.273,17.0447,2.5361,-50.354,46.5698,-6.2256,125.3925,-0.2417,4.8615,0.8877,-0.0387,0.0176,0.4584
1777290490.8743114,L_Tibia,-1.4403,17.3318,4.656,224.4873,67.4438,54.6875,139.1858,-1.7029,-17.7484,0.9267,0.1394,-0.0675,0.3423
1777290490.8743114,L_Foot,-1.3686,-6.4169,15.1737,121.6431,113.7085,28.5034,13.9362,7.1686,-94.1144,0.0371,0.1309,-0.72,0.6805
1777290490.8743114,R_Femur,2.4404,16.8007,-4.7708,73.7915,69.8242,-18.0054,66.9122,-7.0367,-6.2622,0.5522,-0.0211,-0.0793,0.8296
1777290490.8743114,R_Tibia,0.0,0.0,0.0,0.0,0.0,0.0,0.0,0.0,0.0,0.0,0.0,0.0,1.0
1777290490.8743114,R_Foot,0.0,0.0,0.0,0.0,0.0,0.0,0.0,0.0,0.0,0.0,0.0,0.0,1.0
1777290490.8743114,Trunk,1.0192,14.0301,-6.0389,-9.3384,30.8228,2.1973,89.6924,0.6592,-16.0785,0.6977,0.1027,-0.0951,0.7026
1777290490.8743114,L_Femur,-3.273,17.0447,2.5361,-50.354,46.5698,-6.2256,125.3925,-0.2417,4.8615,0.8877,-0.0387,0.0176,0.4584
1777290490.8743114,L_Tibia,-1.4403,17.3318,4.656,224.4873,67.4438,54.6875,139.1858,-1.7029,-17.7484,0.9267,0.1394,-0.0675,0.3423
1777290490.8743114,L_Foot,-1.3686,-6.4169,15.1737,121.6431,113.7085,28.5034,13.9362,7.1686,-94.1144,0.0371,0.1309,-0.72,0.6805
1777290490.8743114,R_Femur,2.4404,16.8007,-4.7708,73.7915,69.8242,-18.0054,66.9122,-7.0367,-6.2622,0.5522,-0.0211,-0.0793,0.8296
1777290490.8743114,R_Tibia,-14.0444,13.0491,0.7226,113.7085,216.0645,91.98,74.8938,5.9601,-14.1943,0.5975,0.116,-0.0666,0.7907
1777290490.8743114,R_Foot,0.0,0.0,0.0,0.0,0.0,0.0,0.0,0.0,0.0,0.0,0.0,0.0,1.0
1777290490.8743114,Trunk,1.0192,14.0301,-6.0389,-9.3384,30.8228,2.1973,89.6924,0.6592,-16.0785,0.6977,0.1027,-0.0951,0.7026
1777290490.8743114,L_Femur,-3.273,17.0447,2.5361,-50.354,46.5698,-6.2256,125.3925,-0.2417,4.8615,0.8877,-0.0387,0.0176,0.4584
1777290490.8743114,L_Tibia,-1.4403,17.3318,4.656,224.4873,67.4438,54.6875,139.1858,-1.7029,-17.7484,0.9267,0.1394,-0.0675,0.3423
1777290490.8743114,L_Foot,-1.3686,-6.4169,15.1737,121.6431,113.7085,28.5034,13.9362,7.1686,-94.1144,0.0371,0.1309,-0.72,0.6805
1777290490.8743114,R_Femur,2.4404,16.8007,-4.7708,73.7915,69.8242,-18.0054,66.9122,-7.0367,-6.2622,0.5522,-0.0211,-0.0793,0.8296
1777290490.8743114,R_Tibia,-14.0444,13.0491,0.7226,113.7085,216.0645,91.98,74.8938,5.9601,-14.1943,0.5975,0.116,-0.0666,0.7907
1777290490.8743114,R_Foot,-25.0503,10.7379,16.0255,338.8062,-28.9307,-0.6104,-5.3448,-3.6475,-85.7373,-0.0125,-0.055,-0.6781,0.7328
1777290490.8743114,Trunk,1.4451,13.8482,-8.819,-5.4321,43.2129,-11.0474,89.5605,0.7745,-15.4688,0.6973,0.0995,-0.0908,0.704
1777290490.8743114,L_Femur,-3.273,17.0447,2.5361,-50.354,46.5698,-6.2256,125.3925,-0.2417,4.8615,0.8877,-0.0387,0.0176,0.4584
1777290490.8743114,L_Tibia,-1.4403,17.3318,4.656,224.4873,67.4438,54.6875,139.1858,-1.7029,-17.7484,0.9267,0.1394,-0.0675,0.3423
1777290490.8743114,L_Foot,-1.3686,-6.4169,15.1737,121.6431,113.7085,28.5034,13.9362,7.1686,-94.1144,0.0371,0.1309,-0.72,0.6805
1777290490.8743114,R_Femur,2.4404,16.8007,-4.7708,73.7915,69.8242,-18.0054,66.9122,-7.0367,-6.2622,0.5522,-0.0211,-0.0793,0.8296
1777290490.8743114,R_Tibia,-14.0444,13.0491,0.7226,113.7085,216.0645,91.98,74.8938,5.9601,-14.1943,0.5975,0.116,-0.0666,0.7907
1777290490.8743114,R_Foot,-25.0503,10.7379,16.0255,338.8062,-28.9307,-0.6104,-5.3448,-3.6475,-85.7373,-0.0125,-0.055,-0.6781,0.7328
1777290490.8743114,Trunk,1.4451,13.8482,-8.819,-5.4321,43.2129,-11.0474,89.5605,0.7745,-15.4688,0.6973,0.0995,-0.0908,0.704
1777290490.8743114,L_Femur,-5.034,17.9108,3.1391,-126.5869,6.4697,-27.4658,123.2611,-0.1318,5.4492,0.8789,-0.0424,0.0216,0.4747
1777290490.8743114,L_Tibia,-1.4403,17.3318,4.656,224.4873,67.4438,54.6875,139.1858,-1.7029,-17.7484,0.9267,0.1394,-0.0675,0.3423
1777290490.8743114,L_Foot,-1.3686,-6.4169,15.1737,121.6431,113.7085,28.5034,13.9362,7.1686,-94.1144,0.0371,0.1309,-0.72,0.6805
1777290490.8743114,R_Femur,2.4404,16.8007,-4.7708,73.7915,69.8242,-18.0054,66.9122,-7.0367,-6.2622,0.5522,-0.0211,-0.0793,0.8296
1777290490.8743114,R_Tibia,-14.0444,13.0491,0.7226,113.7085,216.0645,91.98,74.8938,5.9601,-14.1943,0.5975,0.116,-0.0666,0.7907
1777290490.8743114,R_Foot,-25.0503,10.7379,16.0255,338.8062,-28.9307,-0.6104,-5.3448,-3.6475,-85.7373,-0.0125,-0.055,-0.6781,0.7328
1777290490.8753226,Trunk,1.4451,13.8482,-8.819,-5.4321,43.2129,-11.0474,89.5605,0.7745,-15.4688,0.6973,0.0995,-0.0908,0.704
1777290490.8753226,L_Femur,-5.034,17.9108,3.1391,-126.5869,6.4697,-27.4658,123.2611,-0.1318,5.4492,0.8789,-0.0424,0.0216,0.4747
1777290490.8753226,L_Tibia,-3.8903,18.2506,4.2731,247.0093,39.0625,42.9077,142.8333,-2.6587,-17.8363,0.9373,0.1396,-0.0711,0.3113
1777290490.8753226,L_Foot,-1.3686,-6.4169,15.1737,121.6431,113.7085,28.5034,13.9362,7.1686,-94.1144,0.0371,0.1309,-0.72,0.6805
1777290490.8753226,R_Femur,2.4404,16.8007,-4.7708,73.7915,69.8242,-18.0054,66.9122,-7.0367,-6.2622,0.5522,-0.0211,-0.0793,0.8296
1777290490.8753226,R_Tibia,-14.0444,13.0491,0.7226,113.7085,216.0645,91.98,74.8938,5.9601,-14.1943,0.5975,0.116,-0.0666,0.7907
1777290490.8753226,R_Foot,-25.0503,10.7379,16.0255,338.8062,-28.9307,-0.6104,-5.3448,-3.6475,-85.7373,-0.0125,-0.055,-0.6781,0.7328
1777290490.8753226,Trunk,1.4451,13.8482,-8.819,-5.4321,43.2129,-11.0474,89.5605,0.7745,-15.4688,0.6973,0.0995,-0.0908,0.704
1777290490.8753226,L_Femur,-5.034,17.9108,3.1391,-126.5869,6.4697,-27.4658,123.2611,-0.1318,5.4492,0.8789,-0.0424,0.0216,0.4747
1777290490.8753226,L_Tibia,-3.8903,18.2506,4.2731,247.0093,39.0625,42.9077,142.8333,-2.6587,-17.8363,0.9373,0.1396,-0.0711,0.3113
1777290490.8753226,L_Foot,-2.8615,-11.3839,16.6476,486.8774,61.8896,47.5464,22.1594,7.4762,-93.0322,0.0855,0.1832,-0.7019,0.683
1777290490.8753226,R_Femur,2.4404,16.8007,-4.7708,73.7915,69.8242,-18.0054,66.9122,-7.0367,-6.2622,0.5522,-0.0211,-0.0793,0.8296
1777290490.8753226,R_Tibia,-14.0444,13.0491,0.7226,113.7085,216.0645,91.98,74.8938,5.9601,-14.1943,0.5975,0.116,-0.0666,0.7907
1777290490.8753226,R_Foot,-25.0503,10.7379,16.0255,338.8062,-28.9307,-0.6104,-5.3448,-3.6475,-85.7373,-0.0125,-0.055,-0.6781,0.7328
1777290490.8753226,Trunk,1.4451,13.8482,-8.819,-5.4321,43.2129,-11.0474,89.5605,0.7745,-15.4688,0.6973,0.0995,-0.0908,0.704
1777290490.8753226,L_Femur,-5.034,17.9108,3.1391,-126.5869,6.4697,-27.4658,123.2611,-0.1318,5.4492,0.8789,-0.0424,0.0216,0.4747
1777290490.8753226,L_Tibia,-3.8903,18.2506,4.2731,247.0093,39.0625,42.9077,142.8333,-2.6587,-17.8363,0.9373,0.1396,-0.0711,0.3113
1777290490.8753226,L_Foot,-2.8615,-11.3839,16.6476,486.8774,61.8896,47.5464,22.1594,7.4762,-93.0322,0.0855,0.1832,-0.7019,0.683
1777290490.8753226,R_Femur,7.5845,32.3859,19.533,-84.0454,344.4214,-3.1738,64.649,-4.4,-0.9119,0.5346,-0.0282,-0.0272,0.8442
1777290490.8753226,R_Tibia,-14.0444,13.0491,0.7226,113.7085,216.0645,91.98,74.8938,5.9601,-14.1943,0.5975,0.116,-0.0666,0.7907
1777290490.8753226,R_Foot,-25.0503,10.7379,16.0255,338.8062,-28.9307,-0.6104,-5.3448,-3.6475,-85.7373,-0.0125,-0.055,-0.6781,0.7328
1777290490.8753226,Trunk,0.2345,14.8531,-6.7088,19.9585,10.6812,-18.5547,89.8022,1.0217,-15.1776,0.6988,0.0995,-0.0873,0.7029
1777290490.8753226,L_Femur,-5.034,17.9108,3.1391,-126.5869,6.4697,-27.4658,123.2611,-0.1318,5.4492,0.8789,-0.0424,0.0216,0.4747
1777290490.8753226,L_Tibia,-3.8903,18.2506,4.2731,247.0093,39.0625,42.9077,142.8333,-2.6587,-17.8363,0.9373,0.1396,-0.0711,0.3113
1777290490.8753226,L_Foot,-2.8615,-11.3839,16.6476,486.8774,61.8896,47.5464,22.1594,7.4762,-93.0322,0.0855,0.1832,-0.7019,0.683
1777290490.8753226,R_Femur,7.5845,32.3859,19.533,-84.0454,344.4214,-3.1738,64.649,-4.4,-0.9119,0.5346,-0.0282,-0.0272,0.8442
1777290490.8753226,R_Tibia,-14.0444,13.0491,0.7226,113.7085,216.0645,91.98,74.8938,5.9601,-14.1943,0.5975,0.116,-0.0666,0.7907
1777290490.8753226,R_Foot,-25.0503,10.7379,16.0255,338.8062,-28.9307,-0.6104,-5.3448,-3.6475,-85.7373,-0.0125,-0.055,-0.6781,0.7328
1777290490.8753226,Trunk,0.2345,14.8531,-6.7088,19.9585,10.6812,-18.5547,89.8022,1.0217,-15.1776,0.6988,0.0995,-0.0873,0.7029
1777290490.8753226,L_Femur,-4.2062,16.169,1.4547,-154.48,-22.7051,-35.7056,121.0089,0.434,5.4932,0.8695,-0.0398,0.0269,0.4916
1777290490.8753226,L_Tibia,-3.8903,18.2506,4.2731,247.0093,39.0625,42.9077,142.8333,-2.6587,-17.8363,0.9373,0.1396,-0.0711,0.3113
1777290490.8753226,L_Foot,-2.8615,-11.3839,16.6476,486.8774,61.8896,47.5464,22.1594,7.4762,-93.0322,0.0855,0.1832,-0.7019,0.683
1777290490.8753226,R_Femur,7.5845,32.3859,19.533,-84.0454,344.4214,-3.1738,64.649,-4.4,-0.9119,0.5346,-0.0282,-0.0272,0.8442
1777290490.8753226,R_Tibia,-14.0444,13.0491,0.7226,113.7085,216.0645,91.98,74.8938,5.9601,-14.1943,0.5975,0.116,-0.0666,0.7907
1777290490.8753226,R_Foot,-25.0503,10.7379,16.0255,338.8062,-28.9307,-0.6104,-5.3448,-3.6475,-85.7373,-0.0125,-0.055,-0.6781,0.7328
1777290490.8753226,Trunk,0.2345,14.8531,-6.7088,19.9585,10.6812,-18.5547,89.8022,1.0217,-15.1776,0.6988,0.0995,-0.0873,0.7029
1777290490.8753226,L_Femur,-4.2062,16.169,1.4547,-154.48,-22.7051,-35.7056,121.0089,0.434,5.4932,0.8695,-0.0398,0.0269,0.4916
1777290490.8753226,L_Tibia,-4.4646,18.2793,-0.9188,259.1553,-10.5591,40.5273,148.0463,-3.1036,-18.4955,0.9497,0.1471,-0.0699,0.2674
1777290490.8753226,L_Foot,-2.8615,-11.3839,16.6476,486.8774,61.8896,47.5464,22.1594,7.4762,-93.0322,0.0855,0.1832,-0.7019,0.683
1777290490.8753226,R_Femur,7.5845,32.3859,19.533,-84.0454,344.4214,-3.1738,64.649,-4.4,-0.9119,0.5346,-0.0282,-0.0272,0.8442
1777290490.8753226,R_Tibia,-14.0444,13.0491,0.7226,113.7085,216.0645,91.98,74.8938,5.9601,-14.1943,0.5975,0.116,-0.0666,0.7907
1777290490.8753226,R_Foot,-25.0503,10.7379,16.0255,338.8062,-28.9307,-0.6104,-5.3448,-3.6475,-85.7373,-0.0125,-0.055,-0.6781,0.7328
1777290490.876322,Trunk,0.2345,14.8531,-6.7088,19.9585,10.6812,-18.5547,89.8022,1.0217,-15.1776,0.6988,0.0995,-0.0873,0.7029
1777290490.876322,L_Femur,-4.2062,16.169,1.4547,-154.48,-22.7051,-35.7056,121.0089,0.434,5.4932,0.8695,-0.0398,0.0269,0.4916
1777290490.876322,L_Tibia,-4.4646,18.2793,-0.9188,259.1553,-10.5591,40.5273,148.0463,-3.1036,-18.4955,0.9497,0.1471,-0.0699,0.2674
1777290490.876322,L_Foot,-2.2538,-14.5086,20.9973,787.8418,64.8193,82.7637,33.2336,7.5806,-91.626,0.1535,0.2488,-0.6724,0.68
1777290490.876322,R_Femur,7.5845,32.3859,19.533,-84.0454,344.4214,-3.1738,64.649,-4.4,-0.9119,0.5346,-0.0282,-0.0272,0.8442
1777290490.876322,R_Tibia,-14.0444,13.0491,0.7226,113.7085,216.0645,91.98,74.8938,5.9601,-14.1943,0.5975,0.116,-0.0666,0.7907
1777290490.876322,R_Foot,-25.0503,10.7379,16.0255,338.8062,-28.9307,-0.6104,-5.3448,-3.6475,-85.7373,-0.0125,-0.055,-0.6781,0.7328
1777290490.876322,Trunk,0.2345,14.8531,-6.7088,19.9585,10.6812,-18.5547,89.8022,1.0217,-15.1776,0.6988,0.0995,-0.0873,0.7029
1777290490.876322,L_Femur,-4.2062,16.169,1.4547,-154.48,-22.7051,-35.7056,121.0089,0.434,5.4932,0.8695,-0.0398,0.0269,0.4916
1777290490.876322,L_Tibia,-4.4646,18.2793,-0.9188,259.1553,-10.5591,40.5273,148.0463,-3.1036,-18.4955,0.9497,0.1471,-0.0699,0.2674
1777290490.876322,L_Foot,-2.2538,-14.5086,20.9973,787.8418,64.8193,82.7637,33.2336,7.5806,-91.626,0.1535,0.2488,-0.6724,0.68
1777290490.876322,R_Femur,-13.2597,15.2455,-3.2683,10.498,150.6348,-23.6206,64.4293,-2.8455,1.7413,0.5325,-0.0291,-0.0004,0.8459
1777290490.876322,R_Tibia,-14.0444,13.0491,0.7226,113.7085,216.0645,91.98,74.8938,5.9601,-14.1943,0.5975,0.116,-0.0666,0.7907
1777290490.876322,R_Foot,-25.0503,10.7379,16.0255,338.8062,-28.9307,-0.6104,-5.3448,-3.6475,-85.7373,-0.0125,-0.055,-0.6781,0.7328
1777290490.876322,Trunk,0.2345,14.8531,-6.7088,19.9585,10.6812,-18.5547,89.8022,1.0217,-15.1776,0.6988,0.0995,-0.0873,0.7029
1777290490.876322,L_Femur,-4.2062,16.169,1.4547,-154.48,-22.7051,-35.7056,121.0089,0.434,5.4932,0.8695,-0.0398,0.0269,0.4916
1777290490.876322,L_Tibia,-4.4646,18.2793,-0.9188,259.1553,-10.5591,40.5273,148.0463,-3.1036,-18.4955,0.9497,0.1471,-0.0699,0.2674
1777290490.876322,L_Foot,-2.2538,-14.5086,20.9973,787.8418,64.8193,82.7637,33.2336,7.5806,-91.626,0.1535,0.2488,-0.6724,0.68
1777290490.876322,R_Femur,-13.2597,15.2455,-3.2683,10.498,150.6348,-23.6206,64.4293,-2.8455,1.7413,0.5325,-0.0291,-0.0004,0.8459
1777290490.876322,R_Tibia,0.4067,12.4845,-6.972,183.0444,-38.6963,128.9062,81.5625,2.4225,-11.5576,0.6481,0.0817,-0.0625,0.7546
1777290490.876322,R_Foot,-25.0503,10.7379,16.0255,338.8062,-28.9307,-0.6104,-5.3448,-3.6475,-85.7373,-0.0125,-0.055,-0.6781,0.7328
1777290490.876322,Trunk,0.2345,14.8531,-6.7088,19.9585,10.6812,-18.5547,89.8022,1.0217,-15.1776,0.6988,0.0995,-0.0873,0.7029
1777290490.876322,L_Femur,-4.2062,16.169,1.4547,-154.48,-22.7051,-35.7056,121.0089,0.434,5.4932,0.8695,-0.0398,0.0269,0.4916
1777290490.876322,L_Tibia,-4.4646,18.2793,-0.9188,259.1553,-10.5591,40.5273,148.0463,-3.1036,-18.4955,0.9497,0.1471,-0.0699,0.2674
1777290490.876322,L_Foot,-2.2538,-14.5086,20.9973,787.8418,64.8193,82.7637,33.2336,7.5806,-91.626,0.1535,0.2488,-0.6724,0.68
1777290490.876322,R_Femur,-13.2597,15.2455,-3.2683,10.498,150.6348,-23.6206,64.4293,-2.8455,1.7413,0.5325,-0.0291,-0.0004,0.8459
1777290490.876322,R_Tibia,0.4067,12.4845,-6.972,183.0444,-38.6963,128.9062,81.5625,2.4225,-11.5576,0.6481,0.0817,-0.0625,0.7546
1777290490.876322,R_Foot,13.2405,3.6415,24.3804,58.8379,0.0,16.8457,-0.824,-5.4437,-86.0889,0.0272,-0.0396,-0.6815,0.7302
1777290490.876322,Trunk,0.9188,17.1835,-3.919,-36.6211,-27.771,-38.8794,89.4122,1.6644,-15.5951,0.6955,0.1057,-0.0863,0.7055
1777290490.876322,L_Femur,-4.2062,16.169,1.4547,-154.48,-22.7051,-35.7056,121.0089,0.434,5.4932,0.8695,-0.0398,0.0269,0.4916
1777290490.876322,L_Tibia,-4.4646,18.2793,-0.9188,259.1553,-10.5591,40.5273,148.0463,-3.1036,-18.4955,0.9497,0.1471,-0.0699,0.2674
1777290490.876322,L_Foot,-2.2538,-14.5086,20.9973,787.8418,64.8193,82.7637,33.2336,7.5806,-91.626,0.1535,0.2488,-0.6724,0.68
1777290490.876322,R_Femur,-13.2597,15.2455,-3.2683,10.498,150.6348,-23.6206,64.4293,-2.8455,1.7413,0.5325,-0.0291,-0.0004,0.8459
1777290490.876322,R_Tibia,0.4067,12.4845,-6.972,183.0444,-38.6963,128.9062,81.5625,2.4225,-11.5576,0.6481,0.0817,-0.0625,0.7546
1777290490.876322,R_Foot,13.2405,3.6415,24.3804,58.8379,0.0,16.8457,-0.824,-5.4437,-86.0889,0.0272,-0.0396,-0.6815,0.7302
1777290490.8773224,Trunk,0.9188,17.1835,-3.919,-36.6211,-27.771,-38.8794,89.4122,1.6644,-15.5951,0.6955,0.1057,-0.0863,0.7055
1777290490.8773224,L_Femur,-2.072,15.992,-3.8281,-179.0161,-12.9395,-32.4097,118.3997,0.9833,5.5316,0.8581,-0.0371,0.0321,0.5111
1777290490.8773224,L_Tibia,-4.4646,18.2793,-0.9188,259.1553,-10.5591,40.5273,148.0463,-3.1036,-18.4955,0.9497,0.1471,-0.0699,0.2674
1777290490.8773224,L_Foot,-2.2538,-14.5086,20.9973,787.8418,64.8193,82.7637,33.2336,7.5806,-91.626,0.1535,0.2488,-0.6724,0.68
1777290490.8773224,R_Femur,-13.2597,15.2455,-3.2683,10.498,150.6348,-23.6206,64.4293,-2.8455,1.7413,0.5325,-0.0291,-0.0004,0.8459
1777290490.8773224,R_Tibia,0.4067,12.4845,-6.972,183.0444,-38.6963,128.9062,81.5625,2.4225,-11.5576,0.6481,0.0817,-0.0625,0.7546
1777290490.8773224,R_Foot,13.2405,3.6415,24.3804,58.8379,0.0,16.8457,-0.824,-5.4437,-86.0889,0.0272,-0.0396,-0.6815,0.7302
1777290490.8773224,Trunk,0.9188,17.1835,-3.919,-36.6211,-27.771,-38.8794,89.4122,1.6644,-15.5951,0.6955,0.1057,-0.0863,0.7055
1777290490.8773224,L_Femur,-2.072,15.992,-3.8281,-179.0161,-12.9395,-32.4097,118.3997,0.9833,5.5316,0.8581,-0.0371,0.0321,0.5111
1777290490.8773224,L_Tibia,-1.4499,19.5856,-4.9335,248.9624,5.3711,40.2832,151.853,-3.4003,-19.0393,0.9574,0.1532,-0.0686,0.235
1777290490.8773224,L_Foot,-2.2538,-14.5086,20.9973,787.8418,64.8193,82.7637,33.2336,7.5806,-91.626,0.1535,0.2488,-0.6724,0.68
1777290490.8773224,R_Femur,-13.2597,15.2455,-3.2683,10.498,150.6348,-23.6206,64.4293,-2.8455,1.7413,0.5325,-0.0291,-0.0004,0.8459
1777290490.8773224,R_Tibia,0.4067,12.4845,-6.972,183.0444,-38.6963,128.9062,81.5625,2.4225,-11.5576,0.6481,0.0817,-0.0625,0.7546
1777290490.8773224,R_Foot,13.2405,3.6415,24.3804,58.8379,0.0,16.8457,-0.824,-5.4437,-86.0889,0.0272,-0.0396,-0.6815,0.7302
1777290490.8773224,Trunk,0.9188,17.1835,-3.919,-36.6211,-27.771,-38.8794,89.4122,1.6644,-15.5951,0.6955,0.1057,-0.0863,0.7055
1777290490.8773224,L_Femur,-2.072,15.992,-3.8281,-179.0161,-12.9395,-32.4097,118.3997,0.9833,5.5316,0.8581,-0.0371,0.0321,0.5111
1777290490.8773224,L_Tibia,-1.4499,19.5856,-4.9335,248.9624,5.3711,40.2832,151.853,-3.4003,-19.0393,0.9574,0.1532,-0.0686,0.235
1777290490.8773224,L_Foot,-1.7705,-3.5075,6.8332,930.6641,8.9111,117.1265,52.3938,5.5591,-90.3625,0.2799,0.3434,-0.6206,0.6469
1777290490.8773224,R_Femur,-13.2597,15.2455,-3.2683,10.498,150.6348,-23.6206,64.4293,-2.8455,1.7413,0.5325,-0.0291,-0.0004,0.8459
1777290490.8773224,R_Tibia,0.4067,12.4845,-6.972,183.0444,-38.6963,128.9062,81.5625,2.4225,-11.5576,0.6481,0.0817,-0.0625,0.7546
1777290490.8773224,R_Foot,13.2405,3.6415,24.3804,58.8379,0.0,16.8457,-0.824,-5.4437,-86.0889,0.0272,-0.0396,-0.6815,0.7302
1777290490.8773224,Trunk,0.9188,17.1835,-3.919,-36.6211,-27.771,-38.8794,89.4122,1.6644,-15.5951,0.6955,0.1057,-0.0863,0.7055
1777290490.8773224,L_Femur,-2.072,15.992,-3.8281,-179.0161,-12.9395,-32.4097,118.3997,0.9833,5.5316,0.8581,-0.0371,0.0321,0.5111
1777290490.8773224,L_Tibia,-1.4499,19.5856,-4.9335,248.9624,5.3711,40.2832,151.853,-3.4003,-19.0393,0.9574,0.1532,-0.0686,0.235
1777290490.8773224,L_Foot,-1.7705,-3.5075,6.8332,930.6641,8.9111,117.1265,52.3938,5.5591,-90.3625,0.2799,0.3434,-0.6206,0.6469
1777290490.8773224,R_Femur,-15.2551,-6.5078,-21.0547,86.3037,-190.3076,59.5093,66.0992,-4.2847,-0.0714,0.545,-0.031,-0.0209,0.8376
1777290490.8773224,R_Tibia,0.4067,12.4845,-6.972,183.0444,-38.6963,128.9062,81.5625,2.4225,-11.5576,0.6481,0.0817,-0.0625,0.7546
1777290490.8773224,R_Foot,13.2405,3.6415,24.3804,58.8379,0.0,16.8457,-0.824,-5.4437,-86.0889,0.0272,-0.0396,-0.6815,0.7302
1777290490.8773224,Trunk,2.0098,14.7861,-1.7274,-51.8799,-33.4473,-47.4854,88.6157,2.3456,-16.1005,0.6894,0.1123,-0.086,0.7104
1777290490.8773224,L_Femur,-2.072,15.992,-3.8281,-179.0161,-12.9395,-32.4097,118.3997,0.9833,5.5316,0.8581,-0.0371,0.0321,0.5111
1777290490.8773224,L_Tibia,-1.4499,19.5856,-4.9335,248.9624,5.3711,40.2832,151.853,-3.4003,-19.0393,0.9574,0.1532,-0.0686,0.235
1777290490.8773224,L_Foot,-1.7705,-3.5075,6.8332,930.6641,8.9111,117.1265,52.3938,5.5591,-90.3625,0.2799,0.3434,-0.6206,0.6469
1777290490.8773224,R_Femur,-15.2551,-6.5078,-21.0547,86.3037,-190.3076,59.5093,66.0992,-4.2847,-0.0714,0.545,-0.031,-0.0209,0.8376
1777290490.8773224,R_Tibia,0.4067,12.4845,-6.972,183.0444,-38.6963,128.9062,81.5625,2.4225,-11.5576,0.6481,0.0817,-0.0625,0.7546
1777290490.8773224,R_Foot,13.2405,3.6415,24.3804,58.8379,0.0,16.8457,-0.824,-5.4437,-86.0889,0.0272,-0.0396,-0.6815,0.7302
1777290490.8773224,Trunk,2.0098,14.7861,-1.7274,-51.8799,-33.4473,-47.4854,88.6157,2.3456,-16.1005,0.6894,0.1123,-0.086,0.7104
1777290490.8773224,L_Femur,-0.6986,15.6283,-9.2114,-192.8711,10.1318,-38.8184,114.5819,1.5765,5.9381,0.8406,-0.0362,0.0395,0.539
1777290490.8773224,L_Tibia,-1.4499,19.5856,-4.9335,248.9624,5.3711,40.2832,151.853,-3.4003,-19.0393,0.9574,0.1532,-0.0686,0.235
1777290490.8773224,L_Foot,-1.7705,-3.5075,6.8332,930.6641,8.9111,117.1265,52.3938,5.5591,-90.3625,0.2799,0.3434,-0.6206,0.6469
1777290490.8773224,R_Femur,-15.2551,-6.5078,-21.0547,86.3037,-190.3076,59.5093,66.0992,-4.2847,-0.0714,0.545,-0.031,-0.0209,0.8376
1777290490.8773224,R_Tibia,0.4067,12.4845,-6.972,183.0444,-38.6963,128.9062,81.5625,2.4225,-11.5576,0.6481,0.0817,-0.0625,0.7546
1777290490.8773224,R_Foot,13.2405,3.6415,24.3804,58.8379,0.0,16.8457,-0.824,-5.4437,-86.0889,0.0272,-0.0396,-0.6815,0.7302
1777290490.8773224,Trunk,2.0098,14.7861,-1.7274,-51.8799,-33.4473,-47.4854,88.6157,2.3456,-16.1005,0.6894,0.1123,-0.086,0.7104
1777290490.8773224,L_Femur,-0.6986,15.6283,-9.2114,-192.8711,10.1318,-38.8184,114.5819,1.5765,5.9381,0.8406,-0.0362,0.0395,0.539
1777290490.8773224,L_Tibia,1.493,19.8393,-2.6031,152.8931,57.4951,27.4048,155.3961,-4.4055,-19.2041,0.964,0.1548,-0.0725,0.2037
1777290490.8773224,L_Foot,-1.7705,-3.5075,6.8332,930.6641,8.9111,117.1265,52.3938,5.5591,-90.3625,0.2799,0.3434,-0.6206,0.6469
1777290490.8773224,R_Femur,-15.2551,-6.5078,-21.0547,86.3037,-190.3076,59.5093,66.0992,-4.2847,-0.0714,0.545,-0.031,-0.0209,0.8376
1777290490.8773224,R_Tibia,0.4067,12.4845,-6.972,183.0444,-38.6963,128.9062,81.5625,2.4225,-11.5576,0.6481,0.0817,-0.0625,0.7546
1777290490.8773224,R_Foot,13.2405,3.6415,24.3804,58.8379,0.0,16.8457,-0.824,-5.4437,-86.0889,0.0272,-0.0396,-0.6815,0.7302
1777290490.8773224,Trunk,2.0098,14.7861,-1.7274,-51.8799,-33.4473,-47.4854,88.6157,2.3456,-16.1005,0.6894,0.1123,-0.086,0.7104
1777290490.8773224,L_Femur,-0.6986,15.6283,-9.2114,-192.8711,10.1318,-38.8184,114.5819,1.5765,5.9381,0.8406,-0.0362,0.0395,0.539
1777290490.8773224,L_Tibia,1.493,19.8393,-2.6031,152.8931,57.4951,27.4048,155.3961,-4.4055,-19.2041,0.964,0.1548,-0.0725,0.2037
1777290490.8773224,L_Foot,-0.2823,0.6556,-0.78,905.8228,-72.2656,174.0723,65.929,3.4662,-89.3903,0.3688,0.4006,-0.5781,0.6077
1777290490.8773224,R_Femur,-15.2551,-6.5078,-21.0547,86.3037,-190.3076,59.5093,66.0992,-4.2847,-0.0714,0.545,-0.031,-0.0209,0.8376
1777290490.8773224,R_Tibia,0.4067,12.4845,-6.972,183.0444,-38.6963,128.9062,81.5625,2.4225,-11.5576,0.6481,0.0817,-0.0625,0.7546
1777290490.8773224,R_Foot,13.2405,3.6415,24.3804,58.8379,0.0,16.8457,-0.824,-5.4437,-86.0889,0.0272,-0.0396,-0.6815,0.7302
1777290490.8788297,Trunk,2.0098,14.7861,-1.7274,-51.8799,-33.4473,-47.4854,88.6157,2.3456,-16.1005,0.6894,0.1123,-0.086,0.7104
1777290490.8788297,L_Femur,-0.6986,15.6283,-9.2114,-192.8711,10.1318,-38.8184,114.5819,1.5765,5.9381,0.8406,-0.0362,0.0395,0.539
1777290490.8788297,L_Tibia,1.493,19.8393,-2.6031,152.8931,57.4951,27.4048,155.3961,-4.4055,-19.2041,0.964,0.1548,-0.0725,0.2037
1777290490.8788297,L_Foot,-0.2823,0.6556,-0.78,905.8228,-72.2656,174.0723,65.929,3.4662,-89.3903,0.3688,0.4006,-0.5781,0.6077
1777290490.8788297,R_Femur,-3.3831,-0.5072,-6.9241,85.083,-229.6753,97.29,67.478,-6.9434,-2.6312,0.5554,-0.0376,-0.0527,0.8291
1777290490.8788297,R_Tibia,0.4067,12.4845,-6.972,183.0444,-38.6963,128.9062,81.5625,2.4225,-11.5576,0.6481,0.0817,-0.0625,0.7546
1777290490.8788297,R_Foot,13.2405,3.6415,24.3804,58.8379,0.0,16.8457,-0.824,-5.4437,-86.0889,0.0272,-0.0396,-0.6815,0.7302
1777290490.8788297,Trunk,2.0098,14.7861,-1.7274,-51.8799,-33.4473,-47.4854,88.6157,2.3456,-16.1005,0.6894,0.1123,-0.086,0.7104
1777290490.8788297,L_Femur,-0.6986,15.6283,-9.2114,-192.8711,10.1318,-38.8184,114.5819,1.5765,5.9381,0.8406,-0.0362,0.0395,0.539
1777290490.8788297,L_Tibia,1.493,19.8393,-2.6031,152.8931,57.4951,27.4048,155.3961,-4.4055,-19.2041,0.964,0.1548,-0.0725,0.2037
1777290490.8788297,L_Foot,-0.2823,0.6556,-0.78,905.8228,-72.2656,174.0723,65.929,3.4662,-89.3903,0.3688,0.4006,-0.5781,0.6077
1777290490.8788297,R_Femur,-3.3831,-0.5072,-6.9241,85.083,-229.6753,97.29,67.478,-6.9434,-2.6312,0.5554,-0.0376,-0.0527,0.8291
1777290490.8788297,R_Tibia,12.9965,5.2924,-12.9104,95.8862,66.1621,67.1387,85.7208,0.1648,-10.6512,0.6772,0.0642,-0.0671,0.7299
1777290490.8788297,R_Foot,13.2405,3.6415,24.3804,58.8379,0.0,16.8457,-0.824,-5.4437,-86.0889,0.0272,-0.0396,-0.6815,0.7302
1777290490.8788297,Trunk,0.8757,9.6947,-1.1149,-10.6201,-24.9634,-31.7383,88.0884,3.0652,-16.6992,0.6848,0.1199,-0.0859,0.7136
1777290490.8788297,L_Femur,-0.6986,15.6283,-9.2114,-192.8711,10.1318,-38.8184,114.5819,1.5765,5.9381,0.8406,-0.0362,0.0395,0.539
1777290490.8788297,L_Tibia,1.493,19.8393,-2.6031,152.8931,57.4951,27.4048,155.3961,-4.4055,-19.2041,0.964,0.1548,-0.0725,0.2037
1777290490.8788297,L_Foot,-0.2823,0.6556,-0.78,905.8228,-72.2656,174.0723,65.929,3.4662,-89.3903,0.3688,0.4006,-0.5781,0.6077
1777290490.8788297,R_Femur,-3.3831,-0.5072,-6.9241,85.083,-229.6753,97.29,67.478,-6.9434,-2.6312,0.5554,-0.0376,-0.0527,0.8291
1777290490.8788297,R_Tibia,12.9965,5.2924,-12.9104,95.8862,66.1621,67.1387,85.7208,0.1648,-10.6512,0.6772,0.0642,-0.0671,0.7299
1777290490.8788297,R_Foot,13.2405,3.6415,24.3804,58.8379,0.0,16.8457,-0.824,-5.4437,-86.0889,0.0272,-0.0396,-0.6815,0.7302
1777290490.8788297,Trunk,0.8757,9.6947,-1.1149,-10.6201,-24.9634,-31.7383,88.0884,3.0652,-16.6992,0.6848,0.1199,-0.0859,0.7136
1777290490.8788297,L_Femur,-0.2345,15.6666,-9.7043,-198.6694,-8.9722,-40.3442,111.6156,2.1478,6.1139,0.8264,-0.0336,0.0454,0.5602
1777290490.8788297,L_Tibia,1.493,19.8393,-2.6031,152.8931,57.4951,27.4048,155.3961,-4.4055,-19.2041,0.964,0.1548,-0.0725,0.2037
1777290490.8788297,L_Foot,-0.2823,0.6556,-0.78,905.8228,-72.2656,174.0723,65.929,3.4662,-89.3903,0.3688,0.4006,-0.5781,0.6077
1777290490.8788297,R_Femur,-3.3831,-0.5072,-6.9241,85.083,-229.6753,97.29,67.478,-6.9434,-2.6312,0.5554,-0.0376,-0.0527,0.8291
1777290490.8788297,R_Tibia,12.9965,5.2924,-12.9104,95.8862,66.1621,67.1387,85.7208,0.1648,-10.6512,0.6772,0.0642,-0.0671,0.7299
1777290490.8788297,R_Foot,13.2405,3.6415,24.3804,58.8379,0.0,16.8457,-0.824,-5.4437,-86.0889,0.0272,-0.0396,-0.6815,0.7302
1777290490.8788297,Trunk,0.8757,9.6947,-1.1149,-10.6201,-24.9634,-31.7383,88.0884,3.0652,-16.6992,0.6848,0.1199,-0.0859,0.7136
1777290490.8788297,L_Femur,-0.2345,15.6666,-9.7043,-198.6694,-8.9722,-40.3442,111.6156,2.1478,6.1139,0.8264,-0.0336,0.0454,0.5602
1777290490.8788297,L_Tibia,3.4692,14.0253,-7.4888,94.1162,54.1382,25.9399,156.9342,-5.3394,-19.2096,0.9666,0.1541,-0.0783,0.1893
1777290490.8788297,L_Foot,-0.2823,0.6556,-0.78,905.8228,-72.2656,174.0723,65.929,3.4662,-89.3903,0.3688,0.4006,-0.5781,0.6077
1777290490.8788297,R_Femur,-3.3831,-0.5072,-6.9241,85.083,-229.6753,97.29,67.478,-6.9434,-2.6312,0.5554,-0.0376,-0.0527,0.8291
1777290490.8788297,R_Tibia,12.9965,5.2924,-12.9104,95.8862,66.1621,67.1387,85.7208,0.1648,-10.6512,0.6772,0.0642,-0.0671,0.7299
1777290490.8788297,R_Foot,13.2405,3.6415,24.3804,58.8379,0.0,16.8457,-0.824,-5.4437,-86.0889,0.0272,-0.0396,-0.6815,0.7302
1777290490.8788297,Trunk,0.8757,9.6947,-1.1149,-10.6201,-24.9634,-31.7383,88.0884,3.0652,-16.6992,0.6848,0.1199,-0.0859,0.7136
1777290490.8788297,L_Femur,-0.2345,15.6666,-9.7043,-198.6694,-8.9722,-40.3442,111.6156,2.1478,6.1139,0.8264,-0.0336,0.0454,0.5602
1777290490.8788297,L_Tibia,3.4692,14.0253,-7.4888,94.1162,54.1382,25.9399,156.9342,-5.3394,-19.2096,0.9666,0.1541,-0.0783,0.1893
1777290490.8788297,L_Foot,4.3641,20.3226,45.7604,441.2231,240.3564,223.5107,74.1522,0.9503,-86.5338,0.4344,0.418,-0.5432,0.5844
1777290490.8788297,R_Femur,-3.3831,-0.5072,-6.9241,85.083,-229.6753,97.29,67.478,-6.9434,-2.6312,0.5554,-0.0376,-0.0527,0.8291
1777290490.8788297,R_Tibia,12.9965,5.2924,-12.9104,95.8862,66.1621,67.1387,85.7208,0.1648,-10.6512,0.6772,0.0642,-0.0671,0.7299
1777290490.8788297,R_Foot,13.2405,3.6415,24.3804,58.8379,0.0,16.8457,-0.824,-5.4437,-86.0889,0.0272,-0.0396,-0.6815,0.7302
1777290490.880113,Trunk,-1.5025,8.4458,-0.8661,16.2354,-4.8218,-11.5967,88.2422,3.2904,-16.8475,0.6854,0.1223,-0.0853,0.7128
1777290490.880113,L_Femur,-0.2345,15.6666,-9.7043,-198.6694,-8.9722,-40.3442,111.6156,2.1478,6.1139,0.8264,-0.0336,0.0454,0.5602
1777290490.880113,L_Tibia,3.4692,14.0253,-7.4888,94.1162,54.1382,25.9399,156.9342,-5.3394,-19.2096,0.9666,0.1541,-0.0783,0.1893
1777290490.880113,L_Foot,4.3641,20.3226,45.7604,441.2231,240.3564,223.5107,74.1522,0.9503,-86.5338,0.4344,0.418,-0.5432,0.5844
1777290490.880113,R_Femur,-3.3831,-0.5072,-6.9241,85.083,-229.6753,97.29,67.478,-6.9434,-2.6312,0.5554,-0.0376,-0.0527,0.8291
1777290490.880113,R_Tibia,12.9965,5.2924,-12.9104,95.8862,66.1621,67.1387,85.7208,0.1648,-10.6512,0.6772,0.0642,-0.0671,0.7299
1777290490.880113,R_Foot,13.2405,3.6415,24.3804,58.8379,0.0,16.8457,-0.824,-5.4437,-86.0889,0.0272,-0.0396,-0.6815,0.7302
1777290490.880113,Trunk,-1.5025,8.4458,-0.8661,16.2354,-4.8218,-11.5967,88.2422,3.2904,-16.8475,0.6854,0.1223,-0.0853,0.7128
1777290490.880113,L_Femur,0.3206,16.0542,-5.9192,-207.0312,-57.0068,-42.0532,107.5177,3.219,5.592,0.8061,-0.0227,0.0515,0.5891
1777290490.880113,L_Tibia,3.4692,14.0253,-7.4888,94.1162,54.1382,25.9399,156.9342,-5.3394,-19.2096,0.9666,0.1541,-0.0783,0.1893
1777290490.880113,L_Foot,4.3641,20.3226,45.7604,441.2231,240.3564,223.5107,74.1522,0.9503,-86.5338,0.4344,0.418,-0.5432,0.5844
1777290490.880113,R_Femur,-3.3831,-0.5072,-6.9241,85.083,-229.6753,97.29,67.478,-6.9434,-2.6312,0.5554,-0.0376,-0.0527,0.8291
1777290490.880113,R_Tibia,12.9965,5.2924,-12.9104,95.8862,66.1621,67.1387,85.7208,0.1648,-10.6512,0.6772,0.0642,-0.0671,0.7299
1777290490.880113,R_Foot,13.2405,3.6415,24.3804,58.8379,0.0,16.8457,-0.824,-5.4437,-86.0889,0.0272,-0.0396,-0.6815,0.7302
1777290490.880113,Trunk,-1.5025,8.4458,-0.8661,16.2354,-4.8218,-11.5967,88.2422,3.2904,-16.8475,0.6854,0.1223,-0.0853,0.7128
1777290490.880113,L_Femur,0.3206,16.0542,-5.9192,-207.0312,-57.0068,-42.0532,107.5177,3.219,5.592,0.8061,-0.0227,0.0515,0.5891
1777290490.880113,L_Tibia,3.4692,14.0253,-7.4888,94.1162,54.1382,25.9399,156.9342,-5.3394,-19.2096,0.9666,0.1541,-0.0783,0.1893
1777290490.880113,L_Foot,-18.2123,7.7424,70.2461,-171.7529,145.4468,104.7363,73.8281,-1.5106,-83.4631,0.4552,0.3919,-0.5381,0.5914
1777290490.880113,R_Femur,-3.3831,-0.5072,-6.9241,85.083,-229.6753,97.29,67.478,-6.9434,-2.6312,0.5554,-0.0376,-0.0527,0.8291
1777290490.880113,R_Tibia,12.9965,5.2924,-12.9104,95.8862,66.1621,67.1387,85.7208,0.1648,-10.6512,0.6772,0.0642,-0.0671,0.7299
1777290490.880113,R_Foot,13.2405,3.6415,24.3804,58.8379,0.0,16.8457,-0.824,-5.4437,-86.0889,0.0272,-0.0396,-0.6815,0.7302
1777290490.8811224,Trunk,-1.5025,8.4458,-0.8661,16.2354,-4.8218,-11.5967,88.2422,3.2904,-16.8475,0.6854,0.1223,-0.0853,0.7128
1777290490.8811224,L_Femur,0.3206,16.0542,-5.9192,-207.0312,-57.0068,-42.0532,107.5177,3.219,5.592,0.8061,-0.0227,0.0515,0.5891
1777290490.8811224,L_Tibia,3.4692,14.0253,-7.4888,94.1162,54.1382,25.9399,156.9342,-5.3394,-19.2096,0.9666,0.1541,-0.0783,0.1893
1777290490.8811224,L_Foot,-18.2123,7.7424,70.2461,-171.7529,145.4468,104.7363,73.8281,-1.5106,-83.4631,0.4552,0.3919,-0.5381,0.5914
1777290490.8811224,R_Femur,19.2794,17.0782,-6.8332,124.2676,38.6353,-0.7324,73.0591,-10.0909,-6.4545,0.596,-0.0372,-0.0973,0.7962
1777290490.8811224,R_Tibia,12.9965,5.2924,-12.9104,95.8862,66.1621,67.1387,85.7208,0.1648,-10.6512,0.6772,0.0642,-0.0671,0.7299
1777290490.8811224,R_Foot,13.2405,3.6415,24.3804,58.8379,0.0,16.8457,-0.824,-5.4437,-86.0889,0.0272,-0.0396,-0.6815,0.7302
1777290490.8811224,Trunk,-1.5025,8.4458,-0.8661,16.2354,-4.8218,-11.5967,88.2422,3.2904,-16.8475,0.6854,0.1223,-0.0853,0.7128
1777290490.8811224,L_Femur,0.3206,16.0542,-5.9192,-207.0312,-57.0068,-42.0532,107.5177,3.219,5.592,0.8061,-0.0227,0.0515,0.5891
1777290490.8811224,L_Tibia,3.4692,14.0253,-7.4888,94.1162,54.1382,25.9399,156.9342,-5.3394,-19.2096,0.9666,0.1541,-0.0783,0.1893
1777290490.8811224,L_Foot,-18.2123,7.7424,70.2461,-171.7529,145.4468,104.7363,73.8281,-1.5106,-83.4631,0.4552,0.3919,-0.5381,0.5914
1777290490.8811224,R_Femur,19.2794,17.0782,-6.8332,124.2676,38.6353,-0.7324,73.0591,-10.0909,-6.4545,0.596,-0.0372,-0.0973,0.7962
1777290490.8811224,R_Tibia,-2.7515,15.9729,-7.1969,56.7627,-70.8008,42.5415,87.9785,-2.0325,-10.3326,0.6927,0.0498,-0.077,0.7153
1777290490.8811224,R_Foot,13.2405,3.6415,24.3804,58.8379,0.0,16.8457,-0.824,-5.4437,-86.0889,0.0272,-0.0396,-0.6815,0.7302
1777290490.8811224,Trunk,-1.5025,8.4458,-0.8661,16.2354,-4.8218,-11.5967,88.2422,3.2904,-16.8475,0.6854,0.1223,-0.0853,0.7128
1777290490.8811224,L_Femur,0.3206,16.0542,-5.9192,-207.0312,-57.0068,-42.0532,107.5177,3.219,5.592,0.8061,-0.0227,0.0515,0.5891
1777290490.8811224,L_Tibia,3.4692,14.0253,-7.4888,94.1162,54.1382,25.9399,156.9342,-5.3394,-19.2096,0.9666,0.1541,-0.0783,0.1893
1777290490.8811224,L_Foot,-18.2123,7.7424,70.2461,-171.7529,145.4468,104.7363,73.8281,-1.5106,-83.4631,0.4552,0.3919,-0.5381,0.5914
1777290490.8811224,R_Femur,19.2794,17.0782,-6.8332,124.2676,38.6353,-0.7324,73.0591,-10.0909,-6.4545,0.596,-0.0372,-0.0973,0.7962
1777290490.8811224,R_Tibia,-2.7515,15.9729,-7.1969,56.7627,-70.8008,42.5415,87.9785,-2.0325,-10.3326,0.6927,0.0498,-0.077,0.7153
1777290490.8811224,R_Foot,-0.1531,0.1292,10.9341,-12.085,6.5308,-3.0518,0.6592,-5.5316,-86.0504,0.0371,-0.0314,-0.6817,0.73
1777290490.8811224,Trunk,-1.5025,8.4458,-0.8661,16.2354,-4.8218,-11.5967,88.2422,3.2904,-16.8475,0.6854,0.1223,-0.0853,0.7128
1777290490.8811224,L_Femur,0.1388,16.6667,-4.254,-216.3696,-75.4395,-43.0298,104.2273,4.1254,4.7186,0.789,-0.0104,0.0536,0.612
1777290490.8811224,L_Tibia,3.4692,14.0253,-7.4888,94.1162,54.1382,25.9399,156.9342,-5.3394,-19.2096,0.9666,0.1541,-0.0783,0.1893
1777290490.8811224,L_Foot,-18.2123,7.7424,70.2461,-171.7529,145.4468,104.7363,73.8281,-1.5106,-83.4631,0.4552,0.3919,-0.5381,0.5914
1777290490.8811224,R_Femur,19.2794,17.0782,-6.8332,124.2676,38.6353,-0.7324,73.0591,-10.0909,-6.4545,0.596,-0.0372,-0.0973,0.7962
1777290490.8811224,R_Tibia,-2.7515,15.9729,-7.1969,56.7627,-70.8008,42.5415,87.9785,-2.0325,-10.3326,0.6927,0.0498,-0.077,0.7153
1777290490.8811224,R_Foot,-0.1531,0.1292,10.9341,-12.085,6.5308,-3.0518,0.6592,-5.5316,-86.0504,0.0371,-0.0314,-0.6817,0.73
1777290490.882124,Trunk,-1.5025,8.4458,-0.8661,16.2354,-4.8218,-11.5967,88.2422,3.2904,-16.8475,0.6854,0.1223,-0.0853,0.7128
1777290490.882124,L_Femur,0.1388,16.6667,-4.254,-216.3696,-75.4395,-43.0298,104.2273,4.1254,4.7186,0.789,-0.0104,0.0536,0.612
1777290490.882124,L_Tibia,-0.4929,11.4939,-12.5802,13.855,55.8472,-6.5308,158.9996,-7.1521,-18.5944,0.9703,0.1473,-0.0899,0.1696
1777290490.882124,L_Foot,-18.2123,7.7424,70.2461,-171.7529,145.4468,104.7363,73.8281,-1.5106,-83.4631,0.4552,0.3919,-0.5381,0.5914
1777290490.882124,R_Femur,19.2794,17.0782,-6.8332,124.2676,38.6353,-0.7324,73.0591,-10.0909,-6.4545,0.596,-0.0372,-0.0973,0.7962
1777290490.882124,R_Tibia,-2.7515,15.9729,-7.1969,56.7627,-70.8008,42.5415,87.9785,-2.0325,-10.3326,0.6927,0.0498,-0.077,0.7153
1777290490.882124,R_Foot,-0.1531,0.1292,10.9341,-12.085,6.5308,-3.0518,0.6592,-5.5316,-86.0504,0.0371,-0.0314,-0.6817,0.73
1777290490.882124,Trunk,-1.5025,8.4458,-0.8661,16.2354,-4.8218,-11.5967,88.2422,3.2904,-16.8475,0.6854,0.1223,-0.0853,0.7128
1777290490.882124,L_Femur,0.1388,16.6667,-4.254,-216.3696,-75.4395,-43.0298,104.2273,4.1254,4.7186,0.789,-0.0104,0.0536,0.612
1777290490.882124,L_Tibia,-0.4929,11.4939,-12.5802,13.855,55.8472,-6.5308,158.9996,-7.1521,-18.5944,0.9703,0.1473,-0.0899,0.1696
1777290490.882124,L_Foot,-18.4037,-8.977,20.7771,-197.937,-56.8237,34.8511,70.8948,-2.2577,-83.6938,0.4426,0.3749,-0.5519,0.5991
1777290490.882124,R_Femur,19.2794,17.0782,-6.8332,124.2676,38.6353,-0.7324,73.0591,-10.0909,-6.4545,0.596,-0.0372,-0.0973,0.7962
1777290490.882124,R_Tibia,-2.7515,15.9729,-7.1969,56.7627,-70.8008,42.5415,87.9785,-2.0325,-10.3326,0.6927,0.0498,-0.077,0.7153
1777290490.882124,R_Foot,-0.1531,0.1292,10.9341,-12.085,6.5308,-3.0518,0.6592,-5.5316,-86.0504,0.0371,-0.0314,-0.6817,0.73
1777290490.882124,Trunk,-1.5025,8.4458,-0.8661,16.2354,-4.8218,-11.5967,88.2422,3.2904,-16.8475,0.6854,0.1223,-0.0853,0.7128
1777290490.882124,L_Femur,0.1388,16.6667,-4.254,-216.3696,-75.4395,-43.0298,104.2273,4.1254,4.7186,0.789,-0.0104,0.0536,0.612
1777290490.882124,L_Tibia,-0.4929,11.4939,-12.5802,13.855,55.8472,-6.5308,158.9996,-7.1521,-18.5944,0.9703,0.1473,-0.0899,0.1696
1777290490.882124,L_Foot,-18.4037,-8.977,20.7771,-197.937,-56.8237,34.8511,70.8948,-2.2577,-83.6938,0.4426,0.3749,-0.5519,0.5991
1777290490.882124,R_Femur,6.9911,15.1115,104.1729,412.1704,-1281.0059,-562.1338,4.2133,3.5156,-0.7031,0.0366,0.0309,-0.005,0.9988
1777290490.882124,R_Tibia,-2.7515,15.9729,-7.1969,56.7627,-70.8008,42.5415,87.9785,-2.0325,-10.3326,0.6927,0.0498,-0.077,0.7153
1777290490.882124,R_Foot,-0.1531,0.1292,10.9341,-12.085,6.5308,-3.0518,0.6592,-5.5316,-86.0504,0.0371,-0.0314,-0.6817,0.73
1777290490.882124,Trunk,-1.5025,8.4458,-0.8661,16.2354,-4.8218,-11.5967,88.2422,3.2904,-16.8475,0.6854,0.1223,-0.0853,0.7128
1777290490.882124,L_Femur,5.034,8.1826,-1.4021,0.2441,-0.4272,-0.1221,99.7119,-31.2067,-159.8785,0.2994,0.6946,-0.6473,-0.094
1777290490.882124,L_Tibia,-0.4929,11.4939,-12.5802,13.855,55.8472,-6.5308,158.9996,-7.1521,-18.5944,0.9703,0.1473,-0.0899,0.1696
1777290490.882124,L_Foot,-18.4037,-8.977,20.7771,-197.937,-56.8237,34.8511,70.8948,-2.2577,-83.6938,0.4426,0.3749,-0.5519,0.5991
1777290490.882124,R_Femur,6.9911,15.1115,104.1729,412.1704,-1281.0059,-562.1338,4.2133,3.5156,-0.7031,0.0366,0.0309,-0.005,0.9988
1777290490.882124,R_Tibia,-2.7515,15.9729,-7.1969,56.7627,-70.8008,42.5415,87.9785,-2.0325,-10.3326,0.6927,0.0498,-0.077,0.7153
1777290490.882124,R_Foot,-0.1531,0.1292,10.9341,-12.085,6.5308,-3.0518,0.6592,-5.5316,-86.0504,0.0371,-0.0314,-0.6817,0.73
1777290490.882124,Trunk,-1.5025,8.4458,-0.8661,16.2354,-4.8218,-11.5967,88.2422,3.2904,-16.8475,0.6854,0.1223,-0.0853,0.7128
1777290490.882124,L_Femur,5.034,8.1826,-1.4068,0.1221,-0.4272,-0.1221,99.7119,-31.2067,-159.8785,0.2994,0.6946,-0.6473,-0.094
1777290490.882124,L_Tibia,-0.4929,11.4939,-12.5802,13.855,55.8472,-6.5308,158.9996,-7.1521,-18.5944,0.9703,0.1473,-0.0899,0.1696
1777290490.882124,L_Foot,-18.4037,-8.977,20.7771,-197.937,-56.8237,34.8511,70.8948,-2.2577,-83.6938,0.4426,0.3749,-0.5519,0.5991
1777290490.882124,R_Femur,6.9911,15.1115,104.1729,412.1704,-1281.0059,-562.1338,4.2133,3.5156,-0.7031,0.0366,0.0309,-0.005,0.9988
1777290490.882124,R_Tibia,-2.7515,15.9729,-7.1969,56.7627,-70.8008,42.5415,87.9785,-2.0325,-10.3326,0.6927,0.0498,-0.077,0.7153
1777290490.882124,R_Foot,-0.1531,0.1292,10.9341,-12.085,6.5308,-3.0518,0.6592,-5.5316,-86.0504,0.0371,-0.0314,-0.6817,0.73
1777290490.882124,Trunk,-1.5025,8.4458,-0.8661,16.2354,-4.8218,-11.5967,88.2422,3.2904,-16.8475,0.6854,0.1223,-0.0853,0.7128
1777290490.882124,L_Femur,5.0244,8.1874,-1.3973,0.1831,-0.4272,-0.1221,99.7119,-31.2067,-159.8785,0.2994,0.6946,-0.6473,-0.094
1777290490.882124,L_Tibia,-0.4929,11.4939,-12.5802,13.855,55.8472,-6.5308,158.9996,-7.1521,-18.5944,0.9703,0.1473,-0.0899,0.1696
1777290490.882124,L_Foot,-18.4037,-8.977,20.7771,-197.937,-56.8237,34.8511,70.8948,-2.2577,-83.6938,0.4426,0.3749,-0.5519,0.5991
1777290490.882124,R_Femur,6.9911,15.1115,104.1729,412.1704,-1281.0059,-562.1338,4.2133,3.5156,-0.7031,0.0366,0.0309,-0.005,0.9988
1777290490.882124,R_Tibia,-2.7515,15.9729,-7.1969,56.7627,-70.8008,42.5415,87.9785,-2.0325,-10.3326,0.6927,0.0498,-0.077,0.7153
1777290490.882124,R_Foot,-0.1531,0.1292,10.9341,-12.085,6.5308,-3.0518,0.6592,-5.5316,-86.0504,0.0371,-0.0314,-0.6817,0.73
1777290490.9602125,Trunk,-1.5025,8.4458,-0.8661,16.2354,-4.8218,-11.5967,88.2422,3.2904,-16.8475,0.6854,0.1223,-0.0853,0.7128
1777290490.9602125,L_Femur,5.0292,8.1826,-1.3973,0.2441,-0.4272,-0.1221,99.7119,-31.2067,-159.8785,0.2994,0.6946,-0.6473,-0.094
1777290490.9602125,L_Tibia,-0.4929,11.4939,-12.5802,13.855,55.8472,-6.5308,158.9996,-7.1521,-18.5944,0.9703,0.1473,-0.0899,0.1696
1777290490.9602125,L_Foot,-18.4037,-8.977,20.7771,-197.937,-56.8237,34.8511,70.8948,-2.2577,-83.6938,0.4426,0.3749,-0.5519,0.5991
1777290490.9602125,R_Femur,6.9911,15.1115,104.1729,412.1704,-1281.0059,-562.1338,4.2133,3.5156,-0.7031,0.0366,0.0309,-0.005,0.9988
1777290490.9602125,R_Tibia,-2.7515,15.9729,-7.1969,56.7627,-70.8008,42.5415,87.9785,-2.0325,-10.3326,0.6927,0.0498,-0.077,0.7153
1777290490.9602125,R_Foot,-0.1531,0.1292,10.9341,-12.085,6.5308,-3.0518,0.6592,-5.5316,-86.0504,0.0371,-0.0314,-0.6817,0.73
1777290490.9602125,Trunk,-1.5025,8.4458,-0.8661,16.2354,-4.8218,-11.5967,88.2422,3.2904,-16.8475,0.6854,0.1223,-0.0853,0.7128
1777290490.9602125,L_Femur,5.0292,8.1826,-1.4116,0.1221,-0.4272,-0.1221,99.7119,-31.2067,-159.8785,0.2994,0.6946,-0.6473,-0.094
1777290490.9602125,L_Tibia,-0.4929,11.4939,-12.5802,13.855,55.8472,-6.5308,158.9996,-7.1521,-18.5944,0.9703,0.1473,-0.0899,0.1696
1777290490.9602125,L_Foot,-18.4037,-8.977,20.7771,-197.937,-56.8237,34.8511,70.8948,-2.2577,-83.6938,0.4426,0.3749,-0.5519,0.5991
1777290490.9602125,R_Femur,6.9911,15.1115,104.1729,412.1704,-1281.0059,-562.1338,4.2133,3.5156,-0.7031,0.0366,0.0309,-0.005,0.9988
1777290490.9602125,R_Tibia,-2.7515,15.9729,-7.1969,56.7627,-70.8008,42.5415,87.9785,-2.0325,-10.3326,0.6927,0.0498,-0.077,0.7153
1777290490.9602125,R_Foot,-0.1531,0.1292,10.9341,-12.085,6.5308,-3.0518,0.6592,-5.5316,-86.0504,0.0371,-0.0314,-0.6817,0.73
1777290490.9602125,Trunk,-1.5025,8.4458,-0.8661,16.2354,-4.8218,-11.5967,88.2422,3.2904,-16.8475,0.6854,0.1223,-0.0853,0.7128
1777290490.9602125,L_Femur,5.0244,8.1778,-1.4021,0.1221,-0.4272,-0.1831,99.7119,-31.2067,-159.8785,0.2994,0.6946,-0.6473,-0.094
1777290490.9602125,L_Tibia,-0.4929,11.4939,-12.5802,13.855,55.8472,-6.5308,158.9996,-7.1521,-18.5944,0.9703,0.1473,-0.0899,0.1696
1777290490.9602125,L_Foot,-18.4037,-8.977,20.7771,-197.937,-56.8237,34.8511,70.8948,-2.2577,-83.6938,0.4426,0.3749,-0.5519,0.5991
1777290490.9602125,R_Femur,6.9911,15.1115,104.1729,412.1704,-1281.0059,-562.1338,4.2133,3.5156,-0.7031,0.0366,0.0309,-0.005,0.9988
1777290490.9602125,R_Tibia,-2.7515,15.9729,-7.1969,56.7627,-70.8008,42.5415,87.9785,-2.0325,-10.3326,0.6927,0.0498,-0.077,0.7153
1777290490.9602125,R_Foot,-0.1531,0.1292,10.9341,-12.085,6.5308,-3.0518,0.6592,-5.5316,-86.0504,0.0371,-0.0314,-0.6817,0.73
1777290490.9602125,Trunk,-1.5025,8.4458,-0.8661,16.2354,-4.8218,-11.5967,88.2422,3.2904,-16.8475,0.6854,0.1223,-0.0853,0.7128
1777290490.9602125,L_Femur,5.0388,8.1874,-1.3973,0.1221,-0.3662,-0.1221,99.7119,-31.2067,-159.8785,0.2994,0.6946,-0.6473,-0.094
1777290490.9602125,L_Tibia,-0.4929,11.4939,-12.5802,13.855,55.8472,-6.5308,158.9996,-7.1521,-18.5944,0.9703,0.1473,-0.0899,0.1696
1777290490.9602125,L_Foot,-18.4037,-8.977,20.7771,-197.937,-56.8237,34.8511,70.8948,-2.2577,-83.6938,0.4426,0.3749,-0.5519,0.5991
1777290490.9602125,R_Femur,6.9911,15.1115,104.1729,412.1704,-1281.0059,-562.1338,4.2133,3.5156,-0.7031,0.0366,0.0309,-0.005,0.9988
1777290490.9602125,R_Tibia,-2.7515,15.9729,-7.1969,56.7627,-70.8008,42.5415,87.9785,-2.0325,-10.3326,0.6927,0.0498,-0.077,0.7153
1777290490.9602125,R_Foot,-0.1531,0.1292,10.9341,-12.085,6.5308,-3.0518,0.6592,-5.5316,-86.0504,0.0371,-0.0314,-0.6817,0.73
1777290490.961212,Trunk,-1.5025,8.4458,-0.8661,16.2354,-4.8218,-11.5967,88.2422,3.2904,-16.8475,0.6854,0.1223,-0.0853,0.7128
1777290490.961212,L_Femur,5.0244,8.1778,-1.3973,0.2441,-0.3662,-0.1221,99.7119,-31.2067,-159.8785,0.2994,0.6946,-0.6473,-0.094
1777290490.961212,L_Tibia,-0.4929,11.4939,-12.5802,13.855,55.8472,-6.5308,158.9996,-7.1521,-18.5944,0.9703,0.1473,-0.0899,0.1696
1777290490.961212,L_Foot,-18.4037,-8.977,20.7771,-197.937,-56.8237,34.8511,70.8948,-2.2577,-83.6938,0.4426,0.3749,-0.5519,0.5991
1777290490.961212,R_Femur,6.9911,15.1115,104.1729,412.1704,-1281.0059,-562.1338,4.2133,3.5156,-0.7031,0.0366,0.0309,-0.005,0.9988
1777290490.961212,R_Tibia,-2.7515,15.9729,-7.1969,56.7627,-70.8008,42.5415,87.9785,-2.0325,-10.3326,0.6927,0.0498,-0.077,0.7153
1777290490.961212,R_Foot,-0.1531,0.1292,10.9341,-12.085,6.5308,-3.0518,0.6592,-5.5316,-86.0504,0.0371,-0.0314,-0.6817,0.73
1777290491.021974,Trunk,-1.5025,8.4458,-0.8661,16.2354,-4.8218,-11.5967,88.2422,3.2904,-16.8475,0.6854,0.1223,-0.0853,0.7128
1777290491.021974,L_Femur,5.034,8.1922,-1.4021,0.1831,-0.4272,-0.1221,99.7119,-31.2067,-159.8785,0.2994,0.6946,-0.6473,-0.094
1777290491.021974,L_Tibia,-0.4929,11.4939,-12.5802,13.855,55.8472,-6.5308,158.9996,-7.1521,-18.5944,0.9703,0.1473,-0.0899,0.1696
1777290491.021974,L_Foot,-18.4037,-8.977,20.7771,-197.937,-56.8237,34.8511,70.8948,-2.2577,-83.6938,0.4426,0.3749,-0.5519,0.5991
1777290491.021974,R_Femur,6.9911,15.1115,104.1729,412.1704,-1281.0059,-562.1338,4.2133,3.5156,-0.7031,0.0366,0.0309,-0.005,0.9988
1777290491.021974,R_Tibia,-2.7515,15.9729,-7.1969,56.7627,-70.8008,42.5415,87.9785,-2.0325,-10.3326,0.6927,0.0498,-0.077,0.7153
1777290491.021974,R_Foot,-0.1531,0.1292,10.9341,-12.085,6.5308,-3.0518,0.6592,-5.5316,-86.0504,0.0371,-0.0314,-0.6817,0.73
1777290491.021974,Trunk,-1.5025,8.4458,-0.8661,16.2354,-4.8218,-11.5967,88.2422,3.2904,-16.8475,0.6854,0.1223,-0.0853,0.7128
1777290491.021974,L_Femur,5.034,8.173,-1.4021,0.1831,-0.3052,-0.1221,99.7119,-31.2067,-159.8785,0.2994,0.6946,-0.6473,-0.094
1777290491.021974,L_Tibia,-0.4929,11.4939,-12.5802,13.855,55.8472,-6.5308,158.9996,-7.1521,-18.5944,0.9703,0.1473,-0.0899,0.1696
1777290491.021974,L_Foot,-18.4037,-8.977,20.7771,-197.937,-56.8237,34.8511,70.8948,-2.2577,-83.6938,0.4426,0.3749,-0.5519,0.5991
1777290491.021974,R_Femur,6.9911,15.1115,104.1729,412.1704,-1281.0059,-562.1338,4.2133,3.5156,-0.7031,0.0366,0.0309,-0.005,0.9988
1777290491.021974,R_Tibia,-2.7515,15.9729,-7.1969,56.7627,-70.8008,42.5415,87.9785,-2.0325,-10.3326,0.6927,0.0498,-0.077,0.7153
1777290491.021974,R_Foot,-0.1531,0.1292,10.9341,-12.085,6.5308,-3.0518,0.6592,-5.5316,-86.0504,0.0371,-0.0314,-0.6817,0.73
1777290491.021974,Trunk,-1.5025,8.4458,-0.8661,16.2354,-4.8218,-11.5967,88.2422,3.2904,-16.8475,0.6854,0.1223,-0.0853,0.7128
1777290491.021974,L_Femur,5.0244,8.1874,-1.4021,0.2441,-0.4272,-0.1221,99.7119,-31.2067,-159.8785,0.2994,0.6946,-0.6473,-0.094
1777290491.021974,L_Tibia,-0.4929,11.4939,-12.5802,13.855,55.8472,-6.5308,158.9996,-7.1521,-18.5944,0.9703,0.1473,-0.0899,0.1696
1777290491.021974,L_Foot,-18.4037,-8.977,20.7771,-197.937,-56.8237,34.8511,70.8948,-2.2577,-83.6938,0.4426,0.3749,-0.5519,0.5991
1777290491.021974,R_Femur,6.9911,15.1115,104.1729,412.1704,-1281.0059,-562.1338,4.2133,3.5156,-0.7031,0.0366,0.0309,-0.005,0.9988
1777290491.021974,R_Tibia,-2.7515,15.9729,-7.1969,56.7627,-70.8008,42.5415,87.9785,-2.0325,-10.3326,0.6927,0.0498,-0.077,0.7153
1777290491.021974,R_Foot,-0.1531,0.1292,10.9341,-12.085,6.5308,-3.0518,0.6592,-5.5316,-86.0504,0.0371,-0.0314,-0.6817,0.73
1777290491.0229716,Trunk,-1.5025,8.4458,-0.8661,16.2354,-4.8218,-11.5967,88.2422,3.2904,-16.8475,0.6854,0.1223,-0.0853,0.7128
1777290491.0229716,L_Femur,5.0292,8.1778,-1.4021,0.1221,-0.3662,-0.061,99.7119,-31.2067,-159.8785,0.2994,0.6946,-0.6473,-0.094
1777290491.0229716,L_Tibia,-0.4929,11.4939,-12.5802,13.855,55.8472,-6.5308,158.9996,-7.1521,-18.5944,0.9703,0.1473,-0.0899,0.1696
1777290491.0229716,L_Foot,-18.4037,-8.977,20.7771,-197.937,-56.8237,34.8511,70.8948,-2.2577,-83.6938,0.4426,0.3749,-0.5519,0.5991
1777290491.0229716,R_Femur,6.9911,15.1115,104.1729,412.1704,-1281.0059,-562.1338,4.2133,3.5156,-0.7031,0.0366,0.0309,-0.005,0.9988
1777290491.0229716,R_Tibia,-2.7515,15.9729,-7.1969,56.7627,-70.8008,42.5415,87.9785,-2.0325,-10.3326,0.6927,0.0498,-0.077,0.7153
1777290491.0229716,R_Foot,-0.1531,0.1292,10.9341,-12.085,6.5308,-3.0518,0.6592,-5.5316,-86.0504,0.0371,-0.0314,-0.6817,0.73
1777290491.0719028,Trunk,-1.5025,8.4458,-0.8661,16.2354,-4.8218,-11.5967,88.2422,3.2904,-16.8475,0.6854,0.1223,-0.0853,0.7128
1777290491.0719028,L_Femur,5.0292,8.1826,-1.3973,0.3052,-0.4272,-0.1221,99.7119,-31.2067,-159.8785,0.2994,0.6946,-0.6473,-0.094
1777290491.0719028,L_Tibia,-0.4929,11.4939,-12.5802,13.855,55.8472,-6.5308,158.9996,-7.1521,-18.5944,0.9703,0.1473,-0.0899,0.1696
1777290491.0719028,L_Foot,-18.4037,-8.977,20.7771,-197.937,-56.8237,34.8511,70.8948,-2.2577,-83.6938,0.4426,0.3749,-0.5519,0.5991
1777290491.0719028,R_Femur,6.9911,15.1115,104.1729,412.1704,-1281.0059,-562.1338,4.2133,3.5156,-0.7031,0.0366,0.0309,-0.005,0.9988
1777290491.0719028,R_Tibia,-2.7515,15.9729,-7.1969,56.7627,-70.8008,42.5415,87.9785,-2.0325,-10.3326,0.6927,0.0498,-0.077,0.7153
1777290491.0719028,R_Foot,-0.1531,0.1292,10.9341,-12.085,6.5308,-3.0518,0.6592,-5.5316,-86.0504,0.0371,-0.0314,-0.6817,0.73
1777290491.0725791,Trunk,-1.5025,8.4458,-0.8661,16.2354,-4.8218,-11.5967,88.2422,3.2904,-16.8475,0.6854,0.1223,-0.0853,0.7128
1777290491.0725791,L_Femur,5.0244,8.1826,-1.4021,0.1221,-0.4272,-0.1221,99.7119,-31.2067,-159.8785,0.2994,0.6946,-0.6473,-0.094
1777290491.0725791,L_Tibia,-0.4929,11.4939,-12.5802,13.855,55.8472,-6.5308,158.9996,-7.1521,-18.5944,0.9703,0.1473,-0.0899,0.1696
1777290491.0725791,L_Foot,-18.4037,-8.977,20.7771,-197.937,-56.8237,34.8511,70.8948,-2.2577,-83.6938,0.4426,0.3749,-0.5519,0.5991
1777290491.0725791,R_Femur,6.9911,15.1115,104.1729,412.1704,-1281.0059,-562.1338,4.2133,3.5156,-0.7031,0.0366,0.0309,-0.005,0.9988
1777290491.0725791,R_Tibia,-2.7515,15.9729,-7.1969,56.7627,-70.8008,42.5415,87.9785,-2.0325,-10.3326,0.6927,0.0498,-0.077,0.7153
1777290491.0725791,R_Foot,-0.1531,0.1292,10.9341,-12.085,6.5308,-3.0518,0.6592,-5.5316,-86.0504,0.0371,-0.0314,-0.6817,0.73
1777290491.0725791,Trunk,-1.5025,8.4458,-0.8661,16.2354,-4.8218,-11.5967,88.2422,3.2904,-16.8475,0.6854,0.1223,-0.0853,0.7128
1777290491.0725791,L_Femur,5.0292,8.1826,-1.3973,0.1831,-0.3662,-0.1831,99.7119,-31.2067,-159.8785,0.2994,0.6946,-0.6473,-0.094
1777290491.0725791,L_Tibia,-0.4929,11.4939,-12.5802,13.855,55.8472,-6.5308,158.9996,-7.1521,-18.5944,0.9703,0.1473,-0.0899,0.1696
1777290491.0725791,L_Foot,-18.4037,-8.977,20.7771,-197.937,-56.8237,34.8511,70.8948,-2.2577,-83.6938,0.4426,0.3749,-0.5519,0.5991
1777290491.0725791,R_Femur,6.9911,15.1115,104.1729,412.1704,-1281.0059,-562.1338,4.2133,3.5156,-0.7031,0.0366,0.0309,-0.005,0.9988
1777290491.0725791,R_Tibia,-2.7515,15.9729,-7.1969,56.7627,-70.8008,42.5415,87.9785,-2.0325,-10.3326,0.6927,0.0498,-0.077,0.7153
1777290491.0725791,R_Foot,-0.1531,0.1292,10.9341,-12.085,6.5308,-3.0518,0.6592,-5.5316,-86.0504,0.0371,-0.0314,-0.6817,0.73
1777290491.1396391,Trunk,-1.5025,8.4458,-0.8661,16.2354,-4.8218,-11.5967,88.2422,3.2904,-16.8475,0.6854,0.1223,-0.0853,0.7128
1777290491.1396391,L_Femur,5.0244,8.1826,-1.3973,0.3052,-0.3662,-0.1221,99.7119,-31.2067,-159.8785,0.2994,0.6946,-0.6473,-0.094
1777290491.1396391,L_Tibia,-0.4929,11.4939,-12.5802,13.855,55.8472,-6.5308,158.9996,-7.1521,-18.5944,0.9703,0.1473,-0.0899,0.1696
1777290491.1396391,L_Foot,-18.4037,-8.977,20.7771,-197.937,-56.8237,34.8511,70.8948,-2.2577,-83.6938,0.4426,0.3749,-0.5519,0.5991
1777290491.1396391,R_Femur,6.9911,15.1115,104.1729,412.1704,-1281.0059,-562.1338,4.2133,3.5156,-0.7031,0.0366,0.0309,-0.005,0.9988
1777290491.1396391,R_Tibia,-2.7515,15.9729,-7.1969,56.7627,-70.8008,42.5415,87.9785,-2.0325,-10.3326,0.6927,0.0498,-0.077,0.7153
1777290491.1396391,R_Foot,-0.1531,0.1292,10.9341,-12.085,6.5308,-3.0518,0.6592,-5.5316,-86.0504,0.0371,-0.0314,-0.6817,0.73
1777290491.1401663,Trunk,-1.5025,8.4458,-0.8661,16.2354,-4.8218,-11.5967,88.2422,3.2904,-16.8475,0.6854,0.1223,-0.0853,0.7128
1777290491.1401663,L_Femur,5.0244,8.1874,-1.3925,0.1831,-0.4272,-0.061,99.7119,-31.2067,-159.8785,0.2994,0.6946,-0.6473,-0.094
1777290491.1401663,L_Tibia,-0.4929,11.4939,-12.5802,13.855,55.8472,-6.5308,158.9996,-7.1521,-18.5944,0.9703,0.1473,-0.0899,0.1696
1777290491.1401663,L_Foot,-18.4037,-8.977,20.7771,-197.937,-56.8237,34.8511,70.8948,-2.2577,-83.6938,0.4426,0.3749,-0.5519,0.5991
1777290491.1401663,R_Femur,6.9911,15.1115,104.1729,412.1704,-1281.0059,-562.1338,4.2133,3.5156,-0.7031,0.0366,0.0309,-0.005,0.9988
1777290491.1401663,R_Tibia,-2.7515,15.9729,-7.1969,56.7627,-70.8008,42.5415,87.9785,-2.0325,-10.3326,0.6927,0.0498,-0.077,0.7153
1777290491.1401663,R_Foot,-0.1531,0.1292,10.9341,-12.085,6.5308,-3.0518,0.6592,-5.5316,-86.0504,0.0371,-0.0314,-0.6817,0.73
1777290491.1401663,Trunk,-1.5025,8.4458,-0.8661,16.2354,-4.8218,-11.5967,88.2422,3.2904,-16.8475,0.6854,0.1223,-0.0853,0.7128
1777290491.1401663,L_Femur,5.0292,8.1874,-1.4021,0.1831,-0.3662,-0.1221,99.7119,-31.2067,-159.8785,0.2994,0.6946,-0.6473,-0.094
1777290491.1401663,L_Tibia,-0.4929,11.4939,-12.5802,13.855,55.8472,-6.5308,158.9996,-7.1521,-18.5944,0.9703,0.1473,-0.0899,0.1696
1777290491.1401663,L_Foot,-18.4037,-8.977,20.7771,-197.937,-56.8237,34.8511,70.8948,-2.2577,-83.6938,0.4426,0.3749,-0.5519,0.5991
1777290491.1401663,R_Femur,6.9911,15.1115,104.1729,412.1704,-1281.0059,-562.1338,4.2133,3.5156,-0.7031,0.0366,0.0309,-0.005,0.9988
1777290491.1401663,R_Tibia,-2.7515,15.9729,-7.1969,56.7627,-70.8008,42.5415,87.9785,-2.0325,-10.3326,0.6927,0.0498,-0.077,0.7153
1777290491.1401663,R_Foot,-0.1531,0.1292,10.9341,-12.085,6.5308,-3.0518,0.6592,-5.5316,-86.0504,0.0371,-0.0314,-0.6817,0.73
1777290491.204162,Trunk,-1.5025,8.4458,-0.8661,16.2354,-4.8218,-11.5967,88.2422,3.2904,-16.8475,0.6854,0.1223,-0.0853,0.7128
1777290491.204162,L_Femur,5.0244,8.1874,-1.3973,0.1221,-0.4272,-0.1221,99.7119,-31.2067,-159.8785,0.2994,0.6946,-0.6473,-0.094
1777290491.204162,L_Tibia,-0.4929,11.4939,-12.5802,13.855,55.8472,-6.5308,158.9996,-7.1521,-18.5944,0.9703,0.1473,-0.0899,0.1696
1777290491.204162,L_Foot,-18.4037,-8.977,20.7771,-197.937,-56.8237,34.8511,70.8948,-2.2577,-83.6938,0.4426,0.3749,-0.5519,0.5991
1777290491.204162,R_Femur,6.9911,15.1115,104.1729,412.1704,-1281.0059,-562.1338,4.2133,3.5156,-0.7031,0.0366,0.0309,-0.005,0.9988
1777290491.204162,R_Tibia,-2.7515,15.9729,-7.1969,56.7627,-70.8008,42.5415,87.9785,-2.0325,-10.3326,0.6927,0.0498,-0.077,0.7153
1777290491.204162,R_Foot,-0.1531,0.1292,10.9341,-12.085,6.5308,-3.0518,0.6592,-5.5316,-86.0504,0.0371,-0.0314,-0.6817,0.73
1777290491.204162,Trunk,-1.5025,8.4458,-0.8661,16.2354,-4.8218,-11.5967,88.2422,3.2904,-16.8475,0.6854,0.1223,-0.0853,0.7128
1777290491.204162,L_Femur,5.0292,8.1826,-1.3925,0.1831,-0.4272,-0.1221,99.7119,-31.2067,-159.8785,0.2994,0.6946,-0.6473,-0.094
1777290491.204162,L_Tibia,-0.4929,11.4939,-12.5802,13.855,55.8472,-6.5308,158.9996,-7.1521,-18.5944,0.9703,0.1473,-0.0899,0.1696
1777290491.204162,L_Foot,-18.4037,-8.977,20.7771,-197.937,-56.8237,34.8511,70.8948,-2.2577,-83.6938,0.4426,0.3749,-0.5519,0.5991
1777290491.204162,R_Femur,6.9911,15.1115,104.1729,412.1704,-1281.0059,-562.1338,4.2133,3.5156,-0.7031,0.0366,0.0309,-0.005,0.9988
1777290491.204162,R_Tibia,-2.7515,15.9729,-7.1969,56.7627,-70.8008,42.5415,87.9785,-2.0325,-10.3326,0.6927,0.0498,-0.077,0.7153
1777290491.204162,R_Foot,-0.1531,0.1292,10.9341,-12.085,6.5308,-3.0518,0.6592,-5.5316,-86.0504,0.0371,-0.0314,-0.6817,0.73
1777290491.2051628,Trunk,-1.5025,8.4458,-0.8661,16.2354,-4.8218,-11.5967,88.2422,3.2904,-16.8475,0.6854,0.1223,-0.0853,0.7128
1777290491.2051628,L_Femur,5.0292,8.1826,-1.3973,0.1831,-0.3662,-0.1221,99.7119,-31.2067,-159.8785,0.2994,0.6946,-0.6473,-0.094
1777290491.2051628,L_Tibia,-0.4929,11.4939,-12.5802,13.855,55.8472,-6.5308,158.9996,-7.1521,-18.5944,0.9703,0.1473,-0.0899,0.1696
1777290491.2051628,L_Foot,-18.4037,-8.977,20.7771,-197.937,-56.8237,34.8511,70.8948,-2.2577,-83.6938,0.4426,0.3749,-0.5519,0.5991
1777290491.2051628,R_Femur,6.9911,15.1115,104.1729,412.1704,-1281.0059,-562.1338,4.2133,3.5156,-0.7031,0.0366,0.0309,-0.005,0.9988
1777290491.2051628,R_Tibia,-2.7515,15.9729,-7.1969,56.7627,-70.8008,42.5415,87.9785,-2.0325,-10.3326,0.6927,0.0498,-0.077,0.7153
1777290491.2051628,R_Foot,-0.1531,0.1292,10.9341,-12.085,6.5308,-3.0518,0.6592,-5.5316,-86.0504,0.0371,-0.0314,-0.6817,0.73
1777290491.2051628,Trunk,-1.5025,8.4458,-0.8661,16.2354,-4.8218,-11.5967,88.2422,3.2904,-16.8475,0.6854,0.1223,-0.0853,0.7128
1777290491.2051628,L_Femur,5.034,8.1826,-1.3973,0.1221,-0.3662,-0.1831,99.7119,-31.2067,-159.8785,0.2994,0.6946,-0.6473,-0.094
1777290491.2051628,L_Tibia,-0.4929,11.4939,-12.5802,13.855,55.8472,-6.5308,158.9996,-7.1521,-18.5944,0.9703,0.1473,-0.0899,0.1696
1777290491.2051628,L_Foot,-18.4037,-8.977,20.7771,-197.937,-56.8237,34.8511,70.8948,-2.2577,-83.6938,0.4426,0.3749,-0.5519,0.5991
1777290491.2051628,R_Femur,6.9911,15.1115,104.1729,412.1704,-1281.0059,-562.1338,4.2133,3.5156,-0.7031,0.0366,0.0309,-0.005,0.9988
1777290491.2051628,R_Tibia,-2.7515,15.9729,-7.1969,56.7627,-70.8008,42.5415,87.9785,-2.0325,-10.3326,0.6927,0.0498,-0.077,0.7153
1777290491.2051628,R_Foot,-0.1531,0.1292,10.9341,-12.085,6.5308,-3.0518,0.6592,-5.5316,-86.0504,0.0371,-0.0314,-0.6817,0.73
1777290491.2886953,Trunk,-1.5025,8.4458,-0.8661,16.2354,-4.8218,-11.5967,88.2422,3.2904,-16.8475,0.6854,0.1223,-0.0853,0.7128
1777290491.2886953,L_Femur,5.0292,8.1826,-1.4068,0.1221,-0.3662,-0.1831,99.7119,-31.2067,-159.8785,0.2994,0.6946,-0.6473,-0.094
1777290491.2886953,L_Tibia,-0.4929,11.4939,-12.5802,13.855,55.8472,-6.5308,158.9996,-7.1521,-18.5944,0.9703,0.1473,-0.0899,0.1696
1777290491.2886953,L_Foot,-18.4037,-8.977,20.7771,-197.937,-56.8237,34.8511,70.8948,-2.2577,-83.6938,0.4426,0.3749,-0.5519,0.5991
1777290491.2886953,R_Femur,6.9911,15.1115,104.1729,412.1704,-1281.0059,-562.1338,4.2133,3.5156,-0.7031,0.0366,0.0309,-0.005,0.9988
1777290491.2886953,R_Tibia,-2.7515,15.9729,-7.1969,56.7627,-70.8008,42.5415,87.9785,-2.0325,-10.3326,0.6927,0.0498,-0.077,0.7153
1777290491.2886953,R_Foot,-0.1531,0.1292,10.9341,-12.085,6.5308,-3.0518,0.6592,-5.5316,-86.0504,0.0371,-0.0314,-0.6817,0.73
1777290491.2897027,Trunk,-1.5025,8.4458,-0.8661,16.2354,-4.8218,-11.5967,88.2422,3.2904,-16.8475,0.6854,0.1223,-0.0853,0.7128
1777290491.2897027,L_Femur,5.0196,8.1826,-1.3973,0.2441,-0.3662,-0.1221,99.7119,-31.2067,-159.8785,0.2994,0.6946,-0.6473,-0.094
1777290491.2897027,L_Tibia,-0.4929,11.4939,-12.5802,13.855,55.8472,-6.5308,158.9996,-7.1521,-18.5944,0.9703,0.1473,-0.0899,0.1696
1777290491.2897027,L_Foot,-18.4037,-8.977,20.7771,-197.937,-56.8237,34.8511,70.8948,-2.2577,-83.6938,0.4426,0.3749,-0.5519,0.5991
1777290491.2897027,R_Femur,6.9911,15.1115,104.1729,412.1704,-1281.0059,-562.1338,4.2133,3.5156,-0.7031,0.0366,0.0309,-0.005,0.9988
1777290491.2897027,R_Tibia,-2.7515,15.9729,-7.1969,56.7627,-70.8008,42.5415,87.9785,-2.0325,-10.3326,0.6927,0.0498,-0.077,0.7153
1777290491.2897027,R_Foot,-0.1531,0.1292,10.9341,-12.085,6.5308,-3.0518,0.6592,-5.5316,-86.0504,0.0371,-0.0314,-0.6817,0.73
1777290491.2897027,Trunk,-1.5025,8.4458,-0.8661,16.2354,-4.8218,-11.5967,88.2422,3.2904,-16.8475,0.6854,0.1223,-0.0853,0.7128
1777290491.2897027,L_Femur,5.034,8.1826,-1.4021,0.1831,-0.4272,-0.1221,99.7119,-31.2067,-159.8785,0.2994,0.6946,-0.6473,-0.094
1777290491.2897027,L_Tibia,-0.4929,11.4939,-12.5802,13.855,55.8472,-6.5308,158.9996,-7.1521,-18.5944,0.9703,0.1473,-0.0899,0.1696
1777290491.2897027,L_Foot,-18.4037,-8.977,20.7771,-197.937,-56.8237,34.8511,70.8948,-2.2577,-83.6938,0.4426,0.3749,-0.5519,0.5991
1777290491.2897027,R_Femur,6.9911,15.1115,104.1729,412.1704,-1281.0059,-562.1338,4.2133,3.5156,-0.7031,0.0366,0.0309,-0.005,0.9988
1777290491.2897027,R_Tibia,-2.7515,15.9729,-7.1969,56.7627,-70.8008,42.5415,87.9785,-2.0325,-10.3326,0.6927,0.0498,-0.077,0.7153
1777290491.2897027,R_Foot,-0.1531,0.1292,10.9341,-12.085,6.5308,-3.0518,0.6592,-5.5316,-86.0504,0.0371,-0.0314,-0.6817,0.73
1777290491.2897027,Trunk,-1.5025,8.4458,-0.8661,16.2354,-4.8218,-11.5967,88.2422,3.2904,-16.8475,0.6854,0.1223,-0.0853,0.7128
1777290491.2897027,L_Femur,5.0244,8.1826,-1.3973,0.1221,-0.4272,-0.1221,99.7119,-31.2067,-159.8785,0.2994,0.6946,-0.6473,-0.094
1777290491.2897027,L_Tibia,-0.4929,11.4939,-12.5802,13.855,55.8472,-6.5308,158.9996,-7.1521,-18.5944,0.9703,0.1473,-0.0899,0.1696
1777290491.2897027,L_Foot,-18.4037,-8.977,20.7771,-197.937,-56.8237,34.8511,70.8948,-2.2577,-83.6938,0.4426,0.3749,-0.5519,0.5991
1777290491.2897027,R_Femur,6.9911,15.1115,104.1729,412.1704,-1281.0059,-562.1338,4.2133,3.5156,-0.7031,0.0366,0.0309,-0.005,0.9988
1777290491.2897027,R_Tibia,-2.7515,15.9729,-7.1969,56.7627,-70.8008,42.5415,87.9785,-2.0325,-10.3326,0.6927,0.0498,-0.077,0.7153
1777290491.2897027,R_Foot,-0.1531,0.1292,10.9341,-12.085,6.5308,-3.0518,0.6592,-5.5316,-86.0504,0.0371,-0.0314,-0.6817,0.73
1777290491.3551133,Trunk,-1.5025,8.4458,-0.8661,16.2354,-4.8218,-11.5967,88.2422,3.2904,-16.8475,0.6854,0.1223,-0.0853,0.7128
1777290491.3551133,L_Femur,5.0292,8.1826,-1.3925,0.1831,-0.4272,-0.1221,99.7119,-31.2067,-159.8785,0.2994,0.6946,-0.6473,-0.094
1777290491.3551133,L_Tibia,-0.4929,11.4939,-12.5802,13.855,55.8472,-6.5308,158.9996,-7.1521,-18.5944,0.9703,0.1473,-0.0899,0.1696
1777290491.3551133,L_Foot,-18.4037,-8.977,20.7771,-197.937,-56.8237,34.8511,70.8948,-2.2577,-83.6938,0.4426,0.3749,-0.5519,0.5991
1777290491.3551133,R_Femur,6.9911,15.1115,104.1729,412.1704,-1281.0059,-562.1338,4.2133,3.5156,-0.7031,0.0366,0.0309,-0.005,0.9988
1777290491.3551133,R_Tibia,-2.7515,15.9729,-7.1969,56.7627,-70.8008,42.5415,87.9785,-2.0325,-10.3326,0.6927,0.0498,-0.077,0.7153
1777290491.3551133,R_Foot,-0.1531,0.1292,10.9341,-12.085,6.5308,-3.0518,0.6592,-5.5316,-86.0504,0.0371,-0.0314,-0.6817,0.73
1777290491.3551133,Trunk,-1.5025,8.4458,-0.8661,16.2354,-4.8218,-11.5967,88.2422,3.2904,-16.8475,0.6854,0.1223,-0.0853,0.7128
1777290491.3551133,L_Femur,5.0292,8.1826,-1.4021,0.3052,-0.3662,-0.1221,99.7119,-31.2067,-159.8785,0.2994,0.6946,-0.6473,-0.094
1777290491.3551133,L_Tibia,-0.4929,11.4939,-12.5802,13.855,55.8472,-6.5308,158.9996,-7.1521,-18.5944,0.9703,0.1473,-0.0899,0.1696
1777290491.3551133,L_Foot,-18.4037,-8.977,20.7771,-197.937,-56.8237,34.8511,70.8948,-2.2577,-83.6938,0.4426,0.3749,-0.5519,0.5991
1777290491.3551133,R_Femur,6.9911,15.1115,104.1729,412.1704,-1281.0059,-562.1338,4.2133,3.5156,-0.7031,0.0366,0.0309,-0.005,0.9988
1777290491.3551133,R_Tibia,-2.7515,15.9729,-7.1969,56.7627,-70.8008,42.5415,87.9785,-2.0325,-10.3326,0.6927,0.0498,-0.077,0.7153
1777290491.3551133,R_Foot,-0.1531,0.1292,10.9341,-12.085,6.5308,-3.0518,0.6592,-5.5316,-86.0504,0.0371,-0.0314,-0.6817,0.73
1777290491.356115,Trunk,-1.5025,8.4458,-0.8661,16.2354,-4.8218,-11.5967,88.2422,3.2904,-16.8475,0.6854,0.1223,-0.0853,0.7128
1777290491.356115,L_Femur,5.034,8.1826,-1.4021,0.1831,-0.3662,-0.1831,99.7119,-31.2067,-159.8785,0.2994,0.6946,-0.6473,-0.094
1777290491.356115,L_Tibia,-0.4929,11.4939,-12.5802,13.855,55.8472,-6.5308,158.9996,-7.1521,-18.5944,0.9703,0.1473,-0.0899,0.1696
1777290491.356115,L_Foot,-18.4037,-8.977,20.7771,-197.937,-56.8237,34.8511,70.8948,-2.2577,-83.6938,0.4426,0.3749,-0.5519,0.5991
1777290491.356115,R_Femur,6.9911,15.1115,104.1729,412.1704,-1281.0059,-562.1338,4.2133,3.5156,-0.7031,0.0366,0.0309,-0.005,0.9988
1777290491.356115,R_Tibia,-2.7515,15.9729,-7.1969,56.7627,-70.8008,42.5415,87.9785,-2.0325,-10.3326,0.6927,0.0498,-0.077,0.7153
1777290491.356115,R_Foot,-0.1531,0.1292,10.9341,-12.085,6.5308,-3.0518,0.6592,-5.5316,-86.0504,0.0371,-0.0314,-0.6817,0.73
1777290491.356115,Trunk,-1.5025,8.4458,-0.8661,16.2354,-4.8218,-11.5967,88.2422,3.2904,-16.8475,0.6854,0.1223,-0.0853,0.7128
1777290491.356115,L_Femur,5.034,8.1826,-1.4021,0.1221,-0.4272,-0.1221,99.7119,-31.2067,-159.8785,0.2994,0.6946,-0.6473,-0.094
1777290491.356115,L_Tibia,-0.4929,11.4939,-12.5802,13.855,55.8472,-6.5308,158.9996,-7.1521,-18.5944,0.9703,0.1473,-0.0899,0.1696
1777290491.356115,L_Foot,-18.4037,-8.977,20.7771,-197.937,-56.8237,34.8511,70.8948,-2.2577,-83.6938,0.4426,0.3749,-0.5519,0.5991
1777290491.356115,R_Femur,6.9911,15.1115,104.1729,412.1704,-1281.0059,-562.1338,4.2133,3.5156,-0.7031,0.0366,0.0309,-0.005,0.9988
1777290491.356115,R_Tibia,-2.7515,15.9729,-7.1969,56.7627,-70.8008,42.5415,87.9785,-2.0325,-10.3326,0.6927,0.0498,-0.077,0.7153
1777290491.356115,R_Foot,-0.1531,0.1292,10.9341,-12.085,6.5308,-3.0518,0.6592,-5.5316,-86.0504,0.0371,-0.0314,-0.6817,0.73
1777290491.3882113,Trunk,-1.5025,8.4458,-0.8661,16.2354,-4.8218,-11.5967,88.2422,3.2904,-16.8475,0.6854,0.1223,-0.0853,0.7128
1777290491.3882113,L_Femur,5.0292,8.1826,-1.3973,0.1831,-0.4272,-0.1221,99.7119,-31.2067,-159.8785,0.2994,0.6946,-0.6473,-0.094
1777290491.3882113,L_Tibia,-0.4929,11.4939,-12.5802,13.855,55.8472,-6.5308,158.9996,-7.1521,-18.5944,0.9703,0.1473,-0.0899,0.1696
1777290491.3882113,L_Foot,-18.4037,-8.977,20.7771,-197.937,-56.8237,34.8511,70.8948,-2.2577,-83.6938,0.4426,0.3749,-0.5519,0.5991
1777290491.3882113,R_Femur,6.9911,15.1115,104.1729,412.1704,-1281.0059,-562.1338,4.2133,3.5156,-0.7031,0.0366,0.0309,-0.005,0.9988
1777290491.3882113,R_Tibia,-2.7515,15.9729,-7.1969,56.7627,-70.8008,42.5415,87.9785,-2.0325,-10.3326,0.6927,0.0498,-0.077,0.7153
1777290491.3882113,R_Foot,-0.1531,0.1292,10.9341,-12.085,6.5308,-3.0518,0.6592,-5.5316,-86.0504,0.0371,-0.0314,-0.6817,0.73
1777290491.3892019,Trunk,-1.5025,8.4458,-0.8661,16.2354,-4.8218,-11.5967,88.2422,3.2904,-16.8475,0.6854,0.1223,-0.0853,0.7128
1777290491.3892019,L_Femur,5.0196,8.1778,-1.3973,0.2441,-0.3662,-0.061,99.7119,-31.2067,-159.8785,0.2994,0.6946,-0.6473,-0.094
1777290491.3892019,L_Tibia,-0.4929,11.4939,-12.5802,13.855,55.8472,-6.5308,158.9996,-7.1521,-18.5944,0.9703,0.1473,-0.0899,0.1696
1777290491.3892019,L_Foot,-18.4037,-8.977,20.7771,-197.937,-56.8237,34.8511,70.8948,-2.2577,-83.6938,0.4426,0.3749,-0.5519,0.5991
1777290491.3892019,R_Femur,6.9911,15.1115,104.1729,412.1704,-1281.0059,-562.1338,4.2133,3.5156,-0.7031,0.0366,0.0309,-0.005,0.9988
1777290491.3892019,R_Tibia,-2.7515,15.9729,-7.1969,56.7627,-70.8008,42.5415,87.9785,-2.0325,-10.3326,0.6927,0.0498,-0.077,0.7153
1777290491.3892019,R_Foot,-0.1531,0.1292,10.9341,-12.085,6.5308,-3.0518,0.6592,-5.5316,-86.0504,0.0371,-0.0314,-0.6817,0.73
1777290491.3892019,Trunk,-1.5025,8.4458,-0.8661,16.2354,-4.8218,-11.5967,88.2422,3.2904,-16.8475,0.6854,0.1223,-0.0853,0.7128
1777290491.3892019,L_Femur,5.034,8.1778,-1.4021,0.1221,-0.4272,-0.1221,99.7119,-31.2067,-159.8785,0.2994,0.6946,-0.6473,-0.094
1777290491.3892019,L_Tibia,-0.4929,11.4939,-12.5802,13.855,55.8472,-6.5308,158.9996,-7.1521,-18.5944,0.9703,0.1473,-0.0899,0.1696
1777290491.3892019,L_Foot,-18.4037,-8.977,20.7771,-197.937,-56.8237,34.8511,70.8948,-2.2577,-83.6938,0.4426,0.3749,-0.5519,0.5991
1777290491.3892019,R_Femur,6.9911,15.1115,104.1729,412.1704,-1281.0059,-562.1338,4.2133,3.5156,-0.7031,0.0366,0.0309,-0.005,0.9988
1777290491.3892019,R_Tibia,-2.7515,15.9729,-7.1969,56.7627,-70.8008,42.5415,87.9785,-2.0325,-10.3326,0.6927,0.0498,-0.077,0.7153
1777290491.3892019,R_Foot,-0.1531,0.1292,10.9341,-12.085,6.5308,-3.0518,0.6592,-5.5316,-86.0504,0.0371,-0.0314,-0.6817,0.73
1777290491.3892019,Trunk,-1.5025,8.4458,-0.8661,16.2354,-4.8218,-11.5967,88.2422,3.2904,-16.8475,0.6854,0.1223,-0.0853,0.7128
1777290491.3892019,L_Femur,5.0292,8.1874,-1.3973,0.1221,-0.4272,-0.1831,99.7119,-31.2067,-159.8785,0.2994,0.6946,-0.6473,-0.094
1777290491.3892019,L_Tibia,-0.4929,11.4939,-12.5802,13.855,55.8472,-6.5308,158.9996,-7.1521,-18.5944,0.9703,0.1473,-0.0899,0.1696
1777290491.3892019,L_Foot,-18.4037,-8.977,20.7771,-197.937,-56.8237,34.8511,70.8948,-2.2577,-83.6938,0.4426,0.3749,-0.5519,0.5991
1777290491.3892019,R_Femur,6.9911,15.1115,104.1729,412.1704,-1281.0059,-562.1338,4.2133,3.5156,-0.7031,0.0366,0.0309,-0.005,0.9988
1777290491.3892019,R_Tibia,-2.7515,15.9729,-7.1969,56.7627,-70.8008,42.5415,87.9785,-2.0325,-10.3326,0.6927,0.0498,-0.077,0.7153
1777290491.3892019,R_Foot,-0.1531,0.1292,10.9341,-12.085,6.5308,-3.0518,0.6592,-5.5316,-86.0504,0.0371,-0.0314,-0.6817,0.73
1777290491.455248,Trunk,-1.5025,8.4458,-0.8661,16.2354,-4.8218,-11.5967,88.2422,3.2904,-16.8475,0.6854,0.1223,-0.0853,0.7128
1777290491.455248,L_Femur,5.0244,8.1874,-1.3973,0.1831,-0.4272,-0.1221,99.7119,-31.2067,-159.8785,0.2994,0.6946,-0.6473,-0.094
1777290491.455248,L_Tibia,-0.4929,11.4939,-12.5802,13.855,55.8472,-6.5308,158.9996,-7.1521,-18.5944,0.9703,0.1473,-0.0899,0.1696
1777290491.455248,L_Foot,-18.4037,-8.977,20.7771,-197.937,-56.8237,34.8511,70.8948,-2.2577,-83.6938,0.4426,0.3749,-0.5519,0.5991
1777290491.455248,R_Femur,6.9911,15.1115,104.1729,412.1704,-1281.0059,-562.1338,4.2133,3.5156,-0.7031,0.0366,0.0309,-0.005,0.9988
1777290491.455248,R_Tibia,-2.7515,15.9729,-7.1969,56.7627,-70.8008,42.5415,87.9785,-2.0325,-10.3326,0.6927,0.0498,-0.077,0.7153
1777290491.455248,R_Foot,-0.1531,0.1292,10.9341,-12.085,6.5308,-3.0518,0.6592,-5.5316,-86.0504,0.0371,-0.0314,-0.6817,0.73
1777290491.455248,Trunk,-1.5025,8.4458,-0.8661,16.2354,-4.8218,-11.5967,88.2422,3.2904,-16.8475,0.6854,0.1223,-0.0853,0.7128
1777290491.455248,L_Femur,5.0292,8.1778,-1.3973,0.1831,-0.3662,-0.1221,99.7119,-31.2067,-159.8785,0.2994,0.6946,-0.6473,-0.094
1777290491.455248,L_Tibia,-0.4929,11.4939,-12.5802,13.855,55.8472,-6.5308,158.9996,-7.1521,-18.5944,0.9703,0.1473,-0.0899,0.1696
1777290491.455248,L_Foot,-18.4037,-8.977,20.7771,-197.937,-56.8237,34.8511,70.8948,-2.2577,-83.6938,0.4426,0.3749,-0.5519,0.5991
1777290491.455248,R_Femur,6.9911,15.1115,104.1729,412.1704,-1281.0059,-562.1338,4.2133,3.5156,-0.7031,0.0366,0.0309,-0.005,0.9988
1777290491.455248,R_Tibia,-2.7515,15.9729,-7.1969,56.7627,-70.8008,42.5415,87.9785,-2.0325,-10.3326,0.6927,0.0498,-0.077,0.7153
1777290491.455248,R_Foot,-0.1531,0.1292,10.9341,-12.085,6.5308,-3.0518,0.6592,-5.5316,-86.0504,0.0371,-0.0314,-0.6817,0.73
1777290491.5223484,Trunk,-1.5025,8.4458,-0.8661,16.2354,-4.8218,-11.5967,88.2422,3.2904,-16.8475,0.6854,0.1223,-0.0853,0.7128
1777290491.5223484,L_Femur,5.0292,8.1826,-1.4068,0.1221,-0.3662,-0.1221,99.7119,-31.2067,-159.8785,0.2994,0.6946,-0.6473,-0.094
1777290491.5223484,L_Tibia,-0.4929,11.4939,-12.5802,13.855,55.8472,-6.5308,158.9996,-7.1521,-18.5944,0.9703,0.1473,-0.0899,0.1696
1777290491.5223484,L_Foot,-18.4037,-8.977,20.7771,-197.937,-56.8237,34.8511,70.8948,-2.2577,-83.6938,0.4426,0.3749,-0.5519,0.5991
1777290491.5223484,R_Femur,6.9911,15.1115,104.1729,412.1704,-1281.0059,-562.1338,4.2133,3.5156,-0.7031,0.0366,0.0309,-0.005,0.9988
1777290491.5223484,R_Tibia,-2.7515,15.9729,-7.1969,56.7627,-70.8008,42.5415,87.9785,-2.0325,-10.3326,0.6927,0.0498,-0.077,0.7153
1777290491.5223484,R_Foot,-0.1531,0.1292,10.9341,-12.085,6.5308,-3.0518,0.6592,-5.5316,-86.0504,0.0371,-0.0314,-0.6817,0.73
1777290491.5223484,Trunk,-1.5025,8.4458,-0.8661,16.2354,-4.8218,-11.5967,88.2422,3.2904,-16.8475,0.6854,0.1223,-0.0853,0.7128
1777290491.5223484,L_Femur,5.0292,8.1826,-1.4021,0.1831,-0.4272,-0.1831,99.7119,-31.2067,-159.8785,0.2994,0.6946,-0.6473,-0.094
1777290491.5223484,L_Tibia,-0.4929,11.4939,-12.5802,13.855,55.8472,-6.5308,158.9996,-7.1521,-18.5944,0.9703,0.1473,-0.0899,0.1696
1777290491.5223484,L_Foot,-18.4037,-8.977,20.7771,-197.937,-56.8237,34.8511,70.8948,-2.2577,-83.6938,0.4426,0.3749,-0.5519,0.5991
1777290491.5223484,R_Femur,6.9911,15.1115,104.1729,412.1704,-1281.0059,-562.1338,4.2133,3.5156,-0.7031,0.0366,0.0309,-0.005,0.9988
1777290491.5223484,R_Tibia,-2.7515,15.9729,-7.1969,56.7627,-70.8008,42.5415,87.9785,-2.0325,-10.3326,0.6927,0.0498,-0.077,0.7153
1777290491.5223484,R_Foot,-0.1531,0.1292,10.9341,-12.085,6.5308,-3.0518,0.6592,-5.5316,-86.0504,0.0371,-0.0314,-0.6817,0.73
1777290491.5223484,Trunk,-1.5025,8.4458,-0.8661,16.2354,-4.8218,-11.5967,88.2422,3.2904,-16.8475,0.6854,0.1223,-0.0853,0.7128
1777290491.5223484,L_Femur,5.0244,8.1826,-1.3973,0.2441,-0.3662,-0.061,99.7119,-31.2067,-159.8785,0.2994,0.6946,-0.6473,-0.094
1777290491.5223484,L_Tibia,-0.4929,11.4939,-12.5802,13.855,55.8472,-6.5308,158.9996,-7.1521,-18.5944,0.9703,0.1473,-0.0899,0.1696
1777290491.5223484,L_Foot,-18.4037,-8.977,20.7771,-197.937,-56.8237,34.8511,70.8948,-2.2577,-83.6938,0.4426,0.3749,-0.5519,0.5991
1777290491.5223484,R_Femur,6.9911,15.1115,104.1729,412.1704,-1281.0059,-562.1338,4.2133,3.5156,-0.7031,0.0366,0.0309,-0.005,0.9988
1777290491.5223484,R_Tibia,-2.7515,15.9729,-7.1969,56.7627,-70.8008,42.5415,87.9785,-2.0325,-10.3326,0.6927,0.0498,-0.077,0.7153
1777290491.5223484,R_Foot,-0.1531,0.1292,10.9341,-12.085,6.5308,-3.0518,0.6592,-5.5316,-86.0504,0.0371,-0.0314,-0.6817,0.73
1777290491.6091413,Trunk,-1.5025,8.4458,-0.8661,16.2354,-4.8218,-11.5967,88.2422,3.2904,-16.8475,0.6854,0.1223,-0.0853,0.7128
1777290491.6091413,L_Femur,5.0292,8.1826,-1.4021,0.1831,-0.3662,-0.1221,99.7119,-31.2067,-159.8785,0.2994,0.6946,-0.6473,-0.094
1777290491.6091413,L_Tibia,-0.4929,11.4939,-12.5802,13.855,55.8472,-6.5308,158.9996,-7.1521,-18.5944,0.9703,0.1473,-0.0899,0.1696
1777290491.6091413,L_Foot,-18.4037,-8.977,20.7771,-197.937,-56.8237,34.8511,70.8948,-2.2577,-83.6938,0.4426,0.3749,-0.5519,0.5991
1777290491.6091413,R_Femur,6.9911,15.1115,104.1729,412.1704,-1281.0059,-562.1338,4.2133,3.5156,-0.7031,0.0366,0.0309,-0.005,0.9988
1777290491.6091413,R_Tibia,-2.7515,15.9729,-7.1969,56.7627,-70.8008,42.5415,87.9785,-2.0325,-10.3326,0.6927,0.0498,-0.077,0.7153
1777290491.6091413,R_Foot,-0.1531,0.1292,10.9341,-12.085,6.5308,-3.0518,0.6592,-5.5316,-86.0504,0.0371,-0.0314,-0.6817,0.73
1777290491.6091413,Trunk,-1.5025,8.4458,-0.8661,16.2354,-4.8218,-11.5967,88.2422,3.2904,-16.8475,0.6854,0.1223,-0.0853,0.7128
1777290491.6091413,L_Femur,5.034,8.1874,-1.3973,0.1221,-0.3662,-0.1221,99.7119,-31.2067,-159.8785,0.2994,0.6946,-0.6473,-0.094
1777290491.6091413,L_Tibia,-0.4929,11.4939,-12.5802,13.855,55.8472,-6.5308,158.9996,-7.1521,-18.5944,0.9703,0.1473,-0.0899,0.1696
1777290491.6091413,L_Foot,-18.4037,-8.977,20.7771,-197.937,-56.8237,34.8511,70.8948,-2.2577,-83.6938,0.4426,0.3749,-0.5519,0.5991
1777290491.6091413,R_Femur,6.9911,15.1115,104.1729,412.1704,-1281.0059,-562.1338,4.2133,3.5156,-0.7031,0.0366,0.0309,-0.005,0.9988
1777290491.6091413,R_Tibia,-2.7515,15.9729,-7.1969,56.7627,-70.8008,42.5415,87.9785,-2.0325,-10.3326,0.6927,0.0498,-0.077,0.7153
1777290491.6091413,R_Foot,-0.1531,0.1292,10.9341,-12.085,6.5308,-3.0518,0.6592,-5.5316,-86.0504,0.0371,-0.0314,-0.6817,0.73
1777290491.6101394,Trunk,-1.5025,8.4458,-0.8661,16.2354,-4.8218,-11.5967,88.2422,3.2904,-16.8475,0.6854,0.1223,-0.0853,0.7128
1777290491.6101394,L_Femur,5.0292,8.1826,-1.3973,0.2441,-0.3662,-0.1221,99.7119,-31.2067,-159.8785,0.2994,0.6946,-0.6473,-0.094
1777290491.6101394,L_Tibia,-0.4929,11.4939,-12.5802,13.855,55.8472,-6.5308,158.9996,-7.1521,-18.5944,0.9703,0.1473,-0.0899,0.1696
1777290491.6101394,L_Foot,-18.4037,-8.977,20.7771,-197.937,-56.8237,34.8511,70.8948,-2.2577,-83.6938,0.4426,0.3749,-0.5519,0.5991
1777290491.6101394,R_Femur,6.9911,15.1115,104.1729,412.1704,-1281.0059,-562.1338,4.2133,3.5156,-0.7031,0.0366,0.0309,-0.005,0.9988
1777290491.6101394,R_Tibia,-2.7515,15.9729,-7.1969,56.7627,-70.8008,42.5415,87.9785,-2.0325,-10.3326,0.6927,0.0498,-0.077,0.7153
1777290491.6101394,R_Foot,-0.1531,0.1292,10.9341,-12.085,6.5308,-3.0518,0.6592,-5.5316,-86.0504,0.0371,-0.0314,-0.6817,0.73
1777290491.6709363,Trunk,-1.5025,8.4458,-0.8661,16.2354,-4.8218,-11.5967,88.2422,3.2904,-16.8475,0.6854,0.1223,-0.0853,0.7128
1777290491.6709363,L_Femur,5.0292,8.1778,-1.4021,0.2441,-0.3662,-0.1221,99.7119,-31.2067,-159.8785,0.2994,0.6946,-0.6473,-0.094
1777290491.6709363,L_Tibia,-0.4929,11.4939,-12.5802,13.855,55.8472,-6.5308,158.9996,-7.1521,-18.5944,0.9703,0.1473,-0.0899,0.1696
1777290491.6709363,L_Foot,-18.4037,-8.977,20.7771,-197.937,-56.8237,34.8511,70.8948,-2.2577,-83.6938,0.4426,0.3749,-0.5519,0.5991
1777290491.6709363,R_Femur,6.9911,15.1115,104.1729,412.1704,-1281.0059,-562.1338,4.2133,3.5156,-0.7031,0.0366,0.0309,-0.005,0.9988
1777290491.6709363,R_Tibia,-2.7515,15.9729,-7.1969,56.7627,-70.8008,42.5415,87.9785,-2.0325,-10.3326,0.6927,0.0498,-0.077,0.7153
1777290491.6709363,R_Foot,-0.1531,0.1292,10.9341,-12.085,6.5308,-3.0518,0.6592,-5.5316,-86.0504,0.0371,-0.0314,-0.6817,0.73
1777290491.6719365,Trunk,-1.5025,8.4458,-0.8661,16.2354,-4.8218,-11.5967,88.2422,3.2904,-16.8475,0.6854,0.1223,-0.0853,0.7128
1777290491.6719365,L_Femur,5.034,8.1826,-1.4021,0.2441,-0.3662,-0.1221,99.7119,-31.2067,-159.8785,0.2994,0.6946,-0.6473,-0.094
1777290491.6719365,L_Tibia,-0.4929,11.4939,-12.5802,13.855,55.8472,-6.5308,158.9996,-7.1521,-18.5944,0.9703,0.1473,-0.0899,0.1696
1777290491.6719365,L_Foot,-18.4037,-8.977,20.7771,-197.937,-56.8237,34.8511,70.8948,-2.2577,-83.6938,0.4426,0.3749,-0.5519,0.5991
1777290491.6719365,R_Femur,6.9911,15.1115,104.1729,412.1704,-1281.0059,-562.1338,4.2133,3.5156,-0.7031,0.0366,0.0309,-0.005,0.9988
1777290491.6719365,R_Tibia,-2.7515,15.9729,-7.1969,56.7627,-70.8008,42.5415,87.9785,-2.0325,-10.3326,0.6927,0.0498,-0.077,0.7153
1777290491.6719365,R_Foot,-0.1531,0.1292,10.9341,-12.085,6.5308,-3.0518,0.6592,-5.5316,-86.0504,0.0371,-0.0314,-0.6817,0.73
1777290491.6719365,Trunk,-1.5025,8.4458,-0.8661,16.2354,-4.8218,-11.5967,88.2422,3.2904,-16.8475,0.6854,0.1223,-0.0853,0.7128
1777290491.6719365,L_Femur,5.0292,8.1826,-1.3973,0.1221,-0.4272,-0.1221,99.7119,-31.2067,-159.8785,0.2994,0.6946,-0.6473,-0.094
1777290491.6719365,L_Tibia,-0.4929,11.4939,-12.5802,13.855,55.8472,-6.5308,158.9996,-7.1521,-18.5944,0.9703,0.1473,-0.0899,0.1696
1777290491.6719365,L_Foot,-18.4037,-8.977,20.7771,-197.937,-56.8237,34.8511,70.8948,-2.2577,-83.6938,0.4426,0.3749,-0.5519,0.5991
1777290491.6719365,R_Femur,6.9911,15.1115,104.1729,412.1704,-1281.0059,-562.1338,4.2133,3.5156,-0.7031,0.0366,0.0309,-0.005,0.9988
1777290491.6719365,R_Tibia,-2.7515,15.9729,-7.1969,56.7627,-70.8008,42.5415,87.9785,-2.0325,-10.3326,0.6927,0.0498,-0.077,0.7153
1777290491.6719365,R_Foot,-0.1531,0.1292,10.9341,-12.085,6.5308,-3.0518,0.6592,-5.5316,-86.0504,0.0371,-0.0314,-0.6817,0.73
1777290491.6719365,Trunk,-1.5025,8.4458,-0.8661,16.2354,-4.8218,-11.5967,88.2422,3.2904,-16.8475,0.6854,0.1223,-0.0853,0.7128
1777290491.6719365,L_Femur,5.0244,8.1778,-1.3925,0.3052,-0.3662,-0.1221,99.7119,-31.2067,-159.8785,0.2994,0.6946,-0.6473,-0.094
1777290491.6719365,L_Tibia,-0.4929,11.4939,-12.5802,13.855,55.8472,-6.5308,158.9996,-7.1521,-18.5944,0.9703,0.1473,-0.0899,0.1696
1777290491.6719365,L_Foot,-18.4037,-8.977,20.7771,-197.937,-56.8237,34.8511,70.8948,-2.2577,-83.6938,0.4426,0.3749,-0.5519,0.5991
1777290491.6719365,R_Femur,6.9911,15.1115,104.1729,412.1704,-1281.0059,-562.1338,4.2133,3.5156,-0.7031,0.0366,0.0309,-0.005,0.9988
1777290491.6719365,R_Tibia,-2.7515,15.9729,-7.1969,56.7627,-70.8008,42.5415,87.9785,-2.0325,-10.3326,0.6927,0.0498,-0.077,0.7153
1777290491.6719365,R_Foot,-0.1531,0.1292,10.9341,-12.085,6.5308,-3.0518,0.6592,-5.5316,-86.0504,0.0371,-0.0314,-0.6817,0.73
1777290491.6719365,Trunk,-1.5025,8.4458,-0.8661,16.2354,-4.8218,-11.5967,88.2422,3.2904,-16.8475,0.6854,0.1223,-0.0853,0.7128
1777290491.6719365,L_Femur,5.034,8.1922,-1.4068,0.061,-0.4272,-0.1831,99.7119,-31.2067,-159.8785,0.2994,0.6946,-0.6473,-0.094
1777290491.6719365,L_Tibia,-0.4929,11.4939,-12.5802,13.855,55.8472,-6.5308,158.9996,-7.1521,-18.5944,0.9703,0.1473,-0.0899,0.1696
1777290491.6719365,L_Foot,-18.4037,-8.977,20.7771,-197.937,-56.8237,34.8511,70.8948,-2.2577,-83.6938,0.4426,0.3749,-0.5519,0.5991
1777290491.6719365,R_Femur,6.9911,15.1115,104.1729,412.1704,-1281.0059,-562.1338,4.2133,3.5156,-0.7031,0.0366,0.0309,-0.005,0.9988
1777290491.6719365,R_Tibia,-2.7515,15.9729,-7.1969,56.7627,-70.8008,42.5415,87.9785,-2.0325,-10.3326,0.6927,0.0498,-0.077,0.7153
1777290491.6719365,R_Foot,-0.1531,0.1292,10.9341,-12.085,6.5308,-3.0518,0.6592,-5.5316,-86.0504,0.0371,-0.0314,-0.6817,0.73
1777290491.6719365,Trunk,-1.5025,8.4458,-0.8661,16.2354,-4.8218,-11.5967,88.2422,3.2904,-16.8475,0.6854,0.1223,-0.0853,0.7128
1777290491.6719365,L_Femur,5.0244,8.173,-1.3925,0.3662,-0.3662,-0.1831,99.7119,-31.2067,-159.8785,0.2994,0.6946,-0.6473,-0.094
1777290491.6719365,L_Tibia,-0.4929,11.4939,-12.5802,13.855,55.8472,-6.5308,158.9996,-7.1521,-18.5944,0.9703,0.1473,-0.0899,0.1696
1777290491.6719365,L_Foot,-18.4037,-8.977,20.7771,-197.937,-56.8237,34.8511,70.8948,-2.2577,-83.6938,0.4426,0.3749,-0.5519,0.5991
1777290491.6719365,R_Femur,6.9911,15.1115,104.1729,412.1704,-1281.0059,-562.1338,4.2133,3.5156,-0.7031,0.0366,0.0309,-0.005,0.9988
1777290491.6719365,R_Tibia,-2.7515,15.9729,-7.1969,56.7627,-70.8008,42.5415,87.9785,-2.0325,-10.3326,0.6927,0.0498,-0.077,0.7153
1777290491.6719365,R_Foot,-0.1531,0.1292,10.9341,-12.085,6.5308,-3.0518,0.6592,-5.5316,-86.0504,0.0371,-0.0314,-0.6817,0.73
1777290491.7381845,Trunk,-1.5025,8.4458,-0.8661,16.2354,-4.8218,-11.5967,88.2422,3.2904,-16.8475,0.6854,0.1223,-0.0853,0.7128
1777290491.7381845,L_Femur,5.0292,8.197,-1.4068,0.061,-0.4883,-0.1221,99.7119,-31.2067,-159.8785,0.2994,0.6946,-0.6473,-0.094
1777290491.7381845,L_Tibia,-0.4929,11.4939,-12.5802,13.855,55.8472,-6.5308,158.9996,-7.1521,-18.5944,0.9703,0.1473,-0.0899,0.1696
1777290491.7381845,L_Foot,-18.4037,-8.977,20.7771,-197.937,-56.8237,34.8511,70.8948,-2.2577,-83.6938,0.4426,0.3749,-0.5519,0.5991
1777290491.7381845,R_Femur,6.9911,15.1115,104.1729,412.1704,-1281.0059,-562.1338,4.2133,3.5156,-0.7031,0.0366,0.0309,-0.005,0.9988
1777290491.7381845,R_Tibia,-2.7515,15.9729,-7.1969,56.7627,-70.8008,42.5415,87.9785,-2.0325,-10.3326,0.6927,0.0498,-0.077,0.7153
1777290491.7381845,R_Foot,-0.1531,0.1292,10.9341,-12.085,6.5308,-3.0518,0.6592,-5.5316,-86.0504,0.0371,-0.0314,-0.6817,0.73
1777290491.7391894,Trunk,-1.5025,8.4458,-0.8661,16.2354,-4.8218,-11.5967,88.2422,3.2904,-16.8475,0.6854,0.1223,-0.0853,0.7128
1777290491.7391894,L_Femur,5.0196,8.1635,-1.3925,0.2441,-0.2441,-0.1221,99.7119,-31.2067,-159.8785,0.2994,0.6946,-0.6473,-0.094
1777290491.7391894,L_Tibia,-0.4929,11.4939,-12.5802,13.855,55.8472,-6.5308,158.9996,-7.1521,-18.5944,0.9703,0.1473,-0.0899,0.1696
1777290491.7391894,L_Foot,-18.4037,-8.977,20.7771,-197.937,-56.8237,34.8511,70.8948,-2.2577,-83.6938,0.4426,0.3749,-0.5519,0.5991
1777290491.7391894,R_Femur,6.9911,15.1115,104.1729,412.1704,-1281.0059,-562.1338,4.2133,3.5156,-0.7031,0.0366,0.0309,-0.005,0.9988
1777290491.7391894,R_Tibia,-2.7515,15.9729,-7.1969,56.7627,-70.8008,42.5415,87.9785,-2.0325,-10.3326,0.6927,0.0498,-0.077,0.7153
1777290491.7391894,R_Foot,-0.1531,0.1292,10.9341,-12.085,6.5308,-3.0518,0.6592,-5.5316,-86.0504,0.0371,-0.0314,-0.6817,0.73
1777290491.7391894,Trunk,-1.5025,8.4458,-0.8661,16.2354,-4.8218,-11.5967,88.2422,3.2904,-16.8475,0.6854,0.1223,-0.0853,0.7128
1777290491.7391894,L_Femur,5.0244,8.1922,-1.4068,0.1831,-0.4883,-0.061,99.7119,-31.2067,-159.8785,0.2994,0.6946,-0.6473,-0.094
1777290491.7391894,L_Tibia,-0.4929,11.4939,-12.5802,13.855,55.8472,-6.5308,158.9996,-7.1521,-18.5944,0.9703,0.1473,-0.0899,0.1696
1777290491.7391894,L_Foot,-18.4037,-8.977,20.7771,-197.937,-56.8237,34.8511,70.8948,-2.2577,-83.6938,0.4426,0.3749,-0.5519,0.5991
1777290491.7391894,R_Femur,6.9911,15.1115,104.1729,412.1704,-1281.0059,-562.1338,4.2133,3.5156,-0.7031,0.0366,0.0309,-0.005,0.9988
1777290491.7391894,R_Tibia,-2.7515,15.9729,-7.1969,56.7627,-70.8008,42.5415,87.9785,-2.0325,-10.3326,0.6927,0.0498,-0.077,0.7153
1777290491.7391894,R_Foot,-0.1531,0.1292,10.9341,-12.085,6.5308,-3.0518,0.6592,-5.5316,-86.0504,0.0371,-0.0314,-0.6817,0.73
1777290491.7391894,Trunk,-1.5025,8.4458,-0.8661,16.2354,-4.8218,-11.5967,88.2422,3.2904,-16.8475,0.6854,0.1223,-0.0853,0.7128
1777290491.7391894,L_Femur,5.0292,8.1683,-1.3973,0.1221,-0.3662,-0.1221,99.7119,-31.2067,-159.8785,0.2994,0.6946,-0.6473,-0.094
1777290491.7391894,L_Tibia,-0.4929,11.4939,-12.5802,13.855,55.8472,-6.5308,158.9996,-7.1521,-18.5944,0.9703,0.1473,-0.0899,0.1696
1777290491.7391894,L_Foot,-18.4037,-8.977,20.7771,-197.937,-56.8237,34.8511,70.8948,-2.2577,-83.6938,0.4426,0.3749,-0.5519,0.5991
1777290491.7391894,R_Femur,6.9911,15.1115,104.1729,412.1704,-1281.0059,-562.1338,4.2133,3.5156,-0.7031,0.0366,0.0309,-0.005,0.9988
1777290491.7391894,R_Tibia,-2.7515,15.9729,-7.1969,56.7627,-70.8008,42.5415,87.9785,-2.0325,-10.3326,0.6927,0.0498,-0.077,0.7153
1777290491.7391894,R_Foot,-0.1531,0.1292,10.9341,-12.085,6.5308,-3.0518,0.6592,-5.5316,-86.0504,0.0371,-0.0314,-0.6817,0.73
1777290491.7885387,Trunk,-1.5025,8.4458,-0.8661,16.2354,-4.8218,-11.5967,88.2422,3.2904,-16.8475,0.6854,0.1223,-0.0853,0.7128
1777290491.7885387,L_Femur,5.0244,8.1778,-1.4021,0.1221,-0.3662,-0.1221,99.7119,-31.2067,-159.8785,0.2994,0.6946,-0.6473,-0.094
1777290491.7885387,L_Tibia,-0.4929,11.4939,-12.5802,13.855,55.8472,-6.5308,158.9996,-7.1521,-18.5944,0.9703,0.1473,-0.0899,0.1696
1777290491.7885387,L_Foot,-18.4037,-8.977,20.7771,-197.937,-56.8237,34.8511,70.8948,-2.2577,-83.6938,0.4426,0.3749,-0.5519,0.5991
1777290491.7885387,R_Femur,6.9911,15.1115,104.1729,412.1704,-1281.0059,-562.1338,4.2133,3.5156,-0.7031,0.0366,0.0309,-0.005,0.9988
1777290491.7885387,R_Tibia,-2.7515,15.9729,-7.1969,56.7627,-70.8008,42.5415,87.9785,-2.0325,-10.3326,0.6927,0.0498,-0.077,0.7153
1777290491.7885387,R_Foot,-0.1531,0.1292,10.9341,-12.085,6.5308,-3.0518,0.6592,-5.5316,-86.0504,0.0371,-0.0314,-0.6817,0.73
1777290491.7890785,Trunk,-1.5025,8.4458,-0.8661,16.2354,-4.8218,-11.5967,88.2422,3.2904,-16.8475,0.6854,0.1223,-0.0853,0.7128
1777290491.7890785,L_Femur,5.0292,8.1826,-1.3973,0.3052,-0.4272,-0.1831,99.7119,-31.2067,-159.8785,0.2994,0.6946,-0.6473,-0.094
1777290491.7890785,L_Tibia,-0.4929,11.4939,-12.5802,13.855,55.8472,-6.5308,158.9996,-7.1521,-18.5944,0.9703,0.1473,-0.0899,0.1696
1777290491.7890785,L_Foot,-18.4037,-8.977,20.7771,-197.937,-56.8237,34.8511,70.8948,-2.2577,-83.6938,0.4426,0.3749,-0.5519,0.5991
1777290491.7890785,R_Femur,6.9911,15.1115,104.1729,412.1704,-1281.0059,-562.1338,4.2133,3.5156,-0.7031,0.0366,0.0309,-0.005,0.9988
1777290491.7890785,R_Tibia,-2.7515,15.9729,-7.1969,56.7627,-70.8008,42.5415,87.9785,-2.0325,-10.3326,0.6927,0.0498,-0.077,0.7153
1777290491.7890785,R_Foot,-0.1531,0.1292,10.9341,-12.085,6.5308,-3.0518,0.6592,-5.5316,-86.0504,0.0371,-0.0314,-0.6817,0.73
1777290491.7890785,Trunk,-1.5025,8.4458,-0.8661,16.2354,-4.8218,-11.5967,88.2422,3.2904,-16.8475,0.6854,0.1223,-0.0853,0.7128
1777290491.7890785,L_Femur,5.0244,8.1826,-1.4021,0.1831,-0.4272,-0.061,99.7119,-31.2067,-159.8785,0.2994,0.6946,-0.6473,-0.094
1777290491.7890785,L_Tibia,-0.4929,11.4939,-12.5802,13.855,55.8472,-6.5308,158.9996,-7.1521,-18.5944,0.9703,0.1473,-0.0899,0.1696
1777290491.7890785,L_Foot,-18.4037,-8.977,20.7771,-197.937,-56.8237,34.8511,70.8948,-2.2577,-83.6938,0.4426,0.3749,-0.5519,0.5991
1777290491.7890785,R_Femur,6.9911,15.1115,104.1729,412.1704,-1281.0059,-562.1338,4.2133,3.5156,-0.7031,0.0366,0.0309,-0.005,0.9988
1777290491.7890785,R_Tibia,-2.7515,15.9729,-7.1969,56.7627,-70.8008,42.5415,87.9785,-2.0325,-10.3326,0.6927,0.0498,-0.077,0.7153
1777290491.7890785,R_Foot,-0.1531,0.1292,10.9341,-12.085,6.5308,-3.0518,0.6592,-5.5316,-86.0504,0.0371,-0.0314,-0.6817,0.73
1777290491.7890785,Trunk,-1.5025,8.4458,-0.8661,16.2354,-4.8218,-11.5967,88.2422,3.2904,-16.8475,0.6854,0.1223,-0.0853,0.7128
1777290491.7890785,L_Femur,5.034,8.1874,-1.3973,0.1831,-0.4272,-0.061,99.7119,-31.2067,-159.8785,0.2994,0.6946,-0.6473,-0.094
1777290491.7890785,L_Tibia,-0.4929,11.4939,-12.5802,13.855,55.8472,-6.5308,158.9996,-7.1521,-18.5944,0.9703,0.1473,-0.0899,0.1696
1777290491.7890785,L_Foot,-18.4037,-8.977,20.7771,-197.937,-56.8237,34.8511,70.8948,-2.2577,-83.6938,0.4426,0.3749,-0.5519,0.5991
1777290491.7890785,R_Femur,6.9911,15.1115,104.1729,412.1704,-1281.0059,-562.1338,4.2133,3.5156,-0.7031,0.0366,0.0309,-0.005,0.9988
1777290491.7890785,R_Tibia,-2.7515,15.9729,-7.1969,56.7627,-70.8008,42.5415,87.9785,-2.0325,-10.3326,0.6927,0.0498,-0.077,0.7153
1777290491.7890785,R_Foot,-0.1531,0.1292,10.9341,-12.085,6.5308,-3.0518,0.6592,-5.5316,-86.0504,0.0371,-0.0314,-0.6817,0.73
1777290491.857685,Trunk,-1.5025,8.4458,-0.8661,16.2354,-4.8218,-11.5967,88.2422,3.2904,-16.8475,0.6854,0.1223,-0.0853,0.7128
1777290491.857685,L_Femur,5.0292,8.1778,-1.3973,0.2441,-0.3662,-0.1831,99.7119,-31.2067,-159.8785,0.2994,0.6946,-0.6473,-0.094
1777290491.857685,L_Tibia,-0.4929,11.4939,-12.5802,13.855,55.8472,-6.5308,158.9996,-7.1521,-18.5944,0.9703,0.1473,-0.0899,0.1696
1777290491.857685,L_Foot,-18.4037,-8.977,20.7771,-197.937,-56.8237,34.8511,70.8948,-2.2577,-83.6938,0.4426,0.3749,-0.5519,0.5991
1777290491.857685,R_Femur,6.9911,15.1115,104.1729,412.1704,-1281.0059,-562.1338,4.2133,3.5156,-0.7031,0.0366,0.0309,-0.005,0.9988
1777290491.857685,R_Tibia,-2.7515,15.9729,-7.1969,56.7627,-70.8008,42.5415,87.9785,-2.0325,-10.3326,0.6927,0.0498,-0.077,0.7153
1777290491.857685,R_Foot,-0.1531,0.1292,10.9341,-12.085,6.5308,-3.0518,0.6592,-5.5316,-86.0504,0.0371,-0.0314,-0.6817,0.73
1777290491.8586957,Trunk,-1.5025,8.4458,-0.8661,16.2354,-4.8218,-11.5967,88.2422,3.2904,-16.8475,0.6854,0.1223,-0.0853,0.7128
1777290491.8586957,L_Femur,5.034,8.1826,-1.4021,0.1221,-0.4272,-0.061,99.7119,-31.2067,-159.8785,0.2994,0.6946,-0.6473,-0.094
1777290491.8586957,L_Tibia,-0.4929,11.4939,-12.5802,13.855,55.8472,-6.5308,158.9996,-7.1521,-18.5944,0.9703,0.1473,-0.0899,0.1696
1777290491.8586957,L_Foot,-18.4037,-8.977,20.7771,-197.937,-56.8237,34.8511,70.8948,-2.2577,-83.6938,0.4426,0.3749,-0.5519,0.5991
1777290491.8586957,R_Femur,6.9911,15.1115,104.1729,412.1704,-1281.0059,-562.1338,4.2133,3.5156,-0.7031,0.0366,0.0309,-0.005,0.9988
1777290491.8586957,R_Tibia,-2.7515,15.9729,-7.1969,56.7627,-70.8008,42.5415,87.9785,-2.0325,-10.3326,0.6927,0.0498,-0.077,0.7153
1777290491.8586957,R_Foot,-0.1531,0.1292,10.9341,-12.085,6.5308,-3.0518,0.6592,-5.5316,-86.0504,0.0371,-0.0314,-0.6817,0.73
1777290492.053781,Trunk,-1.5025,8.4458,-0.8661,16.2354,-4.8218,-11.5967,88.2422,3.2904,-16.8475,0.6854,0.1223,-0.0853,0.7128
1777290492.053781,L_Femur,5.0244,8.1826,-1.3973,0.1831,-0.3662,-0.1831,99.7119,-31.2067,-159.8785,0.2994,0.6946,-0.6473,-0.094
1777290492.053781,L_Tibia,-0.4929,11.4939,-12.5802,13.855,55.8472,-6.5308,158.9996,-7.1521,-18.5944,0.9703,0.1473,-0.0899,0.1696
1777290492.053781,L_Foot,-18.4037,-8.977,20.7771,-197.937,-56.8237,34.8511,70.8948,-2.2577,-83.6938,0.4426,0.3749,-0.5519,0.5991
1777290492.053781,R_Femur,6.9911,15.1115,104.1729,412.1704,-1281.0059,-562.1338,4.2133,3.5156,-0.7031,0.0366,0.0309,-0.005,0.9988
1777290492.053781,R_Tibia,-2.7515,15.9729,-7.1969,56.7627,-70.8008,42.5415,87.9785,-2.0325,-10.3326,0.6927,0.0498,-0.077,0.7153
1777290492.053781,R_Foot,-0.1531,0.1292,10.9341,-12.085,6.5308,-3.0518,0.6592,-5.5316,-86.0504,0.0371,-0.0314,-0.6817,0.73
1777290492.05478,Trunk,-1.5025,8.4458,-0.8661,16.2354,-4.8218,-11.5967,88.2422,3.2904,-16.8475,0.6854,0.1223,-0.0853,0.7128
1777290492.05478,L_Femur,5.0292,8.1874,-1.4021,0.1221,-0.4272,-0.061,99.7119,-31.2067,-159.8785,0.2994,0.6946,-0.6473,-0.094
1777290492.05478,L_Tibia,-0.4929,11.4939,-12.5802,13.855,55.8472,-6.5308,158.9996,-7.1521,-18.5944,0.9703,0.1473,-0.0899,0.1696
1777290492.05478,L_Foot,-18.4037,-8.977,20.7771,-197.937,-56.8237,34.8511,70.8948,-2.2577,-83.6938,0.4426,0.3749,-0.5519,0.5991
1777290492.05478,R_Femur,6.9911,15.1115,104.1729,412.1704,-1281.0059,-562.1338,4.2133,3.5156,-0.7031,0.0366,0.0309,-0.005,0.9988
1777290492.05478,R_Tibia,-2.7515,15.9729,-7.1969,56.7627,-70.8008,42.5415,87.9785,-2.0325,-10.3326,0.6927,0.0498,-0.077,0.7153
1777290492.05478,R_Foot,-0.1531,0.1292,10.9341,-12.085,6.5308,-3.0518,0.6592,-5.5316,-86.0504,0.0371,-0.0314,-0.6817,0.73
1777290492.05478,Trunk,-1.5025,8.4458,-0.8661,16.2354,-4.8218,-11.5967,88.2422,3.2904,-16.8475,0.6854,0.1223,-0.0853,0.7128
1777290492.05478,L_Femur,5.0292,8.173,-1.4021,0.1831,-0.3662,-0.1221,99.7119,-31.2067,-159.8785,0.2994,0.6946,-0.6473,-0.094
1777290492.05478,L_Tibia,-0.4929,11.4939,-12.5802,13.855,55.8472,-6.5308,158.9996,-7.1521,-18.5944,0.9703,0.1473,-0.0899,0.1696
1777290492.05478,L_Foot,-18.4037,-8.977,20.7771,-197.937,-56.8237,34.8511,70.8948,-2.2577,-83.6938,0.4426,0.3749,-0.5519,0.5991
1777290492.05478,R_Femur,6.9911,15.1115,104.1729,412.1704,-1281.0059,-562.1338,4.2133,3.5156,-0.7031,0.0366,0.0309,-0.005,0.9988
1777290492.05478,R_Tibia,-2.7515,15.9729,-7.1969,56.7627,-70.8008,42.5415,87.9785,-2.0325,-10.3326,0.6927,0.0498,-0.077,0.7153
1777290492.05478,R_Foot,-0.1531,0.1292,10.9341,-12.085,6.5308,-3.0518,0.6592,-5.5316,-86.0504,0.0371,-0.0314,-0.6817,0.73
1777290492.05478,Trunk,-1.5025,8.4458,-0.8661,16.2354,-4.8218,-11.5967,88.2422,3.2904,-16.8475,0.6854,0.1223,-0.0853,0.7128
1777290492.05478,L_Femur,5.0292,8.1826,-1.4068,0.1831,-0.3662,-0.061,99.7119,-31.2067,-159.8785,0.2994,0.6946,-0.6473,-0.094
1777290492.05478,L_Tibia,-0.4929,11.4939,-12.5802,13.855,55.8472,-6.5308,158.9996,-7.1521,-18.5944,0.9703,0.1473,-0.0899,0.1696
1777290492.05478,L_Foot,-18.4037,-8.977,20.7771,-197.937,-56.8237,34.8511,70.8948,-2.2577,-83.6938,0.4426,0.3749,-0.5519,0.5991
1777290492.05478,R_Femur,6.9911,15.1115,104.1729,412.1704,-1281.0059,-562.1338,4.2133,3.5156,-0.7031,0.0366,0.0309,-0.005,0.9988
1777290492.05478,R_Tibia,-2.7515,15.9729,-7.1969,56.7627,-70.8008,42.5415,87.9785,-2.0325,-10.3326,0.6927,0.0498,-0.077,0.7153
1777290492.05478,R_Foot,-0.1531,0.1292,10.9341,-12.085,6.5308,-3.0518,0.6592,-5.5316,-86.0504,0.0371,-0.0314,-0.6817,0.73
1777290492.0557806,Trunk,-1.5025,8.4458,-0.8661,16.2354,-4.8218,-11.5967,88.2422,3.2904,-16.8475,0.6854,0.1223,-0.0853,0.7128
1777290492.0557806,L_Femur,5.0292,8.1778,-1.4021,0.1831,-0.4272,-0.1221,99.7119,-31.2067,-159.8785,0.2994,0.6946,-0.6473,-0.094
1777290492.0557806,L_Tibia,-0.4929,11.4939,-12.5802,13.855,55.8472,-6.5308,158.9996,-7.1521,-18.5944,0.9703,0.1473,-0.0899,0.1696
1777290492.0557806,L_Foot,-18.4037,-8.977,20.7771,-197.937,-56.8237,34.8511,70.8948,-2.2577,-83.6938,0.4426,0.3749,-0.5519,0.5991
1777290492.0557806,R_Femur,6.9911,15.1115,104.1729,412.1704,-1281.0059,-562.1338,4.2133,3.5156,-0.7031,0.0366,0.0309,-0.005,0.9988
1777290492.0557806,R_Tibia,-2.7515,15.9729,-7.1969,56.7627,-70.8008,42.5415,87.9785,-2.0325,-10.3326,0.6927,0.0498,-0.077,0.7153
1777290492.0557806,R_Foot,-0.1531,0.1292,10.9341,-12.085,6.5308,-3.0518,0.6592,-5.5316,-86.0504,0.0371,-0.0314,-0.6817,0.73
1777290492.0705717,Trunk,-1.5025,8.4458,-0.8661,16.2354,-4.8218,-11.5967,88.2422,3.2904,-16.8475,0.6854,0.1223,-0.0853,0.7128
1777290492.0705717,L_Femur,5.0292,8.1826,-1.3973,0.1831,-0.4272,-0.061,99.7119,-31.2067,-159.8785,0.2994,0.6946,-0.6473,-0.094
1777290492.0705717,L_Tibia,-0.4929,11.4939,-12.5802,13.855,55.8472,-6.5308,158.9996,-7.1521,-18.5944,0.9703,0.1473,-0.0899,0.1696
1777290492.0705717,L_Foot,-18.4037,-8.977,20.7771,-197.937,-56.8237,34.8511,70.8948,-2.2577,-83.6938,0.4426,0.3749,-0.5519,0.5991
1777290492.0705717,R_Femur,6.9911,15.1115,104.1729,412.1704,-1281.0059,-562.1338,4.2133,3.5156,-0.7031,0.0366,0.0309,-0.005,0.9988
1777290492.0705717,R_Tibia,-2.7515,15.9729,-7.1969,56.7627,-70.8008,42.5415,87.9785,-2.0325,-10.3326,0.6927,0.0498,-0.077,0.7153
1777290492.0705717,R_Foot,-0.1531,0.1292,10.9341,-12.085,6.5308,-3.0518,0.6592,-5.5316,-86.0504,0.0371,-0.0314,-0.6817,0.73
1777290492.0705717,Trunk,-1.5025,8.4458,-0.8661,16.2354,-4.8218,-11.5967,88.2422,3.2904,-16.8475,0.6854,0.1223,-0.0853,0.7128
1777290492.0705717,L_Femur,5.0292,8.1778,-1.3973,0.1831,-0.3662,-0.1221,99.7119,-31.2067,-159.8785,0.2994,0.6946,-0.6473,-0.094
1777290492.0705717,L_Tibia,-0.4929,11.4939,-12.5802,13.855,55.8472,-6.5308,158.9996,-7.1521,-18.5944,0.9703,0.1473,-0.0899,0.1696
1777290492.0705717,L_Foot,-18.4037,-8.977,20.7771,-197.937,-56.8237,34.8511,70.8948,-2.2577,-83.6938,0.4426,0.3749,-0.5519,0.5991
1777290492.0705717,R_Femur,6.9911,15.1115,104.1729,412.1704,-1281.0059,-562.1338,4.2133,3.5156,-0.7031,0.0366,0.0309,-0.005,0.9988
1777290492.0705717,R_Tibia,-2.7515,15.9729,-7.1969,56.7627,-70.8008,42.5415,87.9785,-2.0325,-10.3326,0.6927,0.0498,-0.077,0.7153
1777290492.0705717,R_Foot,-0.1531,0.1292,10.9341,-12.085,6.5308,-3.0518,0.6592,-5.5316,-86.0504,0.0371,-0.0314,-0.6817,0.73
1777290492.1194336,Trunk,-1.5025,8.4458,-0.8661,16.2354,-4.8218,-11.5967,88.2422,3.2904,-16.8475,0.6854,0.1223,-0.0853,0.7128
1777290492.1194336,L_Femur,5.0292,8.1874,-1.4021,0.1221,-0.4272,-0.1831,99.7119,-31.2067,-159.8785,0.2994,0.6946,-0.6473,-0.094
1777290492.1194336,L_Tibia,-0.4929,11.4939,-12.5802,13.855,55.8472,-6.5308,158.9996,-7.1521,-18.5944,0.9703,0.1473,-0.0899,0.1696
1777290492.1194336,L_Foot,-18.4037,-8.977,20.7771,-197.937,-56.8237,34.8511,70.8948,-2.2577,-83.6938,0.4426,0.3749,-0.5519,0.5991
1777290492.1194336,R_Femur,6.9911,15.1115,104.1729,412.1704,-1281.0059,-562.1338,4.2133,3.5156,-0.7031,0.0366,0.0309,-0.005,0.9988
1777290492.1194336,R_Tibia,-2.7515,15.9729,-7.1969,56.7627,-70.8008,42.5415,87.9785,-2.0325,-10.3326,0.6927,0.0498,-0.077,0.7153
1777290492.1194336,R_Foot,-0.1531,0.1292,10.9341,-12.085,6.5308,-3.0518,0.6592,-5.5316,-86.0504,0.0371,-0.0314,-0.6817,0.73
1777290492.1194336,Trunk,-1.5025,8.4458,-0.8661,16.2354,-4.8218,-11.5967,88.2422,3.2904,-16.8475,0.6854,0.1223,-0.0853,0.7128
1777290492.1194336,L_Femur,5.0292,8.1874,-1.3973,0.1831,-0.4272,-0.061,99.7119,-31.2067,-159.8785,0.2994,0.6946,-0.6473,-0.094
1777290492.1194336,L_Tibia,-0.4929,11.4939,-12.5802,13.855,55.8472,-6.5308,158.9996,-7.1521,-18.5944,0.9703,0.1473,-0.0899,0.1696
1777290492.1194336,L_Foot,-18.4037,-8.977,20.7771,-197.937,-56.8237,34.8511,70.8948,-2.2577,-83.6938,0.4426,0.3749,-0.5519,0.5991
1777290492.1194336,R_Femur,6.9911,15.1115,104.1729,412.1704,-1281.0059,-562.1338,4.2133,3.5156,-0.7031,0.0366,0.0309,-0.005,0.9988
1777290492.1194336,R_Tibia,-2.7515,15.9729,-7.1969,56.7627,-70.8008,42.5415,87.9785,-2.0325,-10.3326,0.6927,0.0498,-0.077,0.7153
1777290492.1194336,R_Foot,-0.1531,0.1292,10.9341,-12.085,6.5308,-3.0518,0.6592,-5.5316,-86.0504,0.0371,-0.0314,-0.6817,0.73
1777290492.1204348,Trunk,-1.5025,8.4458,-0.8661,16.2354,-4.8218,-11.5967,88.2422,3.2904,-16.8475,0.6854,0.1223,-0.0853,0.7128
1777290492.1204348,L_Femur,5.034,8.1826,-1.4021,0.1831,-0.3662,-0.1221,99.7119,-31.2067,-159.8785,0.2994,0.6946,-0.6473,-0.094
1777290492.1204348,L_Tibia,-0.4929,11.4939,-12.5802,13.855,55.8472,-6.5308,158.9996,-7.1521,-18.5944,0.9703,0.1473,-0.0899,0.1696
1777290492.1204348,L_Foot,-18.4037,-8.977,20.7771,-197.937,-56.8237,34.8511,70.8948,-2.2577,-83.6938,0.4426,0.3749,-0.5519,0.5991
1777290492.1204348,R_Femur,6.9911,15.1115,104.1729,412.1704,-1281.0059,-562.1338,4.2133,3.5156,-0.7031,0.0366,0.0309,-0.005,0.9988
1777290492.1204348,R_Tibia,-2.7515,15.9729,-7.1969,56.7627,-70.8008,42.5415,87.9785,-2.0325,-10.3326,0.6927,0.0498,-0.077,0.7153
1777290492.1204348,R_Foot,-0.1531,0.1292,10.9341,-12.085,6.5308,-3.0518,0.6592,-5.5316,-86.0504,0.0371,-0.0314,-0.6817,0.73
1777290492.1204348,Trunk,-1.5025,8.4458,-0.8661,16.2354,-4.8218,-11.5967,88.2422,3.2904,-16.8475,0.6854,0.1223,-0.0853,0.7128
1777290492.1204348,L_Femur,5.0292,8.1826,-1.4021,0.2441,-0.3662,-0.1221,99.7119,-31.2067,-159.8785,0.2994,0.6946,-0.6473,-0.094
1777290492.1204348,L_Tibia,-0.4929,11.4939,-12.5802,13.855,55.8472,-6.5308,158.9996,-7.1521,-18.5944,0.9703,0.1473,-0.0899,0.1696
1777290492.1204348,L_Foot,-18.4037,-8.977,20.7771,-197.937,-56.8237,34.8511,70.8948,-2.2577,-83.6938,0.4426,0.3749,-0.5519,0.5991
1777290492.1204348,R_Femur,6.9911,15.1115,104.1729,412.1704,-1281.0059,-562.1338,4.2133,3.5156,-0.7031,0.0366,0.0309,-0.005,0.9988
1777290492.1204348,R_Tibia,-2.7515,15.9729,-7.1969,56.7627,-70.8008,42.5415,87.9785,-2.0325,-10.3326,0.6927,0.0498,-0.077,0.7153
1777290492.1204348,R_Foot,-0.1531,0.1292,10.9341,-12.085,6.5308,-3.0518,0.6592,-5.5316,-86.0504,0.0371,-0.0314,-0.6817,0.73
1777290492.1204348,Trunk,-1.5025,8.4458,-0.8661,16.2354,-4.8218,-11.5967,88.2422,3.2904,-16.8475,0.6854,0.1223,-0.0853,0.7128
1777290492.1204348,L_Femur,5.0292,8.1778,-1.3973,0.1831,-0.3662,-0.1221,99.7119,-31.2067,-159.8785,0.2994,0.6946,-0.6473,-0.094
1777290492.1204348,L_Tibia,-0.4929,11.4939,-12.5802,13.855,55.8472,-6.5308,158.9996,-7.1521,-18.5944,0.9703,0.1473,-0.0899,0.1696
1777290492.1204348,L_Foot,-18.4037,-8.977,20.7771,-197.937,-56.8237,34.8511,70.8948,-2.2577,-83.6938,0.4426,0.3749,-0.5519,0.5991
1777290492.1204348,R_Femur,6.9911,15.1115,104.1729,412.1704,-1281.0059,-562.1338,4.2133,3.5156,-0.7031,0.0366,0.0309,-0.005,0.9988
1777290492.1204348,R_Tibia,-2.7515,15.9729,-7.1969,56.7627,-70.8008,42.5415,87.9785,-2.0325,-10.3326,0.6927,0.0498,-0.077,0.7153
1777290492.1204348,R_Foot,-0.1531,0.1292,10.9341,-12.085,6.5308,-3.0518,0.6592,-5.5316,-86.0504,0.0371,-0.0314,-0.6817,0.73
1777290492.1212666,Trunk,-1.5025,8.4458,-0.8661,16.2354,-4.8218,-11.5967,88.2422,3.2904,-16.8475,0.6854,0.1223,-0.0853,0.7128
1777290492.1212666,L_Femur,5.0292,8.1874,-1.4021,0.1221,-0.3662,-0.1221,99.7119,-31.2067,-159.8785,0.2994,0.6946,-0.6473,-0.094
1777290492.1212666,L_Tibia,-0.4929,11.4939,-12.5802,13.855,55.8472,-6.5308,158.9996,-7.1521,-18.5944,0.9703,0.1473,-0.0899,0.1696
1777290492.1212666,L_Foot,-18.4037,-8.977,20.7771,-197.937,-56.8237,34.8511,70.8948,-2.2577,-83.6938,0.4426,0.3749,-0.5519,0.5991
1777290492.1212666,R_Femur,6.9911,15.1115,104.1729,412.1704,-1281.0059,-562.1338,4.2133,3.5156,-0.7031,0.0366,0.0309,-0.005,0.9988
1777290492.1212666,R_Tibia,-2.7515,15.9729,-7.1969,56.7627,-70.8008,42.5415,87.9785,-2.0325,-10.3326,0.6927,0.0498,-0.077,0.7153
1777290492.1212666,R_Foot,-0.1531,0.1292,10.9341,-12.085,6.5308,-3.0518,0.6592,-5.5316,-86.0504,0.0371,-0.0314,-0.6817,0.73
1777290492.1212666,Trunk,-1.5025,8.4458,-0.8661,16.2354,-4.8218,-11.5967,88.2422,3.2904,-16.8475,0.6854,0.1223,-0.0853,0.7128
1777290492.1212666,L_Femur,5.0292,8.1826,-1.4021,0.1221,-0.3662,-0.1221,99.7119,-31.2067,-159.8785,0.2994,0.6946,-0.6473,-0.094
1777290492.1212666,L_Tibia,-0.4929,11.4939,-12.5802,13.855,55.8472,-6.5308,158.9996,-7.1521,-18.5944,0.9703,0.1473,-0.0899,0.1696
1777290492.1212666,L_Foot,-18.4037,-8.977,20.7771,-197.937,-56.8237,34.8511,70.8948,-2.2577,-83.6938,0.4426,0.3749,-0.5519,0.5991
1777290492.1212666,R_Femur,6.9911,15.1115,104.1729,412.1704,-1281.0059,-562.1338,4.2133,3.5156,-0.7031,0.0366,0.0309,-0.005,0.9988
1777290492.1212666,R_Tibia,-2.7515,15.9729,-7.1969,56.7627,-70.8008,42.5415,87.9785,-2.0325,-10.3326,0.6927,0.0498,-0.077,0.7153
1777290492.1212666,R_Foot,-0.1531,0.1292,10.9341,-12.085,6.5308,-3.0518,0.6592,-5.5316,-86.0504,0.0371,-0.0314,-0.6817,0.73
1777290492.1217816,Trunk,-1.5025,8.4458,-0.8661,16.2354,-4.8218,-11.5967,88.2422,3.2904,-16.8475,0.6854,0.1223,-0.0853,0.7128
1777290492.1217816,L_Femur,5.0292,8.1826,-1.4021,0.1831,-0.4272,-0.1221,99.7119,-31.2067,-159.8785,0.2994,0.6946,-0.6473,-0.094
1777290492.1217816,L_Tibia,-0.4929,11.4939,-12.5802,13.855,55.8472,-6.5308,158.9996,-7.1521,-18.5944,0.9703,0.1473,-0.0899,0.1696
1777290492.1217816,L_Foot,-18.4037,-8.977,20.7771,-197.937,-56.8237,34.8511,70.8948,-2.2577,-83.6938,0.4426,0.3749,-0.5519,0.5991
1777290492.1217816,R_Femur,6.9911,15.1115,104.1729,412.1704,-1281.0059,-562.1338,4.2133,3.5156,-0.7031,0.0366,0.0309,-0.005,0.9988
1777290492.1217816,R_Tibia,-2.7515,15.9729,-7.1969,56.7627,-70.8008,42.5415,87.9785,-2.0325,-10.3326,0.6927,0.0498,-0.077,0.7153
1777290492.1217816,R_Foot,-0.1531,0.1292,10.9341,-12.085,6.5308,-3.0518,0.6592,-5.5316,-86.0504,0.0371,-0.0314,-0.6817,0.73
1777290492.2069058,Trunk,-1.5025,8.4458,-0.8661,16.2354,-4.8218,-11.5967,88.2422,3.2904,-16.8475,0.6854,0.1223,-0.0853,0.7128
1777290492.2069058,L_Femur,5.034,8.1826,-1.4068,0.1831,-0.4272,-0.1221,99.7119,-31.2067,-159.8785,0.2994,0.6946,-0.6473,-0.094
1777290492.2069058,L_Tibia,-0.4929,11.4939,-12.5802,13.855,55.8472,-6.5308,158.9996,-7.1521,-18.5944,0.9703,0.1473,-0.0899,0.1696
1777290492.2069058,L_Foot,-18.4037,-8.977,20.7771,-197.937,-56.8237,34.8511,70.8948,-2.2577,-83.6938,0.4426,0.3749,-0.5519,0.5991
1777290492.2069058,R_Femur,6.9911,15.1115,104.1729,412.1704,-1281.0059,-562.1338,4.2133,3.5156,-0.7031,0.0366,0.0309,-0.005,0.9988
1777290492.2069058,R_Tibia,-2.7515,15.9729,-7.1969,56.7627,-70.8008,42.5415,87.9785,-2.0325,-10.3326,0.6927,0.0498,-0.077,0.7153
1777290492.2069058,R_Foot,-0.1531,0.1292,10.9341,-12.085,6.5308,-3.0518,0.6592,-5.5316,-86.0504,0.0371,-0.0314,-0.6817,0.73
1777290492.2069058,Trunk,-1.5025,8.4458,-0.8661,16.2354,-4.8218,-11.5967,88.2422,3.2904,-16.8475,0.6854,0.1223,-0.0853,0.7128
1777290492.2069058,L_Femur,5.0292,8.1874,-1.4021,0.1831,-0.4272,-0.1221,99.7119,-31.2067,-159.8785,0.2994,0.6946,-0.6473,-0.094
1777290492.2069058,L_Tibia,-0.4929,11.4939,-12.5802,13.855,55.8472,-6.5308,158.9996,-7.1521,-18.5944,0.9703,0.1473,-0.0899,0.1696
1777290492.2069058,L_Foot,-18.4037,-8.977,20.7771,-197.937,-56.8237,34.8511,70.8948,-2.2577,-83.6938,0.4426,0.3749,-0.5519,0.5991
1777290492.2069058,R_Femur,6.9911,15.1115,104.1729,412.1704,-1281.0059,-562.1338,4.2133,3.5156,-0.7031,0.0366,0.0309,-0.005,0.9988
1777290492.2069058,R_Tibia,-2.7515,15.9729,-7.1969,56.7627,-70.8008,42.5415,87.9785,-2.0325,-10.3326,0.6927,0.0498,-0.077,0.7153
1777290492.2069058,R_Foot,-0.1531,0.1292,10.9341,-12.085,6.5308,-3.0518,0.6592,-5.5316,-86.0504,0.0371,-0.0314,-0.6817,0.73
1777290492.2069058,Trunk,-1.5025,8.4458,-0.8661,16.2354,-4.8218,-11.5967,88.2422,3.2904,-16.8475,0.6854,0.1223,-0.0853,0.7128
1777290492.2069058,L_Femur,5.0292,8.1826,-1.4021,0.1221,-0.3662,-0.1221,99.7119,-31.2067,-159.8785,0.2994,0.6946,-0.6473,-0.094
1777290492.2069058,L_Tibia,-0.4929,11.4939,-12.5802,13.855,55.8472,-6.5308,158.9996,-7.1521,-18.5944,0.9703,0.1473,-0.0899,0.1696
1777290492.2069058,L_Foot,-18.4037,-8.977,20.7771,-197.937,-56.8237,34.8511,70.8948,-2.2577,-83.6938,0.4426,0.3749,-0.5519,0.5991
1777290492.2069058,R_Femur,6.9911,15.1115,104.1729,412.1704,-1281.0059,-562.1338,4.2133,3.5156,-0.7031,0.0366,0.0309,-0.005,0.9988
1777290492.2069058,R_Tibia,-2.7515,15.9729,-7.1969,56.7627,-70.8008,42.5415,87.9785,-2.0325,-10.3326,0.6927,0.0498,-0.077,0.7153
1777290492.2069058,R_Foot,-0.1531,0.1292,10.9341,-12.085,6.5308,-3.0518,0.6592,-5.5316,-86.0504,0.0371,-0.0314,-0.6817,0.73
1777290492.2873774,Trunk,-1.5025,8.4458,-0.8661,16.2354,-4.8218,-11.5967,88.2422,3.2904,-16.8475,0.6854,0.1223,-0.0853,0.7128
1777290492.2873774,L_Femur,5.0292,8.1778,-1.4021,0.1831,-0.3662,-0.1221,99.7119,-31.2067,-159.8785,0.2994,0.6946,-0.6473,-0.094
1777290492.2873774,L_Tibia,-0.4929,11.4939,-12.5802,13.855,55.8472,-6.5308,158.9996,-7.1521,-18.5944,0.9703,0.1473,-0.0899,0.1696
1777290492.2873774,L_Foot,-18.4037,-8.977,20.7771,-197.937,-56.8237,34.8511,70.8948,-2.2577,-83.6938,0.4426,0.3749,-0.5519,0.5991
1777290492.2873774,R_Femur,6.9911,15.1115,104.1729,412.1704,-1281.0059,-562.1338,4.2133,3.5156,-0.7031,0.0366,0.0309,-0.005,0.9988
1777290492.2873774,R_Tibia,-2.7515,15.9729,-7.1969,56.7627,-70.8008,42.5415,87.9785,-2.0325,-10.3326,0.6927,0.0498,-0.077,0.7153
1777290492.2873774,R_Foot,-0.1531,0.1292,10.9341,-12.085,6.5308,-3.0518,0.6592,-5.5316,-86.0504,0.0371,-0.0314,-0.6817,0.73
1777290492.2873774,Trunk,-1.5025,8.4458,-0.8661,16.2354,-4.8218,-11.5967,88.2422,3.2904,-16.8475,0.6854,0.1223,-0.0853,0.7128
1777290492.2873774,L_Femur,5.0244,8.1778,-1.3973,0.2441,-0.4272,-0.1221,99.7119,-31.2067,-159.8785,0.2994,0.6946,-0.6473,-0.094
1777290492.2873774,L_Tibia,-0.4929,11.4939,-12.5802,13.855,55.8472,-6.5308,158.9996,-7.1521,-18.5944,0.9703,0.1473,-0.0899,0.1696
1777290492.2873774,L_Foot,-18.4037,-8.977,20.7771,-197.937,-56.8237,34.8511,70.8948,-2.2577,-83.6938,0.4426,0.3749,-0.5519,0.5991
1777290492.2873774,R_Femur,6.9911,15.1115,104.1729,412.1704,-1281.0059,-562.1338,4.2133,3.5156,-0.7031,0.0366,0.0309,-0.005,0.9988
1777290492.2873774,R_Tibia,-2.7515,15.9729,-7.1969,56.7627,-70.8008,42.5415,87.9785,-2.0325,-10.3326,0.6927,0.0498,-0.077,0.7153
1777290492.2873774,R_Foot,-0.1531,0.1292,10.9341,-12.085,6.5308,-3.0518,0.6592,-5.5316,-86.0504,0.0371,-0.0314,-0.6817,0.73
1777290492.3071148,Trunk,-1.5025,8.4458,-0.8661,16.2354,-4.8218,-11.5967,88.2422,3.2904,-16.8475,0.6854,0.1223,-0.0853,0.7128
1777290492.3071148,L_Femur,5.0244,8.1826,-1.3973,0.1831,-0.4272,-0.1221,99.7119,-31.2067,-159.8785,0.2994,0.6946,-0.6473,-0.094
1777290492.3071148,L_Tibia,-0.4929,11.4939,-12.5802,13.855,55.8472,-6.5308,158.9996,-7.1521,-18.5944,0.9703,0.1473,-0.0899,0.1696
1777290492.3071148,L_Foot,-18.4037,-8.977,20.7771,-197.937,-56.8237,34.8511,70.8948,-2.2577,-83.6938,0.4426,0.3749,-0.5519,0.5991
1777290492.3071148,R_Femur,6.9911,15.1115,104.1729,412.1704,-1281.0059,-562.1338,4.2133,3.5156,-0.7031,0.0366,0.0309,-0.005,0.9988
1777290492.3071148,R_Tibia,-2.7515,15.9729,-7.1969,56.7627,-70.8008,42.5415,87.9785,-2.0325,-10.3326,0.6927,0.0498,-0.077,0.7153
1777290492.3071148,R_Foot,-0.1531,0.1292,10.9341,-12.085,6.5308,-3.0518,0.6592,-5.5316,-86.0504,0.0371,-0.0314,-0.6817,0.73
1777290492.3071148,Trunk,-1.5025,8.4458,-0.8661,16.2354,-4.8218,-11.5967,88.2422,3.2904,-16.8475,0.6854,0.1223,-0.0853,0.7128
1777290492.3071148,L_Femur,5.0292,8.1826,-1.3973,0.1831,-0.3662,-0.061,99.7119,-31.2067,-159.8785,0.2994,0.6946,-0.6473,-0.094
1777290492.3071148,L_Tibia,-0.4929,11.4939,-12.5802,13.855,55.8472,-6.5308,158.9996,-7.1521,-18.5944,0.9703,0.1473,-0.0899,0.1696
1777290492.3071148,L_Foot,-18.4037,-8.977,20.7771,-197.937,-56.8237,34.8511,70.8948,-2.2577,-83.6938,0.4426,0.3749,-0.5519,0.5991
1777290492.3071148,R_Femur,6.9911,15.1115,104.1729,412.1704,-1281.0059,-562.1338,4.2133,3.5156,-0.7031,0.0366,0.0309,-0.005,0.9988
1777290492.3071148,R_Tibia,-2.7515,15.9729,-7.1969,56.7627,-70.8008,42.5415,87.9785,-2.0325,-10.3326,0.6927,0.0498,-0.077,0.7153
1777290492.3071148,R_Foot,-0.1531,0.1292,10.9341,-12.085,6.5308,-3.0518,0.6592,-5.5316,-86.0504,0.0371,-0.0314,-0.6817,0.73
1777290492.3860035,Trunk,-1.5025,8.4458,-0.8661,16.2354,-4.8218,-11.5967,88.2422,3.2904,-16.8475,0.6854,0.1223,-0.0853,0.7128
1777290492.3860035,L_Femur,5.034,8.1778,-1.4021,0.1831,-0.4272,-0.061,99.7119,-31.2067,-159.8785,0.2994,0.6946,-0.6473,-0.094
1777290492.3860035,L_Tibia,-0.4929,11.4939,-12.5802,13.855,55.8472,-6.5308,158.9996,-7.1521,-18.5944,0.9703,0.1473,-0.0899,0.1696
1777290492.3860035,L_Foot,-18.4037,-8.977,20.7771,-197.937,-56.8237,34.8511,70.8948,-2.2577,-83.6938,0.4426,0.3749,-0.5519,0.5991
1777290492.3860035,R_Femur,6.9911,15.1115,104.1729,412.1704,-1281.0059,-562.1338,4.2133,3.5156,-0.7031,0.0366,0.0309,-0.005,0.9988
1777290492.3860035,R_Tibia,-2.7515,15.9729,-7.1969,56.7627,-70.8008,42.5415,87.9785,-2.0325,-10.3326,0.6927,0.0498,-0.077,0.7153
1777290492.3860035,R_Foot,-0.1531,0.1292,10.9341,-12.085,6.5308,-3.0518,0.6592,-5.5316,-86.0504,0.0371,-0.0314,-0.6817,0.73
1777290492.3860035,Trunk,-1.5025,8.4458,-0.8661,16.2354,-4.8218,-11.5967,88.2422,3.2904,-16.8475,0.6854,0.1223,-0.0853,0.7128
1777290492.3860035,L_Femur,5.0244,8.1874,-1.3973,0.1831,-0.4272,-0.061,99.7119,-31.2067,-159.8785,0.2994,0.6946,-0.6473,-0.094
1777290492.3860035,L_Tibia,-0.4929,11.4939,-12.5802,13.855,55.8472,-6.5308,158.9996,-7.1521,-18.5944,0.9703,0.1473,-0.0899,0.1696
1777290492.3860035,L_Foot,-18.4037,-8.977,20.7771,-197.937,-56.8237,34.8511,70.8948,-2.2577,-83.6938,0.4426,0.3749,-0.5519,0.5991
1777290492.3860035,R_Femur,6.9911,15.1115,104.1729,412.1704,-1281.0059,-562.1338,4.2133,3.5156,-0.7031,0.0366,0.0309,-0.005,0.9988
1777290492.3860035,R_Tibia,-2.7515,15.9729,-7.1969,56.7627,-70.8008,42.5415,87.9785,-2.0325,-10.3326,0.6927,0.0498,-0.077,0.7153
1777290492.3860035,R_Foot,-0.1531,0.1292,10.9341,-12.085,6.5308,-3.0518,0.6592,-5.5316,-86.0504,0.0371,-0.0314,-0.6817,0.73
1777290492.3870041,Trunk,-1.5025,8.4458,-0.8661,16.2354,-4.8218,-11.5967,88.2422,3.2904,-16.8475,0.6854,0.1223,-0.0853,0.7128
1777290492.3870041,L_Femur,5.0292,8.1826,-1.3973,0.1831,-0.4272,-0.1221,99.7119,-31.2067,-159.8785,0.2994,0.6946,-0.6473,-0.094
1777290492.3870041,L_Tibia,-0.4929,11.4939,-12.5802,13.855,55.8472,-6.5308,158.9996,-7.1521,-18.5944,0.9703,0.1473,-0.0899,0.1696
1777290492.3870041,L_Foot,-18.4037,-8.977,20.7771,-197.937,-56.8237,34.8511,70.8948,-2.2577,-83.6938,0.4426,0.3749,-0.5519,0.5991
1777290492.3870041,R_Femur,6.9911,15.1115,104.1729,412.1704,-1281.0059,-562.1338,4.2133,3.5156,-0.7031,0.0366,0.0309,-0.005,0.9988
1777290492.3870041,R_Tibia,-2.7515,15.9729,-7.1969,56.7627,-70.8008,42.5415,87.9785,-2.0325,-10.3326,0.6927,0.0498,-0.077,0.7153
1777290492.3870041,R_Foot,-0.1531,0.1292,10.9341,-12.085,6.5308,-3.0518,0.6592,-5.5316,-86.0504,0.0371,-0.0314,-0.6817,0.73
1777290492.3870041,Trunk,-1.5025,8.4458,-0.8661,16.2354,-4.8218,-11.5967,88.2422,3.2904,-16.8475,0.6854,0.1223,-0.0853,0.7128
1777290492.3870041,L_Femur,5.0292,8.1826,-1.4021,0.1831,-0.3662,-0.1221,99.7119,-31.2067,-159.8785,0.2994,0.6946,-0.6473,-0.094
1777290492.3870041,L_Tibia,-0.4929,11.4939,-12.5802,13.855,55.8472,-6.5308,158.9996,-7.1521,-18.5944,0.9703,0.1473,-0.0899,0.1696
1777290492.3870041,L_Foot,-18.4037,-8.977,20.7771,-197.937,-56.8237,34.8511,70.8948,-2.2577,-83.6938,0.4426,0.3749,-0.5519,0.5991
1777290492.3870041,R_Femur,6.9911,15.1115,104.1729,412.1704,-1281.0059,-562.1338,4.2133,3.5156,-0.7031,0.0366,0.0309,-0.005,0.9988
1777290492.3870041,R_Tibia,-2.7515,15.9729,-7.1969,56.7627,-70.8008,42.5415,87.9785,-2.0325,-10.3326,0.6927,0.0498,-0.077,0.7153
1777290492.3870041,R_Foot,-0.1531,0.1292,10.9341,-12.085,6.5308,-3.0518,0.6592,-5.5316,-86.0504,0.0371,-0.0314,-0.6817,0.73
1777290492.3870041,Trunk,-1.5025,8.4458,-0.8661,16.2354,-4.8218,-11.5967,88.2422,3.2904,-16.8475,0.6854,0.1223,-0.0853,0.7128
1777290492.3870041,L_Femur,5.0292,8.1826,-1.3973,0.1831,-0.4272,-0.061,99.7119,-31.2067,-159.8785,0.2994,0.6946,-0.6473,-0.094
1777290492.3870041,L_Tibia,-0.4929,11.4939,-12.5802,13.855,55.8472,-6.5308,158.9996,-7.1521,-18.5944,0.9703,0.1473,-0.0899,0.1696
1777290492.3870041,L_Foot,-18.4037,-8.977,20.7771,-197.937,-56.8237,34.8511,70.8948,-2.2577,-83.6938,0.4426,0.3749,-0.5519,0.5991
1777290492.3870041,R_Femur,6.9911,15.1115,104.1729,412.1704,-1281.0059,-562.1338,4.2133,3.5156,-0.7031,0.0366,0.0309,-0.005,0.9988
1777290492.3870041,R_Tibia,-2.7515,15.9729,-7.1969,56.7627,-70.8008,42.5415,87.9785,-2.0325,-10.3326,0.6927,0.0498,-0.077,0.7153
1777290492.3870041,R_Foot,-0.1531,0.1292,10.9341,-12.085,6.5308,-3.0518,0.6592,-5.5316,-86.0504,0.0371,-0.0314,-0.6817,0.73
1777290492.3870041,Trunk,-1.5025,8.4458,-0.8661,16.2354,-4.8218,-11.5967,88.2422,3.2904,-16.8475,0.6854,0.1223,-0.0853,0.7128
1777290492.3870041,L_Femur,5.0292,8.1778,-1.3973,0.1831,-0.3662,-0.1221,99.7119,-31.2067,-159.8785,0.2994,0.6946,-0.6473,-0.094
1777290492.3870041,L_Tibia,-0.4929,11.4939,-12.5802,13.855,55.8472,-6.5308,158.9996,-7.1521,-18.5944,0.9703,0.1473,-0.0899,0.1696
1777290492.3870041,L_Foot,-18.4037,-8.977,20.7771,-197.937,-56.8237,34.8511,70.8948,-2.2577,-83.6938,0.4426,0.3749,-0.5519,0.5991
1777290492.3870041,R_Femur,6.9911,15.1115,104.1729,412.1704,-1281.0059,-562.1338,4.2133,3.5156,-0.7031,0.0366,0.0309,-0.005,0.9988
1777290492.3870041,R_Tibia,-2.7515,15.9729,-7.1969,56.7627,-70.8008,42.5415,87.9785,-2.0325,-10.3326,0.6927,0.0498,-0.077,0.7153
1777290492.3870041,R_Foot,-0.1531,0.1292,10.9341,-12.085,6.5308,-3.0518,0.6592,-5.5316,-86.0504,0.0371,-0.0314,-0.6817,0.73
1777290492.4546435,Trunk,-1.5025,8.4458,-0.8661,16.2354,-4.8218,-11.5967,88.2422,3.2904,-16.8475,0.6854,0.1223,-0.0853,0.7128
1777290492.4546435,L_Femur,5.0292,8.1826,-1.4021,0.1221,-0.3662,-0.1221,99.7119,-31.2067,-159.8785,0.2994,0.6946,-0.6473,-0.094
1777290492.4546435,L_Tibia,-0.4929,11.4939,-12.5802,13.855,55.8472,-6.5308,158.9996,-7.1521,-18.5944,0.9703,0.1473,-0.0899,0.1696
1777290492.4546435,L_Foot,-18.4037,-8.977,20.7771,-197.937,-56.8237,34.8511,70.8948,-2.2577,-83.6938,0.4426,0.3749,-0.5519,0.5991
1777290492.4546435,R_Femur,6.9911,15.1115,104.1729,412.1704,-1281.0059,-562.1338,4.2133,3.5156,-0.7031,0.0366,0.0309,-0.005,0.9988
1777290492.4546435,R_Tibia,-2.7515,15.9729,-7.1969,56.7627,-70.8008,42.5415,87.9785,-2.0325,-10.3326,0.6927,0.0498,-0.077,0.7153
1777290492.4546435,R_Foot,-0.1531,0.1292,10.9341,-12.085,6.5308,-3.0518,0.6592,-5.5316,-86.0504,0.0371,-0.0314,-0.6817,0.73
1777290492.4546435,Trunk,-1.5025,8.4458,-0.8661,16.2354,-4.8218,-11.5967,88.2422,3.2904,-16.8475,0.6854,0.1223,-0.0853,0.7128
1777290492.4546435,L_Femur,5.0244,8.1826,-1.3973,0.2441,-0.3662,-0.1221,99.7119,-31.2067,-159.8785,0.2994,0.6946,-0.6473,-0.094
1777290492.4546435,L_Tibia,-0.4929,11.4939,-12.5802,13.855,55.8472,-6.5308,158.9996,-7.1521,-18.5944,0.9703,0.1473,-0.0899,0.1696
1777290492.4546435,L_Foot,-18.4037,-8.977,20.7771,-197.937,-56.8237,34.8511,70.8948,-2.2577,-83.6938,0.4426,0.3749,-0.5519,0.5991
1777290492.4546435,R_Femur,6.9911,15.1115,104.1729,412.1704,-1281.0059,-562.1338,4.2133,3.5156,-0.7031,0.0366,0.0309,-0.005,0.9988
1777290492.4546435,R_Tibia,-2.7515,15.9729,-7.1969,56.7627,-70.8008,42.5415,87.9785,-2.0325,-10.3326,0.6927,0.0498,-0.077,0.7153
1777290492.4546435,R_Foot,-0.1531,0.1292,10.9341,-12.085,6.5308,-3.0518,0.6592,-5.5316,-86.0504,0.0371,-0.0314,-0.6817,0.73
1777290492.4557793,Trunk,-1.5025,8.4458,-0.8661,16.2354,-4.8218,-11.5967,88.2422,3.2904,-16.8475,0.6854,0.1223,-0.0853,0.7128
1777290492.4557793,L_Femur,5.0292,8.1826,-1.4021,0.1831,-0.3662,-0.1221,99.7119,-31.2067,-159.8785,0.2994,0.6946,-0.6473,-0.094
1777290492.4557793,L_Tibia,-0.4929,11.4939,-12.5802,13.855,55.8472,-6.5308,158.9996,-7.1521,-18.5944,0.9703,0.1473,-0.0899,0.1696
