Timestamp,Vicon_Frame_Num,IsDuplicate,Vicon_Root_X,Vicon_Root_Y,Vicon_Root_Z,Vicon_L_Femur_X,Vicon_L_Femur_Y,Vicon_L_Femur_Z,Vicon_L_Tibia_X,Vicon_L_Tibia_Y,Vicon_L_Tibia_Z,Vicon_L_Foot_X,Vicon_L_Foot_Y,Vicon_L_Foot_Z,Vicon_L_Toe_X,Vicon_L_Toe_Y,Vicon_L_Toe_Z,Vicon_R_Femur_X,Vicon_R_Femur_Y,Vicon_R_Femur_Z,Vicon_R_Tibia_X,Vicon_R_Tibia_Y,Vicon_R_Tibia_Z,Vicon_R_Foot_X,Vicon_R_Foot_Y,Vicon_R_Foot_Z,Vicon_R_Toe_X,Vicon_R_Toe_Y,Vicon_R_Toe_Z,Vicon_LASI_X,Vicon_LASI_Y,Vicon_LASI_Z,Vicon_RASI_X,Vicon_RASI_Y,Vicon_RASI_Z,Vicon_LPSI_X,Vicon_LPSI_Y,Vicon_LPSI_Z,Vicon_RPSI_X,Vicon_RPSI_Y,Vicon_RPSI_Z,Vicon_LTHI_X,Vicon_LTHI_Y,Vicon_LTHI_Z,Vicon_LKNE_X,Vicon_LKNE_Y,Vicon_LKNE_Z,Vicon_LTIB_X,Vicon_LTIB_Y,Vicon_LTIB_Z,Vicon_LANK_X,Vicon_LANK_Y,Vicon_LANK_Z,Vicon_LHEE_X,Vicon_LHEE_Y,Vicon_LHEE_Z,Vicon_LTOE_X,Vicon_LTOE_Y,Vicon_LTOE_Z,Vicon_RTHI_X,Vicon_RTHI_Y,Vicon_RTHI_Z,Vicon_RKNE_X,Vicon_RKNE_Y,Vicon_RKNE_Z,Vicon_RTIB_X,Vicon_RTIB_Y,Vicon_RTIB_Z,Vicon_RANK_X,Vicon_RANK_Y,Vicon_RANK_Z,Vicon_RHEE_X,Vicon_RHEE_Y,Vicon_RHEE_Z,Vicon_RTOE_X,Vicon_RTOE_Y,Vicon_RTOE_Z,IMU_Trunk_Acc_X,IMU_Trunk_Acc_Y,IMU_Trunk_Acc_Z,IMU_Trunk_Gyro_X,IMU_Trunk_Gyro_Y,IMU_Trunk_Gyro_Z,IMU_Trunk_Roll,IMU_Trunk_Pitch,IMU_Trunk_Yaw,IMU_Trunk_Quat_x,IMU_Trunk_Quat_y,IMU_Trunk_Quat_z,IMU_Trunk_Quat_w,IMU_L_Femur_Acc_X,IMU_L_Femur_Acc_Y,IMU_L_Femur_Acc_Z,IMU_L_Femur_Gyro_X,IMU_L_Femur_Gyro_Y,IMU_L_Femur_Gyro_Z,IMU_L_Femur_Roll,IMU_L_Femur_Pitch,IMU_L_Femur_Yaw,IMU_L_Femur_Quat_x,IMU_L_Femur_Quat_y,IMU_L_Femur_Quat_z,IMU_L_Femur_Quat_w,IMU_L_Tibia_Acc_X,IMU_L_Tibia_Acc_Y,IMU_L_Tibia_Acc_Z,IMU_L_Tibia_Gyro_X,IMU_L_Tibia_Gyro_Y,IMU_L_Tibia_Gyro_Z,IMU_L_Tibia_Roll,IMU_L_Tibia_Pitch,IMU_L_Tibia_Yaw,IMU_L_Tibia_Quat_x,IMU_L_Tibia_Quat_y,IMU_L_Tibia_Quat_z,IMU_L_Tibia_Quat_w,IMU_L_Foot_Acc_X,IMU_L_Foot_Acc_Y,IMU_L_Foot_Acc_Z,IMU_L_Foot_Gyro_X,IMU_L_Foot_Gyro_Y,IMU_L_Foot_Gyro_Z,IMU_L_Foot_Roll,IMU_L_Foot_Pitch,IMU_L_Foot_Yaw,IMU_L_Foot_Quat_x,IMU_L_Foot_Quat_y,IMU_L_Foot_Quat_z,IMU_L_Foot_Quat_w,IMU_R_Femur_Acc_X,IMU_R_Femur_Acc_Y,IMU_R_Femur_Acc_Z,IMU_R_Femur_Gyro_X,IMU_R_Femur_Gyro_Y,IMU_R_Femur_Gyro_Z,IMU_R_Femur_Roll,IMU_R_Femur_Pitch,IMU_R_Femur_Yaw,IMU_R_Femur_Quat_x,IMU_R_Femur_Quat_y,IMU_R_Femur_Quat_z,IMU_R_Femur_Quat_w,IMU_R_Tibia_Acc_X,IMU_R_Tibia_Acc_Y,IMU_R_Tibia_Acc_Z,IMU_R_Tibia_Gyro_X,IMU_R_Tibia_Gyro_Y,IMU_R_Tibia_Gyro_Z,IMU_R_Tibia_Roll,IMU_R_Tibia_Pitch,IMU_R_Tibia_Yaw,IMU_R_Tibia_Quat_x,IMU_R_Tibia_Quat_y,IMU_R_Tibia_Quat_z,IMU_R_Tibia_Quat_w,IMU_R_Foot_Acc_X,IMU_R_Foot_Acc_Y,IMU_R_Foot_Acc_Z,IMU_R_Foot_Gyro_X,IMU_R_Foot_Gyro_Y,IMU_R_Foot_Gyro_Z,IMU_R_Foot_Roll,IMU_R_Foot_Pitch,IMU_R_Foot_Yaw,IMU_R_Foot_Quat_x,IMU_R_Foot_Quat_y,IMU_R_Foot_Quat_z,IMU_R_Foot_Quat_w,Planter_Left_0,Planter_Left_1,Planter_Left_2,Planter_Left_3,Planter_Left_4,Planter_Left_5,Planter_Left_6,Planter_Left_7,Planter_Left_8,Planter_Left_9,Planter_Left_10,Planter_Left_11,Planter_Left_12,Planter_Left_13,Planter_Left_14,Planter_Left_15,Planter_Left_16,Planter_Left_17,Planter_Right_0,Planter_Right_1,Planter_Right_2,Planter_Right_3,Planter_Right_4,Planter_Right_5,Planter_Right_6,Planter_Right_7,Planter_Right_8,Planter_Right_9,Planter_Right_10,Planter_Right_11,Planter_Right_12,Planter_Right_13,Planter_Right_14,Planter_Right_15,Planter_Right_16,Planter_Right_17
1776955215.3095434,8,0,946.3901242524763,445.31330728875093,862.2406783069524,941.1345255519412,440.9342269319668,867.1560852576872,934.7193064414581,447.08072177607175,837.0381785003999,942.0564763768728,427.9941865001144,813.5660507489908,935.9045037401897,431.8204670568583,799.674769561096,951.6457229530114,449.69238764553506,857.3252713562176,955.9224465688472,472.8631426359391,836.5683811548124,959.2785893373502,492.56174404455163,812.6984820988462,958.543228775712,499.0351565214542,798.4503573446603,734.0930786132812,597.06396484375,1122.40478515625,979.9168701171875,651.9832763671875,1123.2713623046875,797.343505859375,422.34661865234375,1148.6024169921875,956.7264404296875,441.2750549316406,1150.068115234375,0.0,0.0,0.0,666.3309326171875,660.2171630859375,638.1173095703125,673.6568603515625,554.7892456054688,504.4896545410156,708.60546875,476.9604797363281,321.9507751464844,810.3651123046875,389.63031005859375,272.97308349609375,665.103515625,604.5741577148438,197.00527954101562,1028.233154296875,608.5646362304688,795.1868896484375,975.2868041992188,563.265869140625,565.1546020507812,987.6282958984375,537.9593505859375,431.21710205078125,943.28857421875,484.27447509765625,227.1598663330078,886.6209716796875,397.05157470703125,168.27481079101562,914.2926635742188,662.3197021484375,176.0111846923828,0.0,0.0,0.0,0.0,0.0,0.0,0.0,0.0,0.0,0.0,0.0,0.0,1.0,0.0,0.0,0.0,0.0,0.0,0.0,0.0,0.0,0.0,0.0,0.0,0.0,1.0,0.0,0.0,0.0,0.0,0.0,0.0,0.0,0.0,0.0,0.0,0.0,0.0,1.0,0.0,0.0,0.0,0.0,0.0,0.0,0.0,0.0,0.0,0.0,0.0,0.0,1.0,0.0,0.0,0.0,0.0,0.0,0.0,0.0,0.0,0.0,0.0,0.0,0.0,1.0,0.0,0.0,0.0,0.0,0.0,0.0,0.0,0.0,0.0,0.0,0.0,0.0,1.0,0.0,0.0,0.0,0.0,0.0,0.0,0.0,0.0,0.0,0.0,0.0,0.0,1.0,0,0,0,0,0,0,0,0,0,0,0,0,0,0,0,0,0,0,0,0,0,0,0,0,0,0,0,0,0,0,0,0,0,0,0,0
1776955215.3357098,10,0,961.7349649906462,425.372199016585,859.129662555681,956.5343084854983,420.957493196033,864.0715683011416,944.3219219506143,436.7918464159054,839.8609587306316,957.4616264637954,426.96313520840437,813.4069368438595,950.942048285032,431.68327811154717,799.9655740183318,966.9356214957941,429.786904837137,854.1877568102203,968.3781629845688,453.8470859958668,834.0619152326108,969.1915756408831,473.9961769057449,810.3464525966848,968.2421948371185,480.5429519326526,796.1445760974656,733.176025390625,594.4767456054688,1123.1812744140625,978.30810546875,651.4085083007812,1123.0718994140625,797.93359375,420.3654479980469,1149.81982421875,957.0291748046875,440.6064147949219,1151.09619140625,669.2909545898438,546.7326049804688,876.1043701171875,666.0995483398438,661.1696166992188,639.6923828125,670.5703735351562,567.6721801757812,495.65057373046875,701.69677734375,508.471435546875,305.9416198730469,802.8363037109375,427.1777648925781,245.8454132080078,654.8767700195312,648.0711059570312,194.1134033203125,1027.5665283203125,603.0709228515625,794.6435546875,975.7847290039062,552.1996459960938,565.1895141601562,987.9794921875,525.1334228515625,431.3341979980469,943.401123046875,469.45587158203125,227.7238006591797,886.9617309570312,382.0417175292969,168.64666748046875,914.7011108398438,647.2212524414062,176.0158233642578,0.0,0.0,0.0,0.0,0.0,0.0,0.0,0.0,0.0,0.0,0.0,0.0,1.0,0.0,0.0,0.0,0.0,0.0,0.0,0.0,0.0,0.0,0.0,0.0,0.0,1.0,0.0,0.0,0.0,0.0,0.0,0.0,0.0,0.0,0.0,0.0,0.0,0.0,1.0,0.0,0.0,0.0,0.0,0.0,0.0,0.0,0.0,0.0,0.0,0.0,0.0,1.0,0.0,0.0,0.0,0.0,0.0,0.0,0.0,0.0,0.0,0.0,0.0,0.0,1.0,0.0,0.0,0.0,0.0,0.0,0.0,0.0,0.0,0.0,0.0,0.0,0.0,1.0,0.0,0.0,0.0,0.0,0.0,0.0,0.0,0.0,0.0,0.0,0.0,0.0,1.0,0,0,0,0,0,0,0,0,0,0,0,0,0,0,0,0,0,0,0,0,0,0,0,0,0,0,0,0,0,0,0,0,0,0,0,0
1776955215.3493304,12,0,956.7080481019781,418.2954801832006,852.8731904710964,951.4693704156324,413.91782805080226,857.8078947043675,939.674136304541,431.04428189069586,834.2796186587387,953.2340879831368,422.9906234091633,807.440524631239,946.722557473931,428.66169115660915,794.3678873956183,961.9467257883238,422.67313231559893,847.9384862378254,963.9938371285609,446.89722717533357,828.0632426938579,965.2838333396587,466.59647553146345,803.9936312167514,964.4113919263417,472.979733855523,789.7126038583564,732.0668334960938,592.3433837890625,1123.44970703125,976.7190551757812,650.8355102539062,1122.50146484375,797.9684448242188,418.7777404785156,1150.667236328125,956.8276977539062,440.0626220703125,1151.81396484375,668.5748901367188,542.5480346679688,876.575927734375,666.3823852539062,660.0780029296875,639.84375,667.0828857421875,580.4949951171875,486.0296325683594,693.8218994140625,541.8032836914062,290.6372375488281,794.0042724609375,466.9574890136719,220.63253784179688,645.3657836914062,692.3195190429688,192.74403381347656,1026.8360595703125,597.2372436523438,794.0104370117188,976.2810668945312,540.8197021484375,565.2760620117188,988.34375,512.060791015625,431.48992919921875,943.4918212890625,454.5745544433594,228.27203369140625,887.2785034179688,367.0089111328125,168.99722290039062,915.1239624023438,632.1217041015625,176.03045654296875,0.0,0.0,0.0,0.0,0.0,0.0,0.0,0.0,0.0,0.0,0.0,0.0,1.0,0.0,0.0,0.0,0.0,0.0,0.0,0.0,0.0,0.0,0.0,0.0,0.0,1.0,0.0,0.0,0.0,0.0,0.0,0.0,0.0,0.0,0.0,0.0,0.0,0.0,1.0,0.0,0.0,0.0,0.0,0.0,0.0,0.0,0.0,0.0,0.0,0.0,0.0,1.0,0.0,0.0,0.0,0.0,0.0,0.0,0.0,0.0,0.0,0.0,0.0,0.0,1.0,0.0,0.0,0.0,0.0,0.0,0.0,0.0,0.0,0.0,0.0,0.0,0.0,1.0,0.0,0.0,0.0,0.0,0.0,0.0,0.0,0.0,0.0,0.0,0.0,0.0,1.0,0,0,0,0,0,0,0,0,0,0,0,0,0,0,0,0,0,0,0,0,0,0,0,0,0,0,0,0,0,0,0,0,0,0,0,0
1776955215.3718207,14,0,951.7729287613088,412.8624685821469,846.8257028045722,946.4837728723737,408.52315089905494,851.7403787848704,935.0808696162052,426.7813446625994,828.8791692725086,949.170115818945,420.6297837206212,801.8103290296076,942.6971610060044,427.1869747295222,789.1391418190502,957.0620846502438,417.20178626523887,841.911026824274,959.753222796513,441.48338342203067,822.1832657364631,961.5494277088077,460.64174963401217,797.7128483987748,960.7517049434559,466.8255391569431,783.3399826863184,730.773681640625,590.71240234375,1123.219970703125,975.1511840820312,650.2871704101562,1121.5614013671875,797.4342651367188,417.6039123535156,1151.111083984375,956.1167602539062,439.64520263671875,1152.1881103515625,667.4065551757812,538.6455688476562,876.2694702148438,667.0198364257812,657.3260498046875,638.700927734375,663.2354736328125,593.2308959960938,476.3845520019531,685.425537109375,576.2694702148438,277.2516784667969,783.77099609375,507.639404296875,198.5165252685547,637.7872924804688,736.65966796875,194.24288940429688,1026.0025634765625,591.2251586914062,793.275146484375,976.720703125,529.3937377929688,565.3661499023438,988.6910400390625,498.9891052246094,431.6646728515625,943.5864868164062,439.6868591308594,228.8427734375,887.6002807617188,351.9367980957031,169.36520385742188,915.573486328125,617.013427734375,176.0426025390625,0.0,0.0,0.0,0.0,0.0,0.0,0.0,0.0,0.0,0.0,0.0,0.0,1.0,0.0,0.0,0.0,0.0,0.0,0.0,0.0,0.0,0.0,0.0,0.0,0.0,1.0,0.0,0.0,0.0,0.0,0.0,0.0,0.0,0.0,0.0,0.0,0.0,0.0,1.0,0.0,0.0,0.0,0.0,0.0,0.0,0.0,0.0,0.0,0.0,0.0,0.0,1.0,0.0,0.0,0.0,0.0,0.0,0.0,0.0,0.0,0.0,0.0,0.0,0.0,1.0,0.0,0.0,0.0,0.0,0.0,0.0,0.0,0.0,0.0,0.0,0.0,0.0,1.0,0.0,0.0,0.0,0.0,0.0,0.0,0.0,0.0,0.0,0.0,0.0,0.0,1.0,0,0,0,0,0,0,0,0,0,0,0,0,0,0,0,0,0,0,0,0,0,0,0,0,0,0,0,0,0,0,0,0,0,0,0,0
1776955215.3964748,15,0,949.3926800446026,410.7182741420314,844.027605984922,944.0750367674054,406.39955098165086,848.9296655728956,932.8570087167294,425.1662732937446,826.3910604062092,947.2480151867013,420.01541919060395,799.2720945802532,940.809391215804,426.9907039894793,786.8083709553272,954.7103233217997,415.036997302412,839.1255463969485,957.7292711215879,439.3014168084316,819.4241088158271,959.7828369347255,458.15941149109756,794.7415324373442,959.0214488351418,464.2305863469798,780.3187723931054,730.0581665039062,590.0999755859375,1122.9248046875,974.371826171875,650.0306396484375,1120.9566650390625,796.9506225585938,417.178466796875,1151.1715087890625,955.569580078125,439.4848327636719,1152.235107421875,666.6547241210938,536.824462890625,875.8356323242188,667.4173583984375,655.4886474609375,637.707275390625,661.215576171875,599.5125122070312,471.8050842285156,681.2076416015625,593.5728759765625,271.596435546875,778.1190795898438,527.8161010742188,188.87506103515625,635.1231079101562,758.5435791015625,196.37718200683594,1025.5338134765625,588.2090454101562,792.86279296875,976.8959350585938,523.7479858398438,565.3967895507812,988.842041015625,492.5237121582031,431.75408935546875,943.6380615234375,432.2555236816406,229.15023803710938,887.7693481445312,344.3836364746094,169.56393432617188,915.8057861328125,609.4537353515625,176.03993225097656,0.0,0.0,0.0,0.0,0.0,0.0,0.0,0.0,0.0,0.0,0.0,0.0,1.0,0.0,0.0,0.0,0.0,0.0,0.0,0.0,0.0,0.0,0.0,0.0,0.0,1.0,0.0,0.0,0.0,0.0,0.0,0.0,0.0,0.0,0.0,0.0,0.0,0.0,1.0,0.0,0.0,0.0,0.0,0.0,0.0,0.0,0.0,0.0,0.0,0.0,0.0,1.0,0.0,0.0,0.0,0.0,0.0,0.0,0.0,0.0,0.0,0.0,0.0,0.0,1.0,0.0,0.0,0.0,0.0,0.0,0.0,0.0,0.0,0.0,0.0,0.0,0.0,1.0,0.0,0.0,0.0,0.0,0.0,0.0,0.0,0.0,0.0,0.0,0.0,0.0,1.0,0,0,0,0,0,0,0,0,0,0,0,0,0,0,0,0,0,0,0,0,0,0,0,0,0,0,0,0,0,0,0,0,0,0,0,0
1776955215.4075444,17,0,944.8776661538676,407.42420887711813,839.1182410740541,939.4979132464115,403.15084995775004,843.9922076480618,928.6272801639701,422.82864724227915,822.0687869988867,943.6825376393906,419.76395719879804,794.9944897787154,937.3486406215143,427.51983986252554,782.945302422881,950.2574190613237,411.6975677964862,834.2442745000465,953.9220946633874,435.8325539453888,814.4934431537793,956.4834805430042,454.04633669591163,789.3783462403202,955.7924527825365,459.8692483588269,774.8500612877623,728.4834594726562,589.3052978515625,1121.99658203125,972.8064575195312,649.5728149414062,1119.494873046875,795.5486450195312,416.660888671875,1150.954833984375,954.0939331054688,439.2646789550781,1152.0291748046875,664.8299560546875,533.5401611328125,874.4528198242188,668.2635498046875,651.2785034179688,635.0386352539062,657.1212158203125,611.6875610351562,463.5574645996094,673.138671875,627.3212890625,262.71875,765.944091796875,566.7100830078125,172.72479248046875,632.6513671875,800.74853515625,203.54441833496094,1024.4637451171875,582.2732543945312,791.9320068359375,977.0989379882812,512.7445068359375,565.4032592773438,989.053466796875,479.84613037109375,431.933837890625,943.74267578125,417.4419250488281,229.8382568359375,888.1217651367188,329.2431640625,169.99159240722656,916.2735595703125,594.32177734375,176.0039825439453,0.0,0.0,0.0,0.0,0.0,0.0,0.0,0.0,0.0,0.0,0.0,0.0,1.0,0.0,0.0,0.0,0.0,0.0,0.0,0.0,0.0,0.0,0.0,0.0,0.0,1.0,0.0,0.0,0.0,0.0,0.0,0.0,0.0,0.0,0.0,0.0,0.0,0.0,1.0,0.0,0.0,0.0,0.0,0.0,0.0,0.0,0.0,0.0,0.0,0.0,0.0,1.0,0.0,0.0,0.0,0.0,0.0,0.0,0.0,0.0,0.0,0.0,0.0,0.0,1.0,0.0,0.0,0.0,0.0,0.0,0.0,0.0,0.0,0.0,0.0,0.0,0.0,1.0,0.0,0.0,0.0,0.0,0.0,0.0,0.0,0.0,0.0,0.0,0.0,0.0,1.0,0,0,0,0,0,0,0,0,0,0,0,0,0,0,0,0,0,0,0,0,0,0,0,0,0,0,0,0,0,0,0,0,0,0,0,0
1776955215.432134,20,0,938.7513853833927,404.2289297684072,833.8597543136243,933.2759101668792,400.0390736949579,838.6995027782344,922.8893327428248,420.8419729210718,817.5954478184158,939.0145150954951,420.9576377401185,790.967721884293,932.9310278488105,429.7088181402667,779.4845643139181,944.2268605999063,408.41878584185656,829.0200058490142,948.7826210183923,432.1453736107602,808.9621689168164,952.0511900461236,449.3293507391524,783.2114784553581,951.4611681057514,454.7384655975354,768.5197040961708,725.7284545898438,589.230712890625,1119.868408203125,970.367919921875,649.0972290039062,1116.7581787109375,792.3773803710938,416.7362060546875,1149.77734375,950.9484252929688,439.2067565917969,1150.9346923828125,661.4004516601562,529.9622192382812,871.3165893554688,669.384521484375,644.8729858398438,629.8851318359375,651.435791015625,628.02099609375,454.10577392578125,663.2266845703125,672.1548461914062,255.26588439941406,747.2777099609375,617.6856689453125,156.4942626953125,636.5145263671875,856.1273803710938,219.6543426513672,1022.4218139648438,573.94091796875,790.2198486328125,976.8319091796875,497.3375549316406,565.2352905273438,988.9793090820312,461.6952209472656,432.2341613769531,943.84130859375,395.400390625,231.146484375,888.6229858398438,306.4597473144531,170.6687469482422,916.9615478515625,571.5902099609375,175.88397216796875,0.0,0.0,0.0,0.0,0.0,0.0,0.0,0.0,0.0,0.0,0.0,0.0,1.0,0.0,0.0,0.0,0.0,0.0,0.0,0.0,0.0,0.0,0.0,0.0,0.0,1.0,0.0,0.0,0.0,0.0,0.0,0.0,0.0,0.0,0.0,0.0,0.0,0.0,1.0,0.0,0.0,0.0,0.0,0.0,0.0,0.0,0.0,0.0,0.0,0.0,0.0,1.0,0.0,0.0,0.0,0.0,0.0,0.0,0.0,0.0,0.0,0.0,0.0,0.0,1.0,0.0,0.0,0.0,0.0,0.0,0.0,0.0,0.0,0.0,0.0,0.0,0.0,1.0,0.0,0.0,0.0,0.0,0.0,0.0,0.0,0.0,0.0,0.0,0.0,0.0,1.0,0,0,0,0,0,0,0,0,0,0,0,0,0,0,0,0,0,0,0,0,0,0,0,0,0,0,0,0,0,0,0,0,0,0,0,0
1776955215.4453049,21,0,936.8456238258892,403.3826782209541,832.6697509782649,931.337028552206,399.2254282194615,837.5000241071277,921.1107802530105,420.34070674251114,816.6291927589996,937.5797560409026,421.4476829108383,790.2356686869745,931.6015450016084,430.47167978581916,778.9094444073405,942.3542190995724,407.53992822244675,827.8394778494021,947.1732412063689,431.09000076927674,807.6356700024139,950.6520051616079,447.9277597743792,781.6845862926763,950.0963018304705,453.1932572652065,766.9393967976434,724.6935424804688,589.5067749023438,1119.001220703125,969.50634765625,649.0171508789062,1115.732421875,791.0460815429688,416.9896240234375,1149.1668701171875,949.6608276367188,439.2674865722656,1150.359619140625,660.1210327148438,529.2705688476562,870.0637817382812,669.6621704101562,643.0289306640625,628.0066528320312,649.8377685546875,632.6608276367188,451.7237243652344,660.8139038085938,684.5698852539062,253.99154663085938,741.6735229492188,631.6707763671875,153.0640411376953,639.5791625976562,871.3207397460938,225.42103576660156,1021.5925903320312,571.3971557617188,789.554443359375,976.5342407226562,492.5784606933594,565.1304931640625,988.8042602539062,455.9173278808594,432.3595275878906,943.8333740234375,388.11260986328125,231.68441772460938,888.7577514648438,298.8517761230469,170.8991241455078,917.185791015625,564.003173828125,175.8378448486328,0.0,0.0,0.0,0.0,0.0,0.0,0.0,0.0,0.0,0.0,0.0,0.0,1.0,0.0,0.0,0.0,0.0,0.0,0.0,0.0,0.0,0.0,0.0,0.0,0.0,1.0,0.0,0.0,0.0,0.0,0.0,0.0,0.0,0.0,0.0,0.0,0.0,0.0,1.0,0.0,0.0,0.0,0.0,0.0,0.0,0.0,0.0,0.0,0.0,0.0,0.0,1.0,0.0,0.0,0.0,0.0,0.0,0.0,0.0,0.0,0.0,0.0,0.0,0.0,1.0,0.0,0.0,0.0,0.0,0.0,0.0,0.0,0.0,0.0,0.0,0.0,0.0,1.0,0.0,0.0,0.0,0.0,0.0,0.0,0.0,0.0,0.0,0.0,0.0,0.0,1.0,0,0,0,0,0,0,0,0,0,0,0,0,0,0,0,0,0,0,0,0,0,0,0,0,0,0,0,0,0,0,0,0,0,0,0,0
1776955215.468385,23,0,933.118450934603,401.6107378306214,830.9824933705507,927.5444883059542,397.5257371811265,835.7994009129087,917.6574987935052,419.16478664532616,815.3049694933399,934.7390766183067,421.967249819995,789.4314971355395,928.9947201044131,431.4324922926128,778.3469837750707,938.6924135632516,405.69573848011635,826.1655858281928,943.975106853699,428.87216769332997,805.6480561750222,947.8254725483779,445.03929039431574,779.3256417669841,947.3432325339884,450.0175311043425,764.4784384187394,722.4284057617188,590.5,1117.103271484375,967.6681518554688,649.0089721679688,1113.5726318359375,787.9977416992188,417.8333435058594,1147.656982421875,946.7476196289062,439.5210876464844,1148.9140625,657.45703125,528.8375244140625,867.3742065429688,670.025634765625,640.1557006835938,624.2005615234375,647.3164672851562,640.3389892578125,447.826416015625,657.6159057617188,704.3926391601562,252.37884521484375,732.5970458984375,653.5863647460938,148.62229919433594,647.5406494140625,895.3615112304688,235.3759765625,1019.6627807617188,566.7741088867188,788.0755004882812,975.548095703125,483.739013671875,564.8572998046875,988.1657104492188,444.81500244140625,432.6864013671875,943.7078247070312,373.6401672363281,232.96466064453125,888.9452514648438,283.6336669921875,171.4081268310547,917.6276245117188,548.8212280273438,175.74630737304688,0.0,0.0,0.0,0.0,0.0,0.0,0.0,0.0,0.0,0.0,0.0,0.0,1.0,0.0,0.0,0.0,0.0,0.0,0.0,0.0,0.0,0.0,0.0,0.0,0.0,1.0,0.0,0.0,0.0,0.0,0.0,0.0,0.0,0.0,0.0,0.0,0.0,0.0,1.0,0.0,0.0,0.0,0.0,0.0,0.0,0.0,0.0,0.0,0.0,0.0,0.0,1.0,0.0,0.0,0.0,0.0,0.0,0.0,0.0,0.0,0.0,0.0,0.0,0.0,1.0,0.0,0.0,0.0,0.0,0.0,0.0,0.0,0.0,0.0,0.0,0.0,0.0,1.0,0.0,0.0,0.0,0.0,0.0,0.0,0.0,0.0,0.0,0.0,0.0,0.0,1.0,0,0,0,0,0,0,0,0,0,0,0,0,0,0,0,0,0,0,0,0,0,0,0,0,0,0,0,0,0,0,0,0,0,0,0,0
1776955215.494692,26,0,927.5561940899023,398.1084516214007,829.5807573629746,921.8813023113003,394.1541621426643,834.3888844394025,912.5838035379604,416.29396639390495,814.1550433107078,930.2976048653134,420.46744105485,788.8988752626941,924.9296938749978,430.3152102417865,777.9598690508187,933.2310858685044,402.06274110013715,824.7726302865467,939.0420861512584,424.74667007210087,803.8514834572377,943.3057549916941,439.9746312447061,777.0372894692634,942.9471667669529,444.53514486111914,762.0530306186508,718.4942016601562,593.0258178710938,1114.0645751953125,964.5159301757812,649.4475708007812,1110.2518310546875,782.54833984375,419.90216064453125,1144.839111328125,941.6010131835938,440.25140380859375,1146.1236572265625,653.4561767578125,530.83837890625,863.1923828125,670.0720825195312,638.3965454101562,618.7251586914062,645.4813232421875,647.3405151367188,443.1236267089844,656.7669067382812,720.2583618164062,250.085693359375,725.8287353515625,668.55712890625,146.35609436035156,661.3923950195312,914.0897216796875,241.2266082763672,1016.0025024414062,561.2918701171875,785.5049438476562,972.9570922851562,472.5311584472656,564.3179321289062,986.3796997070312,429.45684814453125,433.4790954589844,943.1338500976562,352.25238037109375,235.57223510742188,889.0236206054688,260.90966796875,172.67225646972656,918.2769775390625,526.1002807617188,175.54742431640625,0.0,0.0,0.0,0.0,0.0,0.0,0.0,0.0,0.0,0.0,0.0,0.0,1.0,0.0,0.0,0.0,0.0,0.0,0.0,0.0,0.0,0.0,0.0,0.0,0.0,1.0,0.0,0.0,0.0,0.0,0.0,0.0,0.0,0.0,0.0,0.0,0.0,0.0,1.0,0.0,0.0,0.0,0.0,0.0,0.0,0.0,0.0,0.0,0.0,0.0,0.0,1.0,0.0,0.0,0.0,0.0,0.0,0.0,0.0,0.0,0.0,0.0,0.0,0.0,1.0,0.0,0.0,0.0,0.0,0.0,0.0,0.0,0.0,0.0,0.0,0.0,0.0,1.0,0.0,0.0,0.0,0.0,0.0,0.0,0.0,0.0,0.0,0.0,0.0,0.0,1.0,0,0,0,0,0,0,0,0,0,0,0,0,0,0,0,0,0,0,0,0,0,0,0,0,0,0,0,0,0,0,0,0,0,0,0,0
1776955215.50754,28,0,923.5713296669618,395.05663464296117,828.9628355718829,917.81942288131,391.200540002401,833.7591873537882,908.9777441221934,413.47102079934973,813.4645293291234,926.8782575824711,417.5718152637835,788.3283845312656,921.7559201373465,427.49975478804555,777.3441886497527,929.3232364526136,398.91272928352134,824.1664837899776,935.4009614954388,421.3853700538816,803.093647776405,939.8531737315935,436.03720236343884,775.9906536824523,939.5918252280943,440.32910013844696,760.9252564520049,715.4863891601562,595.3192749023438,1112.097412109375,962.0760498046875,650.0679931640625,1108.152099609375,778.4122924804688,421.764892578125,1142.7706298828125,937.7162475585938,440.9678039550781,1143.98779296875,650.933837890625,533.9066162109375,860.5323486328125,669.7959594726562,638.9861450195312,615.439208984375,645.4515380859375,649.0960083007812,440.1455383300781,658.0858764648438,722.0756225585938,247.58447265625,725.2219848632812,666.4547729492188,146.79270935058594,669.8234252929688,915.826416015625,237.04397583007812,1013.0325317382812,558.8572387695312,783.6006469726562,970.4569091796875,466.824462890625,563.8858642578125,984.615478515625,420.32427978515625,434.3028869628906,942.45751953125,338.32806396484375,237.96324157714844,889.0198974609375,245.97166442871094,174.38101196289062,918.6986083984375,511.05780029296875,175.28443908691406,0.0,0.0,0.0,0.0,0.0,0.0,0.0,0.0,0.0,0.0,0.0,0.0,1.0,0.0,0.0,0.0,0.0,0.0,0.0,0.0,0.0,0.0,0.0,0.0,0.0,1.0,0.0,0.0,0.0,0.0,0.0,0.0,0.0,0.0,0.0,0.0,0.0,0.0,1.0,0.0,0.0,0.0,0.0,0.0,0.0,0.0,0.0,0.0,0.0,0.0,0.0,1.0,0.0,0.0,0.0,0.0,0.0,0.0,0.0,0.0,0.0,0.0,0.0,0.0,1.0,0.0,0.0,0.0,0.0,0.0,0.0,0.0,0.0,0.0,0.0,0.0,0.0,1.0,0.0,0.0,0.0,0.0,0.0,0.0,0.0,0.0,0.0,0.0,0.0,0.0,1.0,0,0,0,0,0,0,0,0,0,0,0,0,0,0,0,0,0,0,0,0,0,0,0,0,0,0,0,0,0,0,0,0,0,0,0,0
1776955215.5208244,29,0,921.482156654875,393.41097522255797,828.7003223848642,915.6946146967076,389.6042534516053,833.4932458564604,907.0891642808169,411.88300044734785,813.106328532252,925.0095344493508,415.6769679302259,787.9361712732762,920.0011600179054,425.6010325933727,776.8960621534034,927.2696986130424,397.21769699351063,823.907398913268,933.4653590899472,419.62351906485395,802.7977880426955,937.9924909005301,433.9981094459314,775.5590857677003,937.783682943368,438.15610878749925,760.4553668887248,713.8648071289062,596.6198120117188,1111.181884765625,960.73974609375,650.4730224609375,1107.1832275390625,776.2173461914062,422.8213806152344,1141.735107421875,935.65673828125,441.38677978515625,1142.8839111328125,649.7302856445312,535.8834228515625,859.295166015625,669.57177734375,639.746337890625,613.95068359375,645.6828002929688,649.2550659179688,438.656005859375,658.9971923828125,720.8563842773438,246.0133514404297,725.565185546875,662.4561767578125,147.42514038085938,673.3372802734375,914.1260375976562,232.76632690429688,1011.3997192382812,558.0795288085938,782.6127319335938,968.9922485351562,464.64361572265625,563.6500854492188,983.577880859375,416.1966552734375,434.8324890136719,942.0440063476562,331.53021240234375,239.4252166748047,889.0314331054688,238.61489868164062,175.67898559570312,918.902587890625,503.5793151855469,175.09808349609375,0.0,0.0,0.0,0.0,0.0,0.0,0.0,0.0,0.0,0.0,0.0,0.0,1.0,0.0,0.0,0.0,0.0,0.0,0.0,0.0,0.0,0.0,0.0,0.0,0.0,1.0,0.0,0.0,0.0,0.0,0.0,0.0,0.0,0.0,0.0,0.0,0.0,0.0,1.0,0.0,0.0,0.0,0.0,0.0,0.0,0.0,0.0,0.0,0.0,0.0,0.0,1.0,0.0,0.0,0.0,0.0,0.0,0.0,0.0,0.0,0.0,0.0,0.0,0.0,1.0,0.0,0.0,0.0,0.0,0.0,0.0,0.0,0.0,0.0,0.0,0.0,0.0,1.0,0.0,0.0,0.0,0.0,0.0,0.0,0.0,0.0,0.0,0.0,0.0,0.0,1.0,0,0,0,0,0,0,0,0,0,0,0,0,0,0,0,0,0,0,0,0,0,0,0,0,0,0,0,0,0,0,0,0,0,0,0,0
1776955215.5446966,31,0,917.1312642112297,390.16787423612703,828.2933379220764,911.273715297651,386.4580434888961,833.0771820369598,903.1313762634552,408.6622047643911,812.4204572324611,920.9537737526493,411.4536349667028,787.0503815951521,916.145216990788,421.3042206681245,775.8566946927291,922.9888131248083,393.87770498335794,823.5094938071929,929.4007372575961,416.2300509499796,802.4077734685903,934.0443867520763,430.0580744935505,774.9069924445748,933.9464743320574,433.9420713171677,759.7293817928711,710.3944702148438,599.4658203125,1109.571533203125,957.8223266601562,651.4423828125,1105.486572265625,771.6170654296875,425.13934326171875,1139.762939453125,931.3388671875,442.3181457519531,1140.69482421875,647.4144897460938,540.4926147460938,857.0951538085938,668.9443969726562,641.991455078125,611.3557739257812,646.321533203125,648.5435791015625,435.7899475097656,660.7713012695312,715.3695678710938,242.5322265625,726.6357421875,650.6123657226562,149.2788543701172,678.5157470703125,907.042724609375,221.44314575195312,1007.8875732421875,557.534912109375,780.6226196289062,965.7149047851562,461.9295654296875,563.148193359375,981.26611328125,409.08355712890625,436.1951904296875,941.1373901367188,318.4551086425781,243.0410614013672,889.1072998046875,224.2201690673828,179.47962951660156,919.2861938476562,488.70367431640625,174.63742065429688,0.0,0.0,0.0,0.0,0.0,0.0,0.0,0.0,0.0,0.0,0.0,0.0,1.0,0.0,0.0,0.0,0.0,0.0,0.0,0.0,0.0,0.0,0.0,0.0,0.0,1.0,0.0,0.0,0.0,0.0,0.0,0.0,0.0,0.0,0.0,0.0,0.0,0.0,1.0,0.0,0.0,0.0,0.0,0.0,0.0,0.0,0.0,0.0,0.0,0.0,0.0,1.0,0.0,0.0,0.0,0.0,0.0,0.0,0.0,0.0,0.0,0.0,0.0,0.0,1.0,0.0,0.0,0.0,0.0,0.0,0.0,0.0,0.0,0.0,0.0,0.0,0.0,1.0,0.0,0.0,0.0,0.0,0.0,0.0,0.0,0.0,0.0,0.0,0.0,0.0,1.0,0,0,0,0,0,0,0,0,0,0,0,0,0,0,0,0,0,0,0,0,0,0,0,0,0,0,0,0,0,0,0,0,0,0,0,0
1776955215.5707862,34,0,910.6521974399035,386.3257447069625,828.352294843819,904.692269980848,382.7453723876229,833.1082476086467,897.1308403693969,404.6873530745495,811.9564862562113,914.5527197172204,405.5780277757673,786.1736335970023,909.9565675437592,415.2156479326034,774.7086195903163,916.612124898959,389.90611702630207,823.5963420789913,923.2806121121046,412.3572112615198,802.679784320262,928.0099638222088,425.39980896147904,774.8123382528676,928.0809473279093,428.83708219456986,759.5272148537723,704.6881103515625,604.1182861328125,1107.9376220703125,952.8524169921875,653.125,1103.7615966796875,764.3289794921875,428.95556640625,1137.3438720703125,924.4771728515625,443.8176574707031,1137.7418212890625,643.98828125,548.1813354492188,854.7347412109375,667.5142211914062,646.3667602539062,608.6013793945312,646.6240234375,646.1104736328125,432.4027099609375,662.202880859375,702.8527221679688,237.70623779296875,727.6474609375,628.8751220703125,152.67965698242188,681.93505859375,890.8987426757812,203.54196166992188,1002.2404174804688,559.594970703125,777.8474731445312,960.3330688476562,462.9713134765625,562.4039306640625,977.5712280273438,402.2890319824219,439.2825012207031,939.9260864257812,301.0539855957031,250.76873779296875,889.2444458007812,203.84323120117188,189.0213165283203,919.7723388671875,466.5715637207031,173.9357147216797,0.0,0.0,0.0,0.0,0.0,0.0,0.0,0.0,0.0,0.0,0.0,0.0,1.0,0.0,0.0,0.0,0.0,0.0,0.0,0.0,0.0,0.0,0.0,0.0,0.0,1.0,0.0,0.0,0.0,0.0,0.0,0.0,0.0,0.0,0.0,0.0,0.0,0.0,1.0,0.0,0.0,0.0,0.0,0.0,0.0,0.0,0.0,0.0,0.0,0.0,0.0,1.0,0.0,0.0,0.0,0.0,0.0,0.0,0.0,0.0,0.0,0.0,0.0,0.0,1.0,0.0,0.0,0.0,0.0,0.0,0.0,0.0,0.0,0.0,0.0,0.0,0.0,1.0,0.0,0.0,0.0,0.0,0.0,0.0,0.0,0.0,0.0,0.0,0.0,0.0,1.0,0,0,0,0,0,0,0,0,0,0,0,0,0,0,0,0,0,0,0,0,0,0,0,0,0,0,0,0,0,0,0,0,0,0,0,0
1776955215.5946293,35,0,908.4733638343763,385.36877551416416,828.6695545639611,902.4942603167825,381.82397747353787,833.4280854234429,895.0906713478774,403.6578663931391,812.1092930662105,912.347782891432,403.9249264263105,786.2019301592687,907.8031351315695,413.47750519650145,774.6455769784142,914.4524673519701,388.91357355479045,823.9110237044794,921.1997482581922,411.44293324855875,803.1041764011009,925.9514830600541,424.2523619344541,775.1325796323476,926.0803229580642,427.5310747758488,759.8130389849612,702.6810913085938,605.7034912109375,1107.650634765625,951.057861328125,653.6842041015625,1103.45263671875,761.8331909179688,430.2646789550781,1136.74853515625,922.1177368164062,444.3004455566406,1136.9173583984375,642.7999267578125,550.7108154296875,854.2530517578125,666.9081420898438,647.8538818359375,608.0091552734375,646.3130493164062,645.1521606445312,431.66864013671875,662.2549438476562,698.1389770507812,236.47523498535156,727.6987915039062,621.498291015625,153.72708129882812,682.3071899414062,884.6908569335938,198.64730834960938,1000.338623046875,561.1107177734375,777.0592041015625,958.5533447265625,464.9291687011719,562.201416015625,976.3993530273438,401.35760498046875,440.6822509765625,939.669189453125,296.16412353515625,254.11817932128906,889.2335205078125,197.57418823242188,193.4537811279297,919.9144897460938,459.26422119140625,173.7543487548828,0.0,0.0,0.0,0.0,0.0,0.0,0.0,0.0,0.0,0.0,0.0,0.0,1.0,0.0,0.0,0.0,0.0,0.0,0.0,0.0,0.0,0.0,0.0,0.0,0.0,1.0,0.0,0.0,0.0,0.0,0.0,0.0,0.0,0.0,0.0,0.0,0.0,0.0,1.0,0.0,0.0,0.0,0.0,0.0,0.0,0.0,0.0,0.0,0.0,0.0,0.0,1.0,0.0,0.0,0.0,0.0,0.0,0.0,0.0,0.0,0.0,0.0,0.0,0.0,1.0,0.0,0.0,0.0,0.0,0.0,0.0,0.0,0.0,0.0,0.0,0.0,0.0,1.0,0.0,0.0,0.0,0.0,0.0,0.0,0.0,0.0,0.0,0.0,0.0,0.0,1.0,0,0,0,0,0,0,0,0,0,0,0,0,0,0,0,0,0,0,0,0,0,0,0,0,0,0,0,0,0,0,0,0,0,0,0,0
1776955215.6210399,39,0,901.7922095836336,384.8761944196384,832.2423663713774,895.7080892914616,381.4322735987032,836.9414915679519,888.6228708587403,402.7158241551233,814.9680326227219,905.3145399503413,400.9890338201073,788.7482490470443,900.8870403178144,410.12823560205317,776.8181559604241,907.8763298758056,388.3201152405736,827.543241174803,914.7379245124745,411.3565800640547,807.3377332617778,919.3911287811682,423.35614720871115,778.9929144926504,919.7258829418321,425.9425900643009,763.5445121069905,694.41796875,611.7447509765625,1107.91943359375,943.4820556640625,655.3944091796875,1103.6981201171875,751.7508544921875,435.2911071777344,1135.68603515625,912.5155639648438,445.79742431640625,1134.7813720703125,637.4905395507812,559.28759765625,853.9202270507812,664.07958984375,652.2254638671875,606.9907836914062,643.0304565429688,640.4384765625,430.862548828125,661.2647094726562,677.759033203125,234.0032501220703,727.1351928710938,592.5773315429688,156.43788146972656,682.9017944335938,857.6033325195312,187.3771514892578,993.2898559570312,571.1546630859375,775.19970703125,952.5270385742188,481.7095642089844,562.1530151367188,972.787841796875,406.0091857910156,448.7860107421875,939.8440551757812,283.6605529785156,272.1844177246094,888.5477294921875,178.05516052246094,219.72398376464844,920.6422119140625,431.15594482421875,173.1216583251953,0.0,0.0,0.0,0.0,0.0,0.0,0.0,0.0,0.0,0.0,0.0,0.0,1.0,0.0,0.0,0.0,0.0,0.0,0.0,0.0,0.0,0.0,0.0,0.0,0.0,1.0,0.0,0.0,0.0,0.0,0.0,0.0,0.0,0.0,0.0,0.0,0.0,0.0,1.0,0.0,0.0,0.0,0.0,0.0,0.0,0.0,0.0,0.0,0.0,0.0,0.0,1.0,0.0,0.0,0.0,0.0,0.0,0.0,0.0,0.0,0.0,0.0,0.0,0.0,1.0,0.0,0.0,0.0,0.0,0.0,0.0,0.0,0.0,0.0,0.0,0.0,0.0,1.0,0.0,0.0,0.0,0.0,0.0,0.0,0.0,0.0,0.0,0.0,0.0,0.0,1.0,0,0,0,0,0,0,0,0,0,0,0,0,0,0,0,0,0,0,0,0,0,0,0,0,0,0,0,0,0,0,0,0,0,0,0,0
1776955215.6467106,40,0,900.6383395693063,385.651646621051,833.839472763715,894.5283882056395,382.2215415766102,838.5151290472006,887.452876007901,403.32976089073156,816.3700856498311,904.0673925745122,401.2369942922232,790.1279660726713,899.653699802909,410.25188214938134,778.0985855273841,906.748290932973,389.08175166549177,829.1638164802293,913.6039247477917,412.27660538836676,809.1382880648213,918.2103241927657,424.1447666697417,780.7305689618626,918.5918312731,426.55066644856663,765.2541035428957,692.36083984375,613.0978393554688,1108.320556640625,941.565673828125,655.5926513671875,1104.1217041015625,749.2456665039062,436.4211730957031,1135.7607421875,910.1090698242188,445.9976806640625,1134.5751953125,635.9935302734375,560.8590698242188,854.1826171875,663.3390502929688,652.6077880859375,606.9541625976562,641.995361328125,638.7826538085938,431.05609130859375,660.983642578125,672.2521362304688,233.89881896972656,726.979736328125,585.3927612304688,156.7561798095703,683.1218872070312,850.4800415039062,186.2875518798828,991.7916259765625,574.4985961914062,775.164794921875,951.456787109375,488.0877380371094,562.4695434570312,972.241943359375,409.4178161621094,451.5345458984375,940.1556396484375,282.7023620605469,277.9137268066406,888.2048950195312,175.42835998535156,228.98745727539062,920.9354248046875,424.68902587890625,172.81997680664062,0.0,0.0,0.0,0.0,0.0,0.0,0.0,0.0,0.0,0.0,0.0,0.0,1.0,0.0,0.0,0.0,0.0,0.0,0.0,0.0,0.0,0.0,0.0,0.0,0.0,1.0,0.0,0.0,0.0,0.0,0.0,0.0,0.0,0.0,0.0,0.0,0.0,0.0,1.0,0.0,0.0,0.0,0.0,0.0,0.0,0.0,0.0,0.0,0.0,0.0,0.0,1.0,0.0,0.0,0.0,0.0,0.0,0.0,0.0,0.0,0.0,0.0,0.0,0.0,1.0,0.0,0.0,0.0,0.0,0.0,0.0,0.0,0.0,0.0,0.0,0.0,0.0,1.0,0.0,0.0,0.0,0.0,0.0,0.0,0.0,0.0,0.0,0.0,0.0,0.0,1.0,0,0,0,0,0,0,0,0,0,0,0,0,0,0,0,0,0,0,0,0,0,0,0,0,0,0,0,0,0,0,0,0,0,0,0,0
1776955215.6597676,43,0,898.3898645675442,390.4307614452948,840.4960268847835,892.2387401994077,387.0055245282884,845.1209927261347,885.0591965406417,407.4461973695374,822.3909291715894,901.6704064510952,404.5245568239071,796.2260214799318,897.2729235820366,413.1033302147531,783.8760548893931,904.5409889356807,393.85599836230125,835.8710610434324,911.3735163019404,417.52785894445685,816.4035925661734,915.8264624566584,429.1519044251676,787.8707429032754,916.3405520870639,431.0306238738898,772.3252931398406,686.4437866210938,616.5612182617188,1110.123291015625,936.0394897460938,655.3927001953125,1106.11962890625,741.8893432617188,439.29339599609375,1136.717041015625,902.986328125,446.0070495605469,1134.7518310546875,631.1311645507812,563.8287353515625,855.4561157226562,661.2055053710938,651.2508544921875,606.9235229492188,639.499755859375,631.6387329101562,431.8894958496094,660.6614379882812,654.5489501953125,234.17189025878906,726.835205078125,563.7205200195312,157.239501953125,684.071533203125,828.82666015625,184.9774932861328,988.2471313476562,585.6088256835938,776.3318481445312,949.5714721679688,511.4126892089844,564.7009887695312,971.4063720703125,424.6267395019531,461.6177673339844,941.0791625976562,285.5773010253906,297.6632080078125,886.7484741210938,175.9966278076172,264.4049377441406,922.17138671875,407.8475646972656,170.9293670654297,0.0,0.0,0.0,0.0,0.0,0.0,0.0,0.0,0.0,0.0,0.0,0.0,1.0,0.0,0.0,0.0,0.0,0.0,0.0,0.0,0.0,0.0,0.0,0.0,0.0,1.0,0.0,0.0,0.0,0.0,0.0,0.0,0.0,0.0,0.0,0.0,0.0,0.0,1.0,0.0,0.0,0.0,0.0,0.0,0.0,0.0,0.0,0.0,0.0,0.0,0.0,1.0,0.0,0.0,0.0,0.0,0.0,0.0,0.0,0.0,0.0,0.0,0.0,0.0,1.0,0.0,0.0,0.0,0.0,0.0,0.0,0.0,0.0,0.0,0.0,0.0,0.0,1.0,0.0,0.0,0.0,0.0,0.0,0.0,0.0,0.0,0.0,0.0,0.0,0.0,1.0,0,0,0,0,0,0,0,0,0,0,0,0,0,0,0,0,0,0,0,0,0,0,0,0,0,0,0,0,0,0,0,0,0,0,0,0
1776955215.6722593,44,0,898.0655845899781,392.8410704352984,843.3165223381394,891.8890804701215,389.4136081084836,847.9058781555967,884.6372864762517,409.5760133914424,824.951322189058,901.3245763370111,406.45597053347313,798.8578294686993,896.9246754680858,414.867423918754,786.3941539452652,904.2420887098348,396.2685327621132,838.7271665206821,911.0682592124326,420.0869082282608,819.4369843295298,915.4661102389003,431.7020191602307,790.8919536399856,916.0214825620161,433.4178698384674,775.3291036023065,684.6024169921875,617.4832763671875,1110.8626708984375,934.3258056640625,655.034423828125,1106.9803466796875,739.5162963867188,440.04168701171875,1137.2430419921875,900.6683959960938,445.78955078125,1135.056640625,629.4268188476562,564.2000122070312,855.9534301757812,660.5411987304688,649.8826904296875,606.8662109375,638.9987182617188,628.3892822265625,432.1243896484375,660.764892578125,648.255126953125,234.32826232910156,726.905029296875,556.4639282226562,157.32766723632812,684.4243774414062,821.5900268554688,184.80441284179688,987.4153442382812,589.4290771484375,777.164794921875,949.3773803710938,520.2056884765625,565.9619750976562,971.3095092773438,431.0750427246094,465.5550537109375,941.1569213867188,288.3533630371094,304.91644287109375,886.0254516601562,179.40072631835938,278.5008544921875,922.6759033203125,403.3551025390625,169.9739227294922,0.0,0.0,0.0,0.0,0.0,0.0,0.0,0.0,0.0,0.0,0.0,0.0,1.0,0.0,0.0,0.0,0.0,0.0,0.0,0.0,0.0,0.0,0.0,0.0,0.0,1.0,0.0,0.0,0.0,0.0,0.0,0.0,0.0,0.0,0.0,0.0,0.0,0.0,1.0,0.0,0.0,0.0,0.0,0.0,0.0,0.0,0.0,0.0,0.0,0.0,0.0,1.0,0.0,0.0,0.0,0.0,0.0,0.0,0.0,0.0,0.0,0.0,0.0,0.0,1.0,0.0,0.0,0.0,0.0,0.0,0.0,0.0,0.0,0.0,0.0,0.0,0.0,1.0,0.0,0.0,0.0,0.0,0.0,0.0,0.0,0.0,0.0,0.0,0.0,0.0,1.0,0,0,0,0,0,0,0,0,0,0,0,0,0,0,0,0,0,0,0,0,0,0,0,0,0,0,0,0,0,0,0,0,0,0,0,0
1776955215.6942322,46,0,897.4537068216137,398.47901017544245,849.6514829886204,891.2440584792917,395.03745527996637,854.1852292684306,883.8359073751811,414.56429978538665,830.7364684605633,900.7763869303463,411.129929462402,804.8463945787526,896.3715718159941,419.1820812962121,792.1493343711212,903.6633551639356,401.92056507091854,845.1177367088102,910.555934551325,425.9938128373931,826.1706041049771,914.8945321266713,437.70360316333057,797.6552038047574,915.5487197675412,439.1354031518303,782.0674884305905,681.1853637695312,618.9358520507812,1112.433349609375,931.1672973632812,653.8734741210938,1108.8997802734375,734.9375610351562,441.17535400390625,1138.5247802734375,896.1627807617188,445.0037536621094,1135.9818115234375,626.0079956054688,563.9993286132812,856.9069213867188,659.30078125,645.786376953125,606.6083374023438,638.504638671875,620.5621948242188,432.40350341796875,661.2498779296875,635.16259765625,234.59085083007812,727.1809692382812,541.9381103515625,157.50636291503906,685.0858154296875,807.1511840820312,184.4473114013672,986.2752685546875,596.8209838867188,779.48828125,949.541748046875,538.524658203125,569.35693359375,971.1661987304688,445.34326171875,474.137939453125,940.5580444335938,296.19329833984375,319.9485778808594,883.765625,190.91888427734375,308.4988708496094,923.8011474609375,396.5424499511719,168.03067016601562,0.0,0.0,0.0,0.0,0.0,0.0,0.0,0.0,0.0,0.0,0.0,0.0,1.0,0.0,0.0,0.0,0.0,0.0,0.0,0.0,0.0,0.0,0.0,0.0,0.0,1.0,0.0,0.0,0.0,0.0,0.0,0.0,0.0,0.0,0.0,0.0,0.0,0.0,1.0,0.0,0.0,0.0,0.0,0.0,0.0,0.0,0.0,0.0,0.0,0.0,0.0,1.0,0.0,0.0,0.0,0.0,0.0,0.0,0.0,0.0,0.0,0.0,0.0,0.0,1.0,0.0,0.0,0.0,0.0,0.0,0.0,0.0,0.0,0.0,0.0,0.0,0.0,1.0,0.0,0.0,0.0,0.0,0.0,0.0,0.0,0.0,0.0,0.0,0.0,0.0,1.0,0,0,0,0,0,0,0,0,0,0,0,0,0,0,0,0,0,0,0,0,0,0,0,0,0,0,0,0,0,0,0,0,0,0,0,0
1776955215.7088256,48,0,896.906648425719,404.7666080883061,856.5582210132567,890.6702974585836,401.30750519987174,861.0416819292795,883.1082603206404,420.1099263453219,837.0561176053311,900.4017630198528,416.4681462196336,811.4291225690716,895.9912083884116,424.13734796869466,798.4991095900432,903.1429993928544,408.22571097674046,852.0747600972338,910.207024064413,432.5113802349397,833.4648550285415,914.5386311510524,444.45161610256486,805.0441122487963,915.3294718922997,445.67489875422035,789.4449765759869,678.1724853515625,619.8407592773438,1114.013916015625,928.4154663085938,652.1589965820312,1110.9853515625,730.6378173828125,441.79534912109375,1140.017578125,891.8839721679688,443.7561950683594,1137.256591796875,622.7362060546875,562.6002807617188,857.6887817382812,658.198974609375,640.0836181640625,606.1586303710938,638.5137329101562,611.23291015625,432.4287414550781,661.9886474609375,621.5568237304688,234.7459259033203,727.5708618164062,527.4024658203125,157.75526428222656,685.6407470703125,792.7454223632812,183.95887756347656,985.7640991210938,603.5215454101562,782.6388549804688,950.261474609375,556.9544677734375,573.9007568359375,970.8310546875,460.6105041503906,483.3746643066406,938.65576171875,306.4425354003906,334.9627990722656,879.5972900390625,207.3578338623047,337.6910705566406,925.2564086914062,393.3627014160156,167.13621520996094,0.0,0.0,0.0,0.0,0.0,0.0,0.0,0.0,0.0,0.0,0.0,0.0,1.0,0.0,0.0,0.0,0.0,0.0,0.0,0.0,0.0,0.0,0.0,0.0,0.0,1.0,0.0,0.0,0.0,0.0,0.0,0.0,0.0,0.0,0.0,0.0,0.0,0.0,1.0,0.0,0.0,0.0,0.0,0.0,0.0,0.0,0.0,0.0,0.0,0.0,0.0,1.0,0.0,0.0,0.0,0.0,0.0,0.0,0.0,0.0,0.0,0.0,0.0,0.0,1.0,0.0,0.0,0.0,0.0,0.0,0.0,0.0,0.0,0.0,0.0,0.0,0.0,1.0,0.0,0.0,0.0,0.0,0.0,0.0,0.0,0.0,0.0,0.0,0.0,0.0,1.0,0,0,0,0,0,0,0,0,0,0,0,0,0,0,0,0,0,0,0,0,0,0,0,0,0,0,0,0,0,0,0,0,0,0,0,0
1776955215.7913268,49,0,896.7060257434853,408.00852102421084,860.0637140832112,890.4551294195473,404.53944683791906,864.5191273525896,882.8166311200221,422.9553992287776,840.2595151584396,900.3081490414825,419.2533001930848,814.7759530798537,895.8936345716635,426.7253959731884,801.7323826364785,902.9569220674232,411.4775952105026,855.6083008138327,910.1391998345237,435.85381627603095,837.162773573185,914.4735590750536,447.940450454271,808.8044013192028,915.3555507978291,449.09290683087676,793.2047597155137,676.8272094726562,620.0847778320312,1114.7752685546875,927.1991577148438,651.11865234375,1112.0604248046875,728.6127319335938,441.9092712402344,1140.80908203125,889.8494262695312,442.96820068359375,1137.9981689453125,621.2149658203125,561.4988403320312,857.99267578125,657.7108154296875,636.744873046875,605.8796997070312,638.6255493164062,606.1600952148438,432.3752746582031,662.4055786132812,614.6238403320312,234.79408264160156,727.7879028320312,520.1182250976562,157.91615295410156,685.8772583007812,785.53466796875,183.6779022216797,985.7077026367188,606.5280151367188,784.5010375976562,950.7555541992188,565.9287719726562,576.5579833984375,970.5132446289062,468.34222412109375,488.09576416015625,937.1798095703125,312.2469787597656,342.1435546875,876.5022583007812,216.6486358642578,350.5910339355469,926.2438354492188,393.51751708984375,167.5675811767578,0.0,0.0,0.0,0.0,0.0,0.0,0.0,0.0,0.0,0.0,0.0,0.0,1.0,0.0,0.0,0.0,0.0,0.0,0.0,0.0,0.0,0.0,0.0,0.0,0.0,1.0,0.0,0.0,0.0,0.0,0.0,0.0,0.0,0.0,0.0,0.0,0.0,0.0,1.0,0.0,0.0,0.0,0.0,0.0,0.0,0.0,0.0,0.0,0.0,0.0,0.0,1.0,0.0,0.0,0.0,0.0,0.0,0.0,0.0,0.0,0.0,0.0,0.0,0.0,1.0,0.0,0.0,0.0,0.0,0.0,0.0,0.0,0.0,0.0,0.0,0.0,0.0,1.0,0.0,0.0,0.0,0.0,0.0,0.0,0.0,0.0,0.0,0.0,0.0,0.0,1.0,0,0,0,0,0,0,0,0,0,0,0,0,0,0,0,0,0,0,0,0,0,0,0,0,0,0,0,0,0,0,0,0,0,0,0,0
1776955215.805849,57,0,895.4386915927828,429.3562694214253,881.7660450317001,889.135580996506,425.7776491483375,886.058266101929,880.9023073655877,441.14005381036026,859.9386858820354,899.8402951959581,437.54301710489705,835.495187430376,895.3846413299893,443.46978062742926,821.6939010397082,901.7418021890596,432.93488969451306,877.4738239614711,910.2719631611485,457.98991143903686,860.5769312969467,914.7607864055647,472.0199993875369,833.1528949288675,916.6794726292585,473.6302762403126,817.6874322815686,669.6530151367188,617.63427734375,1119.5462646484375,920.903076171875,640.0346069335938,1120.627685546875,716.1450805664062,438.7424621582031,1146.94677734375,876.9207153320312,433.67926025390625,1145.219970703125,613.28759765625,547.4459838867188,859.0206298828125,655.8682250976562,604.29052734375,603.7909545898438,639.9138793945312,562.4572143554688,432.3467102050781,665.6067504882812,557.8663330078125,235.65280151367188,729.7993774414062,460.82257080078125,159.88746643066406,687.3416137695312,726.6976928710938,181.96817016601562,987.90625,622.8614501953125,804.9862060546875,955.029296875,624.0204467773438,601.4990234375,964.427490234375,525.38037109375,518.045654296875,918.6442260742188,370.8902282714844,373.3056945800781,834.7427978515625,289.3749084472656,374.9859313964844,942.9436645507812,452.453857421875,193.9215545654297,0.0,0.0,0.0,0.0,0.0,0.0,0.0,0.0,0.0,0.0,0.0,0.0,1.0,0.0,0.0,0.0,0.0,0.0,0.0,0.0,0.0,0.0,0.0,0.0,0.0,1.0,0.0,0.0,0.0,0.0,0.0,0.0,0.0,0.0,0.0,0.0,0.0,0.0,1.0,0.0,0.0,0.0,0.0,0.0,0.0,0.0,0.0,0.0,0.0,0.0,0.0,1.0,0.0,0.0,0.0,0.0,0.0,0.0,0.0,0.0,0.0,0.0,0.0,0.0,1.0,0.0,0.0,0.0,0.0,0.0,0.0,0.0,0.0,0.0,0.0,0.0,0.0,1.0,0.0,0.0,0.0,0.0,0.0,0.0,0.0,0.0,0.0,0.0,0.0,0.0,1.0,0,0,0,0,0,0,0,0,0,0,0,0,0,0,0,0,0,0,0,0,0,0,0,0,0,0,0,0,0,0,0,0,0,0,0,0
1776955215.8305395,59,0,895.6545128721572,433.70685525768823,884.0554128087183,889.3736944651865,430.0708557141026,888.3320604936783,880.8705912983896,444.7309352591595,861.8971962645551,900.0537158957871,441.2256172656443,837.6321772222166,895.5726058148074,446.7779117077243,823.6841823077795,901.9353312791278,437.34285480127386,879.7787651237583,910.6899269698584,462.6020395289754,863.3059577209973,915.2227310065394,477.36545625748744,836.2769753734259,917.2850929033144,479.4405713310638,820.8855672474382,668.7071533203125,616.1336669921875,1120.3507080078125,920.1384887695312,636.9043579101562,1122.60205078125,714.1395874023438,437.14593505859375,1148.221923828125,874.747802734375,430.8656921386719,1147.0855712890625,612.3716430664062,543.515869140625,859.1726684570312,655.9755249023438,595.4573364257812,603.5086669921875,640.3587036132812,551.1576538085938,432.686767578125,666.3430786132812,543.42626953125,236.1117401123047,730.3651123046875,445.85260009765625,160.4113006591797,687.6721801757812,711.661376953125,181.78443908691406,988.6914672851562,625.3283081054688,811.0498657226562,955.7994995117188,634.0786743164062,606.9567260742188,962.8809204101562,538.0323486328125,520.6456909179688,914.5944213867188,389.6379699707031,370.2650146484375,826.8429565429688,308.90142822265625,362.640869140625,947.12890625,481.440185546875,199.17825317382812,0.0,0.0,0.0,0.0,0.0,0.0,0.0,0.0,0.0,0.0,0.0,0.0,1.0,0.0,0.0,0.0,0.0,0.0,0.0,0.0,0.0,0.0,0.0,0.0,0.0,1.0,0.0,0.0,0.0,0.0,0.0,0.0,0.0,0.0,0.0,0.0,0.0,0.0,1.0,0.0,0.0,0.0,0.0,0.0,0.0,0.0,0.0,0.0,0.0,0.0,0.0,1.0,0.0,0.0,0.0,0.0,0.0,0.0,0.0,0.0,0.0,0.0,0.0,0.0,1.0,0.0,0.0,0.0,0.0,0.0,0.0,0.0,0.0,0.0,0.0,0.0,0.0,1.0,0.0,0.0,0.0,0.0,0.0,0.0,0.0,0.0,0.0,0.0,0.0,0.0,1.0,0,0,0,0,0,0,0,0,0,0,0,0,0,0,0,0,0,0,0,0,0,0,0,0,0,0,0,0,0,0,0,0,0,0,0,0
1776955215.8445077,60,0,895.9775116802409,435.9040902135983,884.6298758508551,889.7145905070134,432.23119370272053,888.9012383456442,881.0368273343718,446.5448598948708,862.3336240567395,900.3233652491829,443.09514600414644,838.1427248999763,895.8239848280334,448.459277271697,824.127142327966,902.2404328534684,439.57698672447606,880.358513356066,911.0643957116437,464.94824782771576,864.0963015737301,915.616702085811,480.11335922673146,837.2939401924796,917.7241759180581,482.47329178386235,821.9497505548753,668.344482421875,615.31201171875,1120.6864013671875,919.8633422851562,635.3370971679688,1123.524658203125,713.2990112304688,436.2857971191406,1148.80419921875,873.8255615234375,429.4419250488281,1147.982666015625,612.0284423828125,541.54443359375,859.2427978515625,656.0897827148438,590.9666748046875,603.3910522460938,640.6143798828125,545.4310913085938,432.8912048339844,666.7152099609375,536.171875,236.3636016845703,730.6461181640625,438.3876647949219,160.65159606933594,687.83447265625,704.1243286132812,181.7172088623047,989.0762939453125,626.3363647460938,814.0593872070312,956.1306762695312,638.4440307617188,609.3199462890625,962.2654418945312,544.1896362304688,520.9635009765625,912.948974609375,399.783203125,367.0209655761719,824.1464233398438,319.5343017578125,354.8106689453125,948.86962890625,497.35614013671875,200.62088012695312,0.0,0.0,0.0,0.0,0.0,0.0,0.0,0.0,0.0,0.0,0.0,0.0,1.0,0.0,0.0,0.0,0.0,0.0,0.0,0.0,0.0,0.0,0.0,0.0,0.0,1.0,0.0,0.0,0.0,0.0,0.0,0.0,0.0,0.0,0.0,0.0,0.0,0.0,1.0,0.0,0.0,0.0,0.0,0.0,0.0,0.0,0.0,0.0,0.0,0.0,0.0,1.0,0.0,0.0,0.0,0.0,0.0,0.0,0.0,0.0,0.0,0.0,0.0,0.0,1.0,0.0,0.0,0.0,0.0,0.0,0.0,0.0,0.0,0.0,0.0,0.0,0.0,1.0,0.0,0.0,0.0,0.0,0.0,0.0,0.0,0.0,0.0,0.0,0.0,0.0,1.0,0,0,0,0,0,0,0,0,0,0,0,0,0,0,0,0,0,0,0,0,0,0,0,0,0,0,0,0,0,0,0,0,0,0,0,0
1776955215.858852,63,0,898.0157842769621,443.02326040006596,884.1730286624343,891.8333876430735,439.20561891966025,888.4347740034816,882.4437892258129,452.46831255751493,861.5654766256982,901.9727403481186,449.2788490164826,837.5338711224654,897.3925333489385,454.06348373510656,823.3358481010523,904.1981809108507,446.8409018804717,879.9112833213869,913.0552028984862,472.54793643247484,864.2038239915835,917.6678864944278,489.0249935572755,838.1980474942402,919.8434776622348,492.39099350556364,823.052363928245,667.677490234375,612.6878662109375,1121.3612060546875,919.4452514648438,630.7355346679688,1125.8851318359375,711.3992919921875,433.58258056640625,1150.306396484375,871.7067260742188,425.2354431152344,1150.4267578125,611.4295654296875,535.4891967773438,859.35009765625,656.6190795898438,577.1904907226562,603.0247802734375,641.5028076171875,528.0057983398438,433.4981994628906,667.8851318359375,514.326904296875,237.15122985839844,731.4526977539062,416.0437927246094,161.33306884765625,688.33349609375,681.522705078125,181.55909729003906,990.2042236328125,628.2919311523438,822.4666748046875,956.961181640625,648.9091186523438,614.524658203125,961.1982421875,562.1327514648438,518.0185546875,909.7532958984375,433.42230224609375,351.2854919433594,820.4923095703125,355.50897216796875,325.72564697265625,953.27587890625,549.6331787109375,200.84005737304688,0.0,0.0,0.0,0.0,0.0,0.0,0.0,0.0,0.0,0.0,0.0,0.0,1.0,0.0,0.0,0.0,0.0,0.0,0.0,0.0,0.0,0.0,0.0,0.0,0.0,1.0,0.0,0.0,0.0,0.0,0.0,0.0,0.0,0.0,0.0,0.0,0.0,0.0,1.0,0.0,0.0,0.0,0.0,0.0,0.0,0.0,0.0,0.0,0.0,0.0,0.0,1.0,0.0,0.0,0.0,0.0,0.0,0.0,0.0,0.0,0.0,0.0,0.0,0.0,1.0,0.0,0.0,0.0,0.0,0.0,0.0,0.0,0.0,0.0,0.0,0.0,0.0,1.0,0.0,0.0,0.0,0.0,0.0,0.0,0.0,0.0,0.0,0.0,0.0,0.0,1.0,0,0,0,0,0,0,0,0,0,0,0,0,0,0,0,0,0,0,0,0,0,0,0,0,0,0,0,0,0,0,0,0,0,0,0,0
1776955215.8847668,65,0,900.4343669228003,448.6484728886069,882.2424267695965,894.3276167116,444.7034866772508,886.4972562155067,884.2988016815219,457.22185643963866,859.5021449890386,903.9355199921956,454.3337279137528,835.5203043531491,899.2769312987114,458.7066825876563,821.2154204994612,906.5411171340007,452.59345909996296,877.9875973236863,915.2760980181487,478.4919854312747,862.5283222642053,919.9227746851733,495.87088459092485,837.1225565282384,922.124405274061,499.9704803654986,822.1625758966419,667.5641479492188,610.8936157226562,1121.4627685546875,919.4813842773438,627.8488159179688,1126.983154296875,710.6353759765625,431.77252197265625,1151.081298828125,870.8285522460938,422.5950622558594,1151.7606201171875,611.4053955078125,531.2188720703125,859.259521484375,657.1024780273438,567.7605590820312,602.6782836914062,642.1962890625,516.2716674804688,433.77813720703125,668.7373046875,499.7354736328125,237.66110229492188,731.9599609375,401.0657653808594,161.84312438964844,688.7138061523438,666.4974975585938,181.4452362060547,990.9677734375,628.5513305664062,827.1001586914062,957.429443359375,653.6787719726562,616.1586303710938,961.1792602539062,573.727294921875,513.0613403320312,909.1314697265625,458.53167724609375,336.8577880859375,820.47119140625,383.3354187011719,302.5087890625,956.453369140625,587.3089599609375,198.6420440673828,0.0,0.0,0.0,0.0,0.0,0.0,0.0,0.0,0.0,0.0,0.0,0.0,1.0,0.0,0.0,0.0,0.0,0.0,0.0,0.0,0.0,0.0,0.0,0.0,0.0,1.0,0.0,0.0,0.0,0.0,0.0,0.0,0.0,0.0,0.0,0.0,0.0,0.0,1.0,0.0,0.0,0.0,0.0,0.0,0.0,0.0,0.0,0.0,0.0,0.0,0.0,1.0,0.0,0.0,0.0,0.0,0.0,0.0,0.0,0.0,0.0,0.0,0.0,0.0,1.0,0.0,0.0,0.0,0.0,0.0,0.0,0.0,0.0,0.0,0.0,0.0,0.0,1.0,0.0,0.0,0.0,0.0,0.0,0.0,0.0,0.0,0.0,0.0,0.0,0.0,1.0,0,0,0,0,0,0,0,0,0,0,0,0,0,0,0,0,0,0,0,0,0,0,0,0,0,0,0,0,0,0,0,0,0,0,0,0
1776955215.9104228,67,0,903.5278161542412,455.06726416214474,879.2657436503556,897.5098404610898,450.9775527967893,883.5104011710857,886.7309567301028,462.69156094356975,856.4434393689958,906.4287270518819,460.2229400052459,832.4648149778158,901.6771462586054,464.1585167699368,818.0638219996645,909.5457918473927,459.15697552750015,875.0210861296255,918.073364999448,485.18608902532867,859.66568026725,922.7749429205634,503.47172697274436,834.9148967930304,925.0211198076128,508.3053160587518,820.1824160378321,667.6920776367188,609.12939453125,1121.2208251953125,919.7398681640625,625.203369140625,1127.586181640625,710.2689208984375,430.0352783203125,1151.6485595703125,870.3780517578125,420.1839904785156,1152.7779541015625,611.701171875,526.688232421875,858.9878540039062,657.678466796875,558.1591186523438,602.1868896484375,642.971923828125,504.49542236328125,433.8834228515625,669.6490478515625,485.1276550292969,238.12879943847656,732.4720458984375,385.928955078125,162.4158935546875,689.1620483398438,651.4949951171875,181.2913360595703,991.7891845703125,627.8782958984375,830.582763671875,957.8701782226562,656.6699829101562,616.1864013671875,961.7352294921875,585.0638427734375,506.12548828125,909.726318359375,485.7417907714844,320.4739685058594,821.20751953125,414.6153259277344,277.5326843261719,960.574951171875,626.297607421875,195.5296173095703,0.0,0.0,0.0,0.0,0.0,0.0,0.0,0.0,0.0,0.0,0.0,0.0,1.0,0.0,0.0,0.0,0.0,0.0,0.0,0.0,0.0,0.0,0.0,0.0,0.0,1.0,0.0,0.0,0.0,0.0,0.0,0.0,0.0,0.0,0.0,0.0,0.0,0.0,1.0,0.0,0.0,0.0,0.0,0.0,0.0,0.0,0.0,0.0,0.0,0.0,0.0,1.0,0.0,0.0,0.0,0.0,0.0,0.0,0.0,0.0,0.0,0.0,0.0,0.0,1.0,0.0,0.0,0.0,0.0,0.0,0.0,0.0,0.0,0.0,0.0,0.0,0.0,1.0,0.0,0.0,0.0,0.0,0.0,0.0,0.0,0.0,0.0,0.0,0.0,0.0,1.0,0,0,0,0,0,0,0,0,0,0,0,0,0,0,0,0,0,0,0,0,0,0,0,0,0,0,0,0,0,0,0,0,0,0,0,0
1776955215.9355907,70,0,909.2038496887169,466.7254951422156,873.5626213128628,903.331383060831,462.3927938966847,877.7698441005116,891.2791682027009,472.7173972265814,850.6742831054237,910.9576588490338,471.1248273189305,826.6058099579343,906.0458535808363,474.3417794879733,812.0806500272495,915.0763163166029,471.05819638774653,869.355398525214,923.1725811302454,497.0971276879618,853.7846793589451,928.0265808097369,516.705607159868,830.0988841940933,930.3918342178542,522.5790809006074,815.7684003992312,668.2900390625,606.63916015625,1120.1396484375,920.4893188476562,621.8670043945312,1127.42919921875,710.4804077148438,427.6978759765625,1152.048095703125,870.5191040039062,417.1610412597656,1153.58251953125,612.7290649414062,519.41650390625,858.2249755859375,658.6900024414062,543.5433959960938,601.1428833007812,644.2452392578125,486.7702941894531,433.70465087890625,671.0418090820312,463.1434020996094,238.726806640625,733.3008422851562,363.00616455078125,163.21617126464844,689.93359375,628.9599609375,180.96710205078125,993.2416381835938,625.1548461914062,833.1870727539062,958.520751953125,657.9337158203125,613.297119140625,963.6550903320312,601.572265625,493.1936950683594,912.9092407226562,530.1229248046875,294.7709655761719,822.959228515625,467.8049621582031,240.06578063964844,968.84521484375,685.7855224609375,190.94093322753906,0.0,0.0,0.0,0.0,0.0,0.0,0.0,0.0,0.0,0.0,0.0,0.0,1.0,0.0,0.0,0.0,0.0,0.0,0.0,0.0,0.0,0.0,0.0,0.0,0.0,1.0,0.0,0.0,0.0,0.0,0.0,0.0,0.0,0.0,0.0,0.0,0.0,0.0,1.0,0.0,0.0,0.0,0.0,0.0,0.0,0.0,0.0,0.0,0.0,0.0,0.0,1.0,0.0,0.0,0.0,0.0,0.0,0.0,0.0,0.0,0.0,0.0,0.0,0.0,1.0,0.0,0.0,0.0,0.0,0.0,0.0,0.0,0.0,0.0,0.0,0.0,0.0,1.0,0.0,0.0,0.0,0.0,0.0,0.0,0.0,0.0,0.0,0.0,0.0,0.0,1.0,0,0,0,0,0,0,0,0,0,0,0,0,0,0,0,0,0,0,0,0,0,0,0,0,0,0,0,0,0,0,0,0,0,0,0,0
1776955215.9746923,72,0,913.3803086224019,476.1188342475802,869.5318615532012,907.6108299023741,471.6101667935783,873.6964649018938,894.6805666059389,480.8543510397103,846.615547427532,914.2521258224785,480.0010780242723,822.4226421105884,909.2266276160191,482.69230506752564,807.8296113067729,919.1497873424297,480.6275017015821,865.3672582045086,926.9010843264261,506.5105344889253,849.3669847274716,931.9200899814861,526.9523131328987,826.4319909235644,934.3803401079033,533.4690012149808,812.3986438880605,668.9426879882812,605.1504516601562,1118.938232421875,921.2093505859375,620.1714477539062,1126.59814453125,711.1483154296875,426.400146484375,1151.9696044921875,871.172119140625,415.6339111328125,1153.57666015625,613.7518310546875,514.3614501953125,857.5138549804688,659.44482421875,533.779052734375,600.2673950195312,645.1200561523438,474.9380798339844,433.4289245605469,671.9037475585938,448.4244079589844,239.06590270996094,733.8624267578125,347.6991882324219,163.62608337402344,690.447509765625,613.8834228515625,180.7177734375,994.4314575195312,622.3867797851562,833.06494140625,958.9579467773438,656.8672485351562,609.7039794921875,965.6040649414062,612.1709594726562,483.8775329589844,916.5357666015625,561.4854736328125,278.6153564453125,825.0910034179688,506.2934265136719,217.0979766845703,975.1661376953125,725.4859008789062,189.49954223632812,0.0,0.0,0.0,0.0,0.0,0.0,0.0,0.0,0.0,0.0,0.0,0.0,1.0,0.0,0.0,0.0,0.0,0.0,0.0,0.0,0.0,0.0,0.0,0.0,0.0,1.0,0.0,0.0,0.0,0.0,0.0,0.0,0.0,0.0,0.0,0.0,0.0,0.0,1.0,0.0,0.0,0.0,0.0,0.0,0.0,0.0,0.0,0.0,0.0,0.0,0.0,1.0,0.0,0.0,0.0,0.0,0.0,0.0,0.0,0.0,0.0,0.0,0.0,0.0,1.0,0.0,0.0,0.0,0.0,0.0,0.0,0.0,0.0,0.0,0.0,0.0,0.0,1.0,0.0,0.0,0.0,0.0,0.0,0.0,0.0,0.0,0.0,0.0,0.0,0.0,1.0,0,0,0,0,0,0,0,0,0,0,0,0,0,0,0,0,0,0,0,0,0,0,0,0,0,0,0,0,0,0,0,0,0,0,0,0
1776955215.9814026,74,0,917.3690237422198,486.4146392613241,865.7069732875042,911.6912432653967,481.7347995627902,869.8082898098666,897.9313814057433,489.7888039916649,842.7560818259017,917.3084678969826,489.75890250565703,818.3922090284142,912.1766347958982,491.89736255951453,803.7448146907429,923.046804219043,491.094478959858,861.6056567651418,930.4495589287479,516.6536384035944,844.9337842313688,935.7033461017496,537.8597731956976,822.7579361032826,938.2384422839725,544.9999014153154,809.0449225899491,669.8056030273438,603.8626098632812,1117.392822265625,922.1107177734375,618.9695434570312,1125.2294921875,712.2531127929688,425.37335205078125,1151.581298828125,872.2822265625,414.5564880371094,1153.1141357421875,614.9818115234375,509.3040466308594,856.6871948242188,660.2683715820312,524.1331176757812,599.2955932617188,646.0025024414062,463.1572265625,433.12005615234375,672.6727905273438,433.677490234375,239.3896484375,734.379150390625,332.42431640625,163.96664428710938,690.9244995117188,598.755859375,180.47918701171875,995.8447265625,619.1461791992188,831.5386962890625,959.4085693359375,654.626953125,605.1634521484375,967.994384765625,622.3284912109375,474.8375244140625,921.24462890625,593.3724975585938,264.4690246582031,828.833984375,545.400634765625,196.94822692871094,981.0687255859375,764.7307739257812,190.72125244140625,0.0,0.0,0.0,0.0,0.0,0.0,0.0,0.0,0.0,0.0,0.0,0.0,1.0,0.0,0.0,0.0,0.0,0.0,0.0,0.0,0.0,0.0,0.0,0.0,0.0,1.0,0.0,0.0,0.0,0.0,0.0,0.0,0.0,0.0,0.0,0.0,0.0,0.0,1.0,0.0,0.0,0.0,0.0,0.0,0.0,0.0,0.0,0.0,0.0,0.0,0.0,1.0,0.0,0.0,0.0,0.0,0.0,0.0,0.0,0.0,0.0,0.0,0.0,0.0,1.0,0.0,0.0,0.0,0.0,0.0,0.0,0.0,0.0,0.0,0.0,0.0,0.0,1.0,0.0,0.0,0.0,0.0,0.0,0.0,0.0,0.0,0.0,0.0,0.0,0.0,1.0,0,0,0,0,0,0,0,0,0,0,0,0,0,0,0,0,0,0,0,0,0,0,0,0,0,0,0,0,0,0,0,0,0,0,0,0
1776955215.9974747,77,0,922.6366729471799,503.18544977866316,861.0639093521964,917.080769232818,498.2625934517838,865.0459072760049,902.2841728915728,504.39003532740446,838.0359473478616,921.1996317432821,505.6516423377448,813.3441584928446,915.9336532491049,506.9245448968573,798.6436798327316,928.1925766615418,508.1083061055425,857.081911428388,934.9915424487333,532.8993072712154,839.0485238383378,940.6182972598833,555.123919765294,817.9896325459825,943.135893596955,563.1709070884389,804.7849899166918,671.5511474609375,602.4569091796875,1114.5792236328125,923.860107421875,618.1876831054688,1122.3587646484375,714.7421875,424.4560852050781,1150.370361328125,874.8071899414062,413.8622741699219,1151.5863037109375,617.093994140625,502.1410217285156,855.3092651367188,661.7152709960938,510.18206787109375,597.7691040039062,647.4339599609375,445.7864074707031,432.7906799316406,673.7072143554688,411.6139221191406,239.96055603027344,735.0433959960938,309.5640869140625,164.4976806640625,691.5797729492188,575.9725952148438,180.17446899414062,998.4012451171875,614.1798706054688,827.11181640625,960.163330078125,650.0089111328125,597.4339599609375,972.1494140625,636.4227294921875,462.9966735839844,929.6552734375,639.50537109375,248.4252166748047,838.3635864257812,600.5211791992188,173.53480529785156,986.3373413085938,820.8793334960938,198.76661682128906,0.0,0.0,0.0,0.0,0.0,0.0,0.0,0.0,0.0,0.0,0.0,0.0,1.0,0.0,0.0,0.0,0.0,0.0,0.0,0.0,0.0,0.0,0.0,0.0,0.0,1.0,0.0,0.0,0.0,0.0,0.0,0.0,0.0,0.0,0.0,0.0,0.0,0.0,1.0,0.0,0.0,0.0,0.0,0.0,0.0,0.0,0.0,0.0,0.0,0.0,0.0,1.0,0.0,0.0,0.0,0.0,0.0,0.0,0.0,0.0,0.0,0.0,0.0,0.0,1.0,0.0,0.0,0.0,0.0,0.0,0.0,0.0,0.0,0.0,0.0,0.0,0.0,1.0,0.0,0.0,0.0,0.0,0.0,0.0,0.0,0.0,0.0,0.0,0.0,0.0,1.0,0,0,0,0,0,0,0,0,0,0,0,0,0,0,0,0,0,0,0,0,0,0,0,0,0,0,0,0,0,0,0,0,0,0,0,0
1776955216.0222378,79,0,925.402975529829,514.028313471284,858.6980659232476,919.9052084716941,508.9685909586265,862.5881370579397,904.6059551027882,513.8142796237753,835.5978630641611,923.1295347819739,515.8505243055151,810.661917600936,917.7991557549294,516.5535689409381,795.9463587963503,930.9007425879638,519.0880359839415,854.8079947885554,937.2232090580763,543.2224128750088,835.7401943816132,943.0067895279182,566.0350757347188,815.3636568229881,945.3770077439175,574.6570880141517,802.4990599336787,673.0721435546875,601.9844970703125,1112.4986572265625,925.351318359375,618.3873901367188,1120.0726318359375,716.94873046875,424.3341064453125,1149.130615234375,877.0513305664062,414.04620361328125,1150.0687255859375,618.6204833984375,497.9700012207031,854.3251953125,662.91748046875,501.42938232421875,596.7748413085938,648.5762329101562,434.5576477050781,432.77935791015625,674.4213256835938,397.0330810546875,240.49850463867188,735.47216796875,294.33465576171875,164.94554138183594,692.0042724609375,560.7482299804688,179.9967498779297,1000.3485107421875,611.39306640625,823.219482421875,960.7652587890625,646.7913818359375,592.1859130859375,975.04248046875,644.7705688476562,456.63763427734375,935.376220703125,666.8455810546875,241.3386993408203,846.8788452148438,631.5203247070312,163.04429626464844,985.6890258789062,854.3746337890625,207.40419006347656,0.0,0.0,0.0,0.0,0.0,0.0,0.0,0.0,0.0,0.0,0.0,0.0,1.0,0.0,0.0,0.0,0.0,0.0,0.0,0.0,0.0,0.0,0.0,0.0,0.0,1.0,0.0,0.0,0.0,0.0,0.0,0.0,0.0,0.0,0.0,0.0,0.0,0.0,1.0,0.0,0.0,0.0,0.0,0.0,0.0,0.0,0.0,0.0,0.0,0.0,0.0,1.0,0.0,0.0,0.0,0.0,0.0,0.0,0.0,0.0,0.0,0.0,0.0,0.0,1.0,0.0,0.0,0.0,0.0,0.0,0.0,0.0,0.0,0.0,0.0,0.0,0.0,1.0,0.0,0.0,0.0,0.0,0.0,0.0,0.0,0.0,0.0,0.0,0.0,0.0,1.0,0,0,0,0,0,0,0,0,0,0,0,0,0,0,0,0,0,0,0,0,0,0,0,0,0,0,0,0,0,0,0,0,0,0,0,0
1776955216.046071,80,0,926.6118406321565,519.0053636854813,857.7110059434253,921.1393725058563,513.8889120128044,861.5623567261198,905.6492445524726,518.1228155727723,834.5780513028285,923.9669579019729,520.4846716443893,809.5190472080427,918.6106105551302,520.9137228657684,794.8023783793989,932.0843087584567,524.1218153581581,853.8596551607309,938.1195873409392,547.9101020400349,834.2709958978451,943.9079305993838,571.015617540784,814.2285182953366,946.1566099956129,579.9031134553948,801.5237656175658,673.9561767578125,601.9178466796875,1111.43115234375,926.2127075195312,618.7081909179688,1118.8687744140625,718.210205078125,424.43731689453125,1148.3837890625,878.3350830078125,414.3351745605469,1149.184326171875,619.4127197265625,496.1485595703125,853.813232421875,663.61962890625,497.271240234375,596.2970581054688,649.234619140625,429.0853271484375,432.8607177734375,674.8170776367188,389.80340576171875,240.84397888183594,735.710693359375,286.7208557128906,165.2099151611328,692.2198486328125,553.1362915039062,179.90943908691406,1001.3689575195312,610.3063354492188,821.1333618164062,961.104248046875,645.31201171875,589.6360473632812,976.4327392578125,648.5323486328125,453.9174499511719,938.0177001953125,678.8595581054688,238.73440551757812,851.4263916015625,644.4820556640625,159.32363891601562,983.8231811523438,869.2431030273438,212.05906677246094,0.0,0.0,0.0,0.0,0.0,0.0,0.0,0.0,0.0,0.0,0.0,0.0,1.0,0.0,0.0,0.0,0.0,0.0,0.0,0.0,0.0,0.0,0.0,0.0,0.0,1.0,0.0,0.0,0.0,0.0,0.0,0.0,0.0,0.0,0.0,0.0,0.0,0.0,1.0,0.0,0.0,0.0,0.0,0.0,0.0,0.0,0.0,0.0,0.0,0.0,0.0,1.0,0.0,0.0,0.0,0.0,0.0,0.0,0.0,0.0,0.0,0.0,0.0,0.0,1.0,0.0,0.0,0.0,0.0,0.0,0.0,0.0,0.0,0.0,0.0,0.0,0.0,1.0,0.0,0.0,0.0,0.0,0.0,0.0,0.0,0.0,0.0,0.0,0.0,0.0,1.0,0,0,0,0,0,0,0,0,0,0,0,0,0,0,0,0,0,0,0,0,0,0,0,0,0,0,0,0,0,0,0,0,0,0,0,0
1776955216.0721333,84,0,929.9712858735064,535.1112581057313,854.1908048825502,924.5555398484807,529.8375757186739,857.9079081951351,908.6554295213375,531.8995409462599,830.9086946227054,926.2579598143492,534.9658241443532,805.4171370533319,920.8383192050982,534.3952386066068,790.7284743819637,935.3870318985321,540.3849404927887,850.4737015699653,940.3971852609187,562.8982093778263,829.1646933823436,945.8520128765838,586.8419497043267,810.0332316624309,947.3391586124085,596.4876018780583,797.7774299764384,678.4429321289062,602.9759521484375,1107.2327880859375,930.5802001953125,621.4373168945312,1114.0562744140625,724.2301635742188,426.03143310546875,1144.657958984375,884.4664306640625,416.766845703125,1145.078857421875,622.8518676757812,491.16619873046875,851.5761108398438,667.3185424804688,482.6271057128906,594.5169677734375,652.5813598632812,408.4295349121094,433.878173828125,676.8043823242188,361.42413330078125,242.98988342285156,737.0235595703125,256.3588562011719,166.731689453125,693.0972290039062,522.8121337890625,179.49908447265625,1005.4921264648438,608.8500366210938,812.888916015625,962.6972045898438,641.2007446289062,580.3889770507812,980.7758178710938,659.9019775390625,445.3749084472656,945.40087890625,711.8865356445312,232.244140625,867.824951171875,675.1281127929688,152.70208740234375,966.7825317382812,911.1170654296875,225.34304809570312,0.0,0.0,0.0,0.0,0.0,0.0,0.0,0.0,0.0,0.0,0.0,0.0,1.0,0.0,0.0,0.0,0.0,0.0,0.0,0.0,0.0,0.0,0.0,0.0,0.0,1.0,0.0,0.0,0.0,0.0,0.0,0.0,0.0,0.0,0.0,0.0,0.0,0.0,1.0,0.0,0.0,0.0,0.0,0.0,0.0,0.0,0.0,0.0,0.0,0.0,0.0,1.0,0.0,0.0,0.0,0.0,0.0,0.0,0.0,0.0,0.0,0.0,0.0,0.0,1.0,0.0,0.0,0.0,0.0,0.0,0.0,0.0,0.0,0.0,0.0,0.0,0.0,1.0,0.0,0.0,0.0,0.0,0.0,0.0,0.0,0.0,0.0,0.0,0.0,0.0,1.0,0,0,0,0,0,0,0,0,0,0,0,0,0,0,0,0,0,0,0,0,0,0,0,0,0,0,0,0,0,0,0,0,0,0,0,0
1776955216.0963316,86,0,931.1977905066385,539.8838405382169,852.2091160047522,925.7937399033378,534.5821248809322,855.9032919791526,909.8611722754916,535.7816859244776,828.871142885311,927.2710666292982,538.719819510174,803.2326245525,921.8282208269086,537.7298321953314,788.5748539870139,936.6018411099392,545.1855561955016,848.5149400303518,941.315269479823,567.302780051182,826.7288264608217,946.5782270458805,591.4222431101074,807.7650860047038,947.6030963278679,601.2056112329983,795.5712254843676,681.3260498046875,604.3594360351562,1105.316650390625,933.39697265625,623.6109008789062,1111.8853759765625,727.7623291015625,427.53900146484375,1142.4725341796875,888.0696411132812,418.6845703125,1142.8857421875,624.860595703125,490.28753662109375,850.3013305664062,669.7980346679688,476.9586181640625,593.6488037109375,654.6875,399.0798034667969,434.844970703125,678.0399780273438,347.63507080078125,244.69715881347656,737.90234375,241.34799194335938,168.10171508789062,693.4971313476562,507.81964111328125,179.19622802734375,1007.437255859375,610.0587158203125,809.3010864257812,963.6061401367188,640.4752197265625,576.4791259765625,981.868408203125,662.9139404296875,441.96051025390625,946.75341796875,718.2764282226562,229.9152069091797,873.320556640625,677.0610961914062,152.8496856689453,954.9259643554688,919.8485717773438,224.79469299316406,0.0,0.0,0.0,0.0,0.0,0.0,0.0,0.0,0.0,0.0,0.0,0.0,1.0,0.0,0.0,0.0,0.0,0.0,0.0,0.0,0.0,0.0,0.0,0.0,0.0,1.0,0.0,0.0,0.0,0.0,0.0,0.0,0.0,0.0,0.0,0.0,0.0,0.0,1.0,0.0,0.0,0.0,0.0,0.0,0.0,0.0,0.0,0.0,0.0,0.0,0.0,1.0,0.0,0.0,0.0,0.0,0.0,0.0,0.0,0.0,0.0,0.0,0.0,0.0,1.0,0.0,0.0,0.0,0.0,0.0,0.0,0.0,0.0,0.0,0.0,0.0,0.0,1.0,0.0,0.0,0.0,0.0,0.0,0.0,0.0,0.0,0.0,0.0,0.0,0.0,1.0,0,0,0,0,0,0,0,0,0,0,0,0,0,0,0,0,0,0,0,0,0,0,0,0,0,0,0,0,0,0,0,0,0,0,0,0
1776955216.1221068,88,0,932.5156639349905,542.606190994249,849.9544779510637,927.1131067068633,537.3056658647197,853.6525445691236,911.231088305248,537.7827491703692,826.568294061587,928.600120968792,540.2175676403313,800.8494481304209,923.1283367992069,538.8593479407859,786.2320030557228,937.9182211631177,547.9067161237783,846.2564113330038,942.5640183196165,569.8514940153841,824.2821983866086,947.7918910932464,593.9428013973845,805.2730182999057,948.3972266901037,603.6971592273674,793.0279803088498,684.6759033203125,606.2879638671875,1103.6248779296875,936.6763305664062,626.2409057617188,1110.033935546875,731.5881958007812,429.4657897949219,1140.2071533203125,891.979248046875,420.986083984375,1140.7724609375,627.2120971679688,490.5762023925781,848.899169921875,672.7200927734375,472.8916015625,592.7232666015625,657.0300903320312,390.67877197265625,436.1622314453125,679.3668823242188,334.2172546386719,247.0023956298828,738.806640625,226.5725555419922,170.35519409179688,693.8229370117188,493.00799560546875,178.79742431640625,1009.250732421875,612.4362182617188,806.2984619140625,964.6077270507812,640.5796508789062,573.1255493164062,982.2698974609375,664.0538940429688,438.83935546875,946.8372802734375,718.3683471679688,227.51075744628906,876.6941528320312,671.4230346679688,154.2873992919922,943.845458984375,920.7999267578125,218.51876831054688,0.0,0.0,0.0,0.0,0.0,0.0,0.0,0.0,0.0,0.0,0.0,0.0,1.0,0.0,0.0,0.0,0.0,0.0,0.0,0.0,0.0,0.0,0.0,0.0,0.0,1.0,0.0,0.0,0.0,0.0,0.0,0.0,0.0,0.0,0.0,0.0,0.0,0.0,1.0,0.0,0.0,0.0,0.0,0.0,0.0,0.0,0.0,0.0,0.0,0.0,0.0,1.0,0.0,0.0,0.0,0.0,0.0,0.0,0.0,0.0,0.0,0.0,0.0,0.0,1.0,0.0,0.0,0.0,0.0,0.0,0.0,0.0,0.0,0.0,0.0,0.0,0.0,1.0,0.0,0.0,0.0,0.0,0.0,0.0,0.0,0.0,0.0,0.0,0.0,0.0,1.0,0,0,0,0,0,0,0,0,0,0,0,0,0,0,0,0,0,0,0,0,0,0,0,0,0,0,0,0,0,0,0,0,0,0,0,0
1776955216.137389,90,0,934.4372351620086,543.2382091358492,847.5959583446199,929.0373904577165,537.9604114348558,851.3303145890732,913.2873465772401,537.8626246069949,824.1650923730828,930.7786559631933,539.3497502688293,798.4568597245561,925.2610279079896,537.6769278834914,783.8893503569903,939.8370798663008,548.5160068368425,843.8616021001667,944.5378408333139,570.5257508333294,821.9641876846498,949.7905729705177,594.4361967820776,802.7347817576127,950.0786452822151,604.0406245742705,790.3603377543309,688.4998779296875,608.6675415039062,1102.2357177734375,940.41748046875,629.2290649414062,1108.6112060546875,735.6644287109375,431.71429443359375,1137.991455078125,896.15283203125,423.5769348144531,1138.876708984375,630.0394897460938,492.039306640625,847.3720703125,676.0333862304688,470.9252014160156,591.6891479492188,659.5231323242188,383.5992126464844,437.9032287597656,680.6842041015625,321.3653564453125,250.0968475341797,739.6050415039062,212.1393280029297,173.99554443359375,694.0630493164062,478.3909912109375,178.34066772460938,1010.9579467773438,615.6787109375,803.9683227539062,965.7876586914062,641.3185424804688,570.4195556640625,982.3167114257812,663.5740966796875,436.0426940917969,946.268798828125,713.4755249023438,225.0151824951172,878.411865234375,660.579345703125,156.3944549560547,935.7237548828125,915.4810791015625,208.2836456298828,0.0,0.0,0.0,0.0,0.0,0.0,0.0,0.0,0.0,0.0,0.0,0.0,1.0,0.0,0.0,0.0,0.0,0.0,0.0,0.0,0.0,0.0,0.0,0.0,0.0,1.0,0.0,0.0,0.0,0.0,0.0,0.0,0.0,0.0,0.0,0.0,0.0,0.0,1.0,0.0,0.0,0.0,0.0,0.0,0.0,0.0,0.0,0.0,0.0,0.0,0.0,1.0,0.0,0.0,0.0,0.0,0.0,0.0,0.0,0.0,0.0,0.0,0.0,0.0,1.0,0.0,0.0,0.0,0.0,0.0,0.0,0.0,0.0,0.0,0.0,0.0,0.0,1.0,0.0,0.0,0.0,0.0,0.0,0.0,0.0,0.0,0.0,0.0,0.0,0.0,1.0,0,0,0,0,0,0,0,0,0,0,0,0,0,0,0,0,0,0,0,0,0,0,0,0,0,0,0,0,0,0,0,0,0,0,0,0
1776955216.160013,93,0,938.9704995494315,540.9194203882954,844.7926767796736,933.5570707583206,535.7094366517058,848.6018428500379,918.1463265031944,535.0211664488085,821.251194079384,936.0644654396647,534.1443685531281,795.8102390032973,930.4414549052109,532.0910448680539,781.3319622537559,944.3839283405423,546.129404124885,840.9835107093093,949.0445007102472,568.5201350341601,819.4670756635136,954.0874147288046,592.0818161860806,799.7570053395227,954.1206057825067,601.3564265117691,787.130232793731,695.0579223632812,612.7183227539062,1100.890869140625,946.7998657226562,634.100341796875,1107.489990234375,742.1564331054688,435.36785888671875,1135.0633544921875,902.813232421875,427.7446594238281,1136.71923828125,635.4097290039062,496.3741455078125,844.9212036132812,681.4384155273438,473.1127014160156,589.90869140625,663.2696533203125,376.6394958496094,441.6083679199219,682.37548828125,304.00909423828125,256.7906188964844,740.59814453125,191.42080688476562,183.06100463867188,694.2951049804688,456.7949523925781,177.7939910888672,1013.5299682617188,621.2520141601562,801.8392333984375,968.1651611328125,643.0071411132812,567.8245239257812,982.8486938476562,660.7875366210938,432.91510009765625,945.608642578125,700.302978515625,221.7252960205078,879.4560546875,639.835693359375,159.6588592529297,930.6456298828125,899.872314453125,192.16229248046875,0.0,0.0,0.0,0.0,0.0,0.0,0.0,0.0,0.0,0.0,0.0,0.0,1.0,0.0,0.0,0.0,0.0,0.0,0.0,0.0,0.0,0.0,0.0,0.0,0.0,1.0,0.0,0.0,0.0,0.0,0.0,0.0,0.0,0.0,0.0,0.0,0.0,0.0,1.0,0.0,0.0,0.0,0.0,0.0,0.0,0.0,0.0,0.0,0.0,0.0,0.0,1.0,0.0,0.0,0.0,0.0,0.0,0.0,0.0,0.0,0.0,0.0,0.0,0.0,1.0,0.0,0.0,0.0,0.0,0.0,0.0,0.0,0.0,0.0,0.0,0.0,0.0,1.0,0.0,0.0,0.0,0.0,0.0,0.0,0.0,0.0,0.0,0.0,0.0,0.0,1.0,0,0,0,0,0,0,0,0,0,0,0,0,0,0,0,0,0,0,0,0,0,0,0,0,0,0,0,0,0,0,0,0,0,0,0,0
1776955216.1876152,96,0,945.777198717288,534.9398029376015,844.1262371014614,940.3379565464328,529.8274899026443,848.0297980402668,925.429461431651,528.900599652154,820.4091465196954,943.7948342789267,524.4248631866242,795.6755350577259,938.0286709805786,522.1061996526254,781.293948097468,951.2164408881432,540.0521159725587,840.222676162656,955.318403937757,563.0226177186827,819.2095209684524,959.5568292553701,586.3719974529489,799.0622410147703,959.4849308542135,595.3204061234787,786.202392798416,702.3490600585938,616.666748046875,1100.6236572265625,953.8194580078125,638.9819946289062,1107.7783203125,748.9912719726562,438.80694580078125,1132.97607421875,909.8267211914062,431.84228515625,1135.6644287109375,642.2116088867188,503.1244201660156,842.5203247070312,686.6719360351562,482.80303955078125,588.0565185546875,666.5716552734375,376.0310974121094,447.23907470703125,683.3820190429688,290.8692932128906,266.86328125,741.9519653320312,172.75433349609375,197.71371459960938,694.3504028320312,435.67742919921875,177.66806030273438,1016.5993041992188,626.3803100585938,801.3375854492188,971.4896240234375,644.3217163085938,567.1124267578125,985.1370849609375,656.5986938476562,431.62591552734375,946.2739868164062,683.7940673828125,219.84658813476562,880.3333740234375,617.946044921875,161.95254516601562,931.1279907226562,879.667236328125,182.0313262939453,0.0,0.0,0.0,0.0,0.0,0.0,0.0,0.0,0.0,0.0,0.0,0.0,1.0,0.0,0.0,0.0,0.0,0.0,0.0,0.0,0.0,0.0,0.0,0.0,0.0,1.0,0.0,0.0,0.0,0.0,0.0,0.0,0.0,0.0,0.0,0.0,0.0,0.0,1.0,0.0,0.0,0.0,0.0,0.0,0.0,0.0,0.0,0.0,0.0,0.0,0.0,1.0,0.0,0.0,0.0,0.0,0.0,0.0,0.0,0.0,0.0,0.0,0.0,0.0,1.0,0.0,0.0,0.0,0.0,0.0,0.0,0.0,0.0,0.0,0.0,0.0,0.0,1.0,0.0,0.0,0.0,0.0,0.0,0.0,0.0,0.0,0.0,0.0,0.0,0.0,1.0,0,0,0,0,0,0,0,0,0,0,0,0,0,0,0,0,0,0,0,0,0,0,0,0,0,0,0,0,0,0,0,0,0,0,0,0
1776955216.213692,98,0,951.0022932367416,529.3207819319301,845.1943547868202,945.5473894107776,524.2822578213814,849.1713117894132,931.0238993410701,523.3900788460921,821.3451551123596,949.4247156401344,515.9984244728859,797.3484037106566,943.5616133397494,513.5648239462869,783.0251183628486,956.4571970627056,534.3593060424788,841.2173977842273,960.012214359054,557.6944197483689,820.5085334285797,963.569364433975,580.9471762864335,800.1191570426779,963.4400494407455,589.7102566945326,787.1327571313749,707.3929443359375,618.8324584960938,1101.0899658203125,958.623046875,641.98388671875,1108.7640380859375,753.6884155273438,440.6654052734375,1132.18603515625,914.6331176757812,434.3069763183594,1135.63916015625,647.3690185546875,508.84356689453125,841.1708984375,689.5938720703125,493.67950439453125,587.0556640625,668.3029174804688,380.0947570800781,452.4127197265625,683.5552978515625,285.7425537109375,275.8756408691406,743.5140991210938,162.8020782470703,211.79559326171875,694.1632080078125,422.1799011230469,177.62388610839844,1019.2001342773438,628.9571533203125,801.7398071289062,974.1641845703125,644.2547607421875,567.46484375,987.6625366210938,653.07861328125,431.710205078125,947.4567260742188,671.9640502929688,219.4972381591797,881.1592407226562,603.444091796875,162.789306640625,932.2723999023438,865.26904296875,179.2127685546875,0.0,0.0,0.0,0.0,0.0,0.0,0.0,0.0,0.0,0.0,0.0,0.0,1.0,0.0,0.0,0.0,0.0,0.0,0.0,0.0,0.0,0.0,0.0,0.0,0.0,1.0,0.0,0.0,0.0,0.0,0.0,0.0,0.0,0.0,0.0,0.0,0.0,0.0,1.0,0.0,0.0,0.0,0.0,0.0,0.0,0.0,0.0,0.0,0.0,0.0,0.0,1.0,0.0,0.0,0.0,0.0,0.0,0.0,0.0,0.0,0.0,0.0,0.0,0.0,1.0,0.0,0.0,0.0,0.0,0.0,0.0,0.0,0.0,0.0,0.0,0.0,0.0,1.0,0.0,0.0,0.0,0.0,0.0,0.0,0.0,0.0,0.0,0.0,0.0,0.0,1.0,0,0,0,0,0,0,0,0,0,0,0,0,0,0,0,0,0,0,0,0,0,0,0,0,0,0,0,0,0,0,0,0,0,0,0,0
1776955216.2376947,101,0,958.627042936645,520.1587910506299,849.1633525040579,953.1572521257693,515.2297177602891,853.2553584849038,939.1544314568773,514.6751131969068,825.1548928368421,956.8813027920503,502.86491331921405,802.4536178903736,950.9033226727818,500.33526229428105,788.1946031050436,964.0968337475207,525.0878643409708,845.071346523212,966.8694267040752,548.7413839722041,824.6056073502211,969.5278841789358,571.8161588869801,803.8798253585383,969.2938219811302,580.3283965570164,790.7290874325149,714.8320922851562,620.8701782226562,1102.675537109375,965.6312255859375,645.7752685546875,1111.2156982421875,760.8762817382812,442.420654296875,1131.9473876953125,921.9452514648438,437.304931640625,1136.551025390625,655.3797607421875,518.9642944335938,839.9915771484375,692.5438232421875,515.7533569335938,586.5381469726562,670.0711059570312,393.273193359375,462.5355224609375,683.230712890625,285.0576171875,292.9381103515625,747.0302734375,155.66993713378906,242.34088134765625,693.2898559570312,403.92431640625,176.74114990234375,1024.1168212890625,630.9791259765625,802.9007568359375,978.5427856445312,641.56884765625,568.4774780273438,992.0703735351562,645.8923950195312,432.4638366699219,949.69970703125,653.382568359375,219.83859252929688,882.5753173828125,581.7792358398438,163.34133911132812,933.5178833007812,843.48095703125,178.2508087158203,0.0,0.0,0.0,0.0,0.0,0.0,0.0,0.0,0.0,0.0,0.0,0.0,1.0,0.0,0.0,0.0,0.0,0.0,0.0,0.0,0.0,0.0,0.0,0.0,0.0,1.0,0.0,0.0,0.0,0.0,0.0,0.0,0.0,0.0,0.0,0.0,0.0,0.0,1.0,0.0,0.0,0.0,0.0,0.0,0.0,0.0,0.0,0.0,0.0,0.0,0.0,1.0,0.0,0.0,0.0,0.0,0.0,0.0,0.0,0.0,0.0,0.0,0.0,0.0,1.0,0.0,0.0,0.0,0.0,0.0,0.0,0.0,0.0,0.0,0.0,0.0,0.0,1.0,0.0,0.0,0.0,0.0,0.0,0.0,0.0,0.0,0.0,0.0,0.0,0.0,1.0,0,0,0,0,0,0,0,0,0,0,0,0,0,0,0,0,0,0,0,0,0,0,0,0,0,0,0,0,0,0,0,0,0,0,0,0
1776955216.262954,102,0,960.981716031692,517.3353646531325,851.025536225774,955.5144982400141,512.4347977688819,855.1550473100208,941.6413968893752,512.0680250752721,826.9872415869813,958.9542813733275,498.9448412033372,804.6911264861683,952.9480209139437,496.4009653960053,790.44653402329,966.44893382337,522.2359315373831,846.8960251415272,969.0250936028491,545.9048584173464,826.4224313269007,971.4673193974395,568.8891697193851,805.5699101407419,971.1938265551073,577.3161996339032,792.3651666086779,717.2044067382812,621.1630859375,1103.399658203125,967.847900390625,646.7977905273438,1112.21142578125,763.2925415039062,442.68255615234375,1132.1046142578125,924.3895263671875,438.0702819824219,1137.0723876953125,657.9414672851562,522.6703491210938,839.929443359375,693.0952758789062,524.2721557617188,586.7703247070312,670.4722290039062,399.37255859375,466.501708984375,683.0956420898438,286.8049621582031,299.4576416015625,748.4352416992188,156.33900451660156,255.44761657714844,692.8330078125,398.66973876953125,176.10516357421875,1026.0029296875,631.090576171875,803.305908203125,980.0294189453125,639.8049926757812,568.7862548828125,993.509521484375,642.78515625,432.69830322265625,950.4188842773438,646.95703125,220.04161071777344,883.0262451171875,574.5438232421875,163.41404724121094,933.7581176757812,836.2457885742188,178.2499237060547,0.0,0.0,0.0,0.0,0.0,0.0,0.0,0.0,0.0,0.0,0.0,0.0,1.0,0.0,0.0,0.0,0.0,0.0,0.0,0.0,0.0,0.0,0.0,0.0,0.0,1.0,0.0,0.0,0.0,0.0,0.0,0.0,0.0,0.0,0.0,0.0,0.0,0.0,1.0,0.0,0.0,0.0,0.0,0.0,0.0,0.0,0.0,0.0,0.0,0.0,0.0,1.0,0.0,0.0,0.0,0.0,0.0,0.0,0.0,0.0,0.0,0.0,0.0,0.0,1.0,0.0,0.0,0.0,0.0,0.0,0.0,0.0,0.0,0.0,0.0,0.0,0.0,1.0,0.0,0.0,0.0,0.0,0.0,0.0,0.0,0.0,0.0,0.0,0.0,0.0,1.0,0,0,0,0,0,0,0,0,0,0,0,0,0,0,0,0,0,0,0,0,0,0,0,0,0,0,0,0,0,0,0,0,0,0,0,0
1776955216.2904093,105,0,968.0175975424493,508.57880007344835,857.5353051511613,962.5623496176735,503.76217735009783,861.7778637640391,948.8724751520174,504.29468631809095,833.5231913387861,964.57268982767,488.04477840911096,812.1102414073059,958.4888403109328,485.55860084622066,797.8884068053268,973.472845467225,513.3954227967988,853.2927465382835,975.4670517746147,536.8863098771525,832.5509021669068,977.3228311031421,559.5934086703941,811.3373588476552,976.9259296085032,567.7718789542686,797.9803391096332,723.8262329101562,620.8391723632812,1105.9696044921875,973.9940795898438,649.0137939453125,1115.385009765625,770.5081176757812,442.45379638671875,1133.1810302734375,931.650146484375,439.5494079589844,1139.123291015625,664.6514282226562,534.43017578125,841.076904296875,693.5792846679688,551.5902709960938,589.1193237304688,671.4473876953125,421.30389404296875,479.7461853027344,683.3869018554688,297.376708984375,320.59320068359375,753.202392578125,169.2905731201172,301.66058349609375,691.2057495117188,386.6057434082031,173.85243225097656,1032.126220703125,629.6143188476562,804.2011108398438,984.3609619140625,631.7237548828125,569.2867431640625,997.3201293945312,630.9619140625,432.95672607421875,952.1224365234375,626.9380493164062,220.5552978515625,884.154296875,552.73876953125,163.48883056640625,934.2034301757812,814.5913696289062,178.16847229003906,0.0,0.0,0.0,0.0,0.0,0.0,0.0,0.0,0.0,0.0,0.0,0.0,1.0,0.0,0.0,0.0,0.0,0.0,0.0,0.0,0.0,0.0,0.0,0.0,0.0,1.0,0.0,0.0,0.0,0.0,0.0,0.0,0.0,0.0,0.0,0.0,0.0,0.0,1.0,0.0,0.0,0.0,0.0,0.0,0.0,0.0,0.0,0.0,0.0,0.0,0.0,1.0,0.0,0.0,0.0,0.0,0.0,0.0,0.0,0.0,0.0,0.0,0.0,0.0,1.0,0.0,0.0,0.0,0.0,0.0,0.0,0.0,0.0,0.0,0.0,0.0,0.0,1.0,0.0,0.0,0.0,0.0,0.0,0.0,0.0,0.0,0.0,0.0,0.0,0.0,1.0,0,0,0,0,0,0,0,0,0,0,0,0,0,0,0,0,0,0,0,0,0,0,0,0,0,0,0,0,0,0,0,0,0,0,0,0
1776955216.3021824,107,0,972.6453392606603,502.80417021712304,862.1295456031897,967.211365549504,498.02873257867856,866.4453320936639,953.4806316237593,499.43238572133544,838.2403778079309,968.0221890576407,481.8627621320278,817.05259578604,961.8797773873794,479.51254496902294,802.8328158502488,978.0793129718166,507.57960785556753,857.8137591127156,979.7011218615214,530.8023305682735,836.7401351178064,981.2071924959139,553.300913921367,815.2781647742403,980.7296938159218,561.312634646353,801.8230836039905,727.7886352539062,619.7144165039062,1107.8841552734375,977.6494750976562,649.7202758789062,1117.4249267578125,775.194091796875,441.5062561035156,1134.3206787109375,936.3429565429688,439.8121032714844,1140.7725830078125,667.9895629882812,542.47900390625,843.1113891601562,693.1782836914062,570.0453491210938,592.24560546875,672.2423095703125,437.5941162109375,489.222900390625,684.7374267578125,307.92388916015625,334.9813537597656,757.2681884765625,185.7822723388672,333.51654052734375,690.1077270507812,382.8653869628906,173.56488037109375,1036.311279296875,627.1302490234375,804.3977661132812,987.027587890625,624.2506103515625,569.2283935546875,999.3551635742188,621.1503295898438,432.7328186035156,952.816650390625,613.0261840820312,220.73963928222656,884.6990966796875,538.1116943359375,163.51332092285156,934.4469604492188,800.1007690429688,177.9015655517578,0.0,0.0,0.0,0.0,0.0,0.0,0.0,0.0,0.0,0.0,0.0,0.0,1.0,0.0,0.0,0.0,0.0,0.0,0.0,0.0,0.0,0.0,0.0,0.0,0.0,1.0,0.0,0.0,0.0,0.0,0.0,0.0,0.0,0.0,0.0,0.0,0.0,0.0,1.0,0.0,0.0,0.0,0.0,0.0,0.0,0.0,0.0,0.0,0.0,0.0,0.0,1.0,0.0,0.0,0.0,0.0,0.0,0.0,0.0,0.0,0.0,0.0,0.0,0.0,1.0,0.0,0.0,0.0,0.0,0.0,0.0,0.0,0.0,0.0,0.0,0.0,0.0,1.0,0.0,0.0,0.0,0.0,0.0,0.0,0.0,0.0,0.0,0.0,0.0,0.0,1.0,0,0,0,0,0,0,0,0,0,0,0,0,0,0,0,0,0,0,0,0,0,0,0,0,0,0,0,0,0,0,0,0,0,0,0,0
1776955216.3267696,110,0,979.2199777572118,493.24166713309523,868.5548416559676,973.8254753404742,488.5267618451646,872.9851802169836,959.9094267295968,491.63346024392956,845.0081403688586,972.8945969203648,473.0944691497708,823.6361531658051,966.6229667707692,471.1568829932097,809.4105671175905,984.6144801739495,497.9565724210259,864.1245030949516,985.6821838366502,520.7108936102336,842.5114603047335,986.6785763087167,542.910155244889,820.7107571601624,986.0939498421304,550.6860082030977,807.1221882167653,733.1265258789062,617.0255737304688,1110.875732421875,982.57373046875,649.5543823242188,1120.066650390625,781.8031616210938,439.1092224121094,1136.53125,942.9544067382812,439.11663818359375,1143.4525146484375,671.1957397460938,554.0184936523438,848.075927734375,692.0970458984375,596.1583862304688,599.2421875,674.2268676757812,462.1026916503906,503.197998046875,689.0684204101562,327.064208984375,354.4287109375,766.2498779296875,214.9497528076172,369.87933349609375,688.4777221679688,387.38153076171875,178.3909912109375,1042.14599609375,621.4022216796875,804.1234130859375,990.5429077148438,610.8948974609375,568.788818359375,1001.7521362304688,604.4895629882812,432.1163024902344,953.3948974609375,591.5623168945312,220.9137725830078,885.3026733398438,516.0101928710938,163.64224243164062,934.8907470703125,778.11572265625,177.41763305664062,0.0,0.0,0.0,0.0,0.0,0.0,0.0,0.0,0.0,0.0,0.0,0.0,1.0,0.0,0.0,0.0,0.0,0.0,0.0,0.0,0.0,0.0,0.0,0.0,0.0,1.0,0.0,0.0,0.0,0.0,0.0,0.0,0.0,0.0,0.0,0.0,0.0,0.0,1.0,0.0,0.0,0.0,0.0,0.0,0.0,0.0,0.0,0.0,0.0,0.0,0.0,1.0,0.0,0.0,0.0,0.0,0.0,0.0,0.0,0.0,0.0,0.0,0.0,0.0,1.0,0.0,0.0,0.0,0.0,0.0,0.0,0.0,0.0,0.0,0.0,0.0,0.0,1.0,0.0,0.0,0.0,0.0,0.0,0.0,0.0,0.0,0.0,0.0,0.0,0.0,1.0,0,0,0,0,0,0,0,0,0,0,0,0,0,0,0,0,0,0,0,0,0,0,0,0,0,0,0,0,0,0,0,0,0,0,0,0
1776955216.3501115,111,0,981.0308881885885,489.47070070746236,870.4429650640222,975.6472321732281,484.7823789971394,874.914516854213,961.6780058871719,488.55740797017506,847.0463878218135,974.2186730418878,469.9082777523932,825.5054435037285,967.8916369244763,468.17772090085725,811.2777005268841,986.4145442039489,494.1590224177853,865.9714132738314,987.3361175697494,516.7740923990145,844.2060266514826,988.1980040391129,538.8854206387708,822.3104337646098,987.5852126485433,546.5927626975038,808.6841265479094,734.7763061523438,615.9500732421875,1111.8875732421875,984.10498046875,649.1712036132812,1120.81396484375,783.8467407226562,438.1055908203125,1137.3824462890625,945.0022583007812,438.6090087890625,1144.3668212890625,671.8771362304688,557.5181884765625,850.1691284179688,691.7190551757812,604.192138671875,602.097412109375,675.1503295898438,469.96685791015625,507.5055236816406,691.0689086914062,334.08203125,359.780029296875,770.1424560546875,224.27442932128906,376.91705322265625,687.8782958984375,392.330810546875,181.6338348388672,1043.874267578125,619.05029296875,803.9291381835938,991.5677490234375,606.0936279296875,568.6232299804688,1002.4163818359375,598.6458129882812,431.92413330078125,953.529541015625,584.3071899414062,220.99691772460938,885.4735717773438,508.59423828125,163.72674560546875,935.0606079101562,770.7071533203125,177.2922821044922,0.0,0.0,0.0,0.0,0.0,0.0,0.0,0.0,0.0,0.0,0.0,0.0,1.0,0.0,0.0,0.0,0.0,0.0,0.0,0.0,0.0,0.0,0.0,0.0,0.0,1.0,0.0,0.0,0.0,0.0,0.0,0.0,0.0,0.0,0.0,0.0,0.0,0.0,1.0,0.0,0.0,0.0,0.0,0.0,0.0,0.0,0.0,0.0,0.0,0.0,0.0,1.0,0.0,0.0,0.0,0.0,0.0,0.0,0.0,0.0,0.0,0.0,0.0,0.0,1.0,0.0,0.0,0.0,0.0,0.0,0.0,0.0,0.0,0.0,0.0,0.0,0.0,1.0,0.0,0.0,0.0,0.0,0.0,0.0,0.0,0.0,0.0,0.0,0.0,0.0,1.0,0,0,0,0,0,0,0,0,0,0,0,0,0,0,0,0,0,0,0,0,0,0,0,0,0,0,0,0,0,0,0,0,0,0,0,0
1776955216.362403,113,0,983.8012685839914,481.3545189880114,873.7252539612075,978.4325235903108,476.7266879590375,878.2770278048498,964.4154440672135,481.948305095567,850.6676283425754,976.2195107819464,463.35593799442427,828.6662973089659,969.7706557371765,462.13801161428955,814.4401310226226,989.170013577672,485.9823500169853,869.1734801175652,989.9130745374662,508.38001001883686,847.1776753040044,990.6057867579754,530.3120690752513,825.0965610204023,989.9508491076406,537.8914104380473,811.4005935685223,737.9276123046875,613.6533813476562,1113.9249267578125,987.0602416992188,647.9351196289062,1122.1185302734375,787.63525390625,435.8759460449219,1139.2305908203125,948.81005859375,437.221435546875,1146.1885986328125,672.8953857421875,563.67919921875,854.8145751953125,691.0678100585938,619.0358276367188,608.3585205078125,677.3455810546875,485.0114440917969,515.1258544921875,695.6026000976562,348.9774475097656,368.00909423828125,778.8295288085938,241.5285186767578,382.729248046875,686.5330200195312,407.7306213378906,189.66709899902344,1046.91796875,613.8475952148438,803.475830078125,993.383544921875,596.2367553710938,568.362060546875,1003.5889892578125,586.7869873046875,431.6656799316406,953.786865234375,569.71435546875,221.2681884765625,885.7994384765625,493.687744140625,163.97413635253906,935.4154663085938,755.7789306640625,177.1337890625,0.0,0.0,0.0,0.0,0.0,0.0,0.0,0.0,0.0,0.0,0.0,0.0,1.0,0.0,0.0,0.0,0.0,0.0,0.0,0.0,0.0,0.0,0.0,0.0,0.0,1.0,0.0,0.0,0.0,0.0,0.0,0.0,0.0,0.0,0.0,0.0,0.0,0.0,1.0,0.0,0.0,0.0,0.0,0.0,0.0,0.0,0.0,0.0,0.0,0.0,0.0,1.0,0.0,0.0,0.0,0.0,0.0,0.0,0.0,0.0,0.0,0.0,0.0,0.0,1.0,0.0,0.0,0.0,0.0,0.0,0.0,0.0,0.0,0.0,0.0,0.0,0.0,1.0,0.0,0.0,0.0,0.0,0.0,0.0,0.0,0.0,0.0,0.0,0.0,0.0,1.0,0,0,0,0,0,0,0,0,0,0,0,0,0,0,0,0,0,0,0,0,0,0,0,0,0,0,0,0,0,0,0,0,0,0,0,0
1776955216.3737314,114,0,984.7004968282708,476.9471699333891,875.1010478400488,979.3368574485576,472.3572855454302,879.6970484789881,965.3398786584745,478.35432207852125,852.2353864732845,976.8554188240801,459.91656375020744,829.9528355600473,970.3474941629948,459.0028372940437,815.7307786120697,990.0641362079841,481.53705432134797,870.5050472011094,990.7686846874562,503.86924321586673,848.4415095617286,991.4220379007635,525.7256475461747,826.2843122658443,990.7538926572939,533.2462942333647,812.5566635741468,739.438720703125,612.4654541015625,1114.9493408203125,988.497802734375,647.0977172851562,1122.685791015625,789.3663330078125,434.676025390625,1140.2174072265625,950.556640625,436.3603515625,1147.086181640625,673.3213500976562,566.2430419921875,857.2813110351562,690.828857421875,625.8067626953125,611.6672973632812,678.5699462890625,492.18157958984375,518.2825317382812,697.9948120117188,356.89141845703125,370.675048828125,783.3115844726562,249.74703979492188,381.9762878417969,685.8020629882812,417.9661560058594,193.8572998046875,1048.2252197265625,611.0505981445312,803.2417602539062,994.17333984375,591.239990234375,568.2872924804688,1004.1055908203125,580.8215942382812,431.61920166015625,953.921142578125,562.3902587890625,221.4682159423828,885.9613037109375,486.1990661621094,164.14010620117188,935.594970703125,748.26904296875,177.0989532470703,0.0,0.0,0.0,0.0,0.0,0.0,0.0,0.0,0.0,0.0,0.0,0.0,1.0,0.0,0.0,0.0,0.0,0.0,0.0,0.0,0.0,0.0,0.0,0.0,0.0,1.0,0.0,0.0,0.0,0.0,0.0,0.0,0.0,0.0,0.0,0.0,0.0,0.0,1.0,0.0,0.0,0.0,0.0,0.0,0.0,0.0,0.0,0.0,0.0,0.0,0.0,1.0,0.0,0.0,0.0,0.0,0.0,0.0,0.0,0.0,0.0,0.0,0.0,0.0,1.0,0.0,0.0,0.0,0.0,0.0,0.0,0.0,0.0,0.0,0.0,0.0,0.0,1.0,0.0,0.0,0.0,0.0,0.0,0.0,0.0,0.0,0.0,0.0,0.0,0.0,1.0,0,0,0,0,0,0,0,0,0,0,0,0,0,0,0,0,0,0,0,0,0,0,0,0,0,0,0,0,0,0,0,0,0,0,0,0
1776955216.3878741,116,0,985.3801788185228,467.15606243682873,877.0558211080935,980.0140865334793,462.65603830042807,881.7370308153996,966.1676289937192,470.2867644104607,854.6064138821624,977.2492323063913,452.3688876373854,831.6887693119747,970.6500343074924,452.1561161454385,817.4810180005912,990.7462711035664,471.6560865732294,872.3746114007873,991.527496615452,493.93523748182395,850.2600943579844,992.2402691948471,515.6409792153182,827.9571034435601,991.5620390500567,523.0618795850799,814.1757709667876,742.3370971679688,610.07177734375,1116.99951171875,991.3063354492188,645.0411376953125,1123.6751708984375,792.4818725585938,432.1644287109375,1142.284423828125,953.7132568359375,434.3592224121094,1148.83349609375,674.2153930664062,570.1372680664062,862.2694091796875,690.5948486328125,637.9901123046875,618.3782958984375,681.1123657226562,505.8802490234375,522.9348754882812,702.660888671875,373.8148193359375,372.7381896972656,791.6736450195312,266.5849914550781,374.9332580566406,684.3311157226562,442.5582275390625,201.0413818359375,1050.427001953125,605.1799926757812,802.7987060546875,995.5223999023438,581.1915893554688,568.2692260742188,1005.00830078125,568.8674926757812,431.70452880859375,954.2032470703125,547.7034301757812,221.9990997314453,886.2969970703125,471.1598205566406,164.56027221679688,935.9526977539062,733.188720703125,177.09596252441406,0.0,0.0,0.0,0.0,0.0,0.0,0.0,0.0,0.0,0.0,0.0,0.0,1.0,0.0,0.0,0.0,0.0,0.0,0.0,0.0,0.0,0.0,0.0,0.0,0.0,1.0,0.0,0.0,0.0,0.0,0.0,0.0,0.0,0.0,0.0,0.0,0.0,0.0,1.0,0.0,0.0,0.0,0.0,0.0,0.0,0.0,0.0,0.0,0.0,0.0,0.0,1.0,0.0,0.0,0.0,0.0,0.0,0.0,0.0,0.0,0.0,0.0,0.0,0.0,1.0,0.0,0.0,0.0,0.0,0.0,0.0,0.0,0.0,0.0,0.0,0.0,0.0,1.0,0.0,0.0,0.0,0.0,0.0,0.0,0.0,0.0,0.0,0.0,0.0,0.0,1.0,0,0,0,0,0,0,0,0,0,0,0,0,0,0,0,0,0,0,0,0,0,0,0,0,0,0,0,0,0,0,0,0,0,0,0,0
1776955216.411877,117,0,985.253039896718,461.9642900355288,877.6015363804872,979.8830987851153,457.5127696324732,882.3245212971125,966.1652332739845,465.9909054081062,855.3807999109856,977.1048323594615,448.4341489005243,832.1180368450362,970.4790390021271,448.61113227305265,817.9221775003425,990.6229810083206,466.4158104385844,872.878551463862,991.4951084526322,488.7238688730936,850.7965980822389,992.2787265723445,510.34817476752465,828.4170089460077,991.6023430376298,517.7238846535644,814.6113473445662,743.7195434570312,608.8818359375,1118.0162353515625,992.6737060546875,643.8509521484375,1124.10400390625,793.8641357421875,430.87322998046875,1143.347900390625,955.1190185546875,433.2441101074219,1149.675537109375,674.7522583007812,571.4110107421875,864.6963500976562,690.6231689453125,643.387451171875,621.672607421875,682.3619995117188,512.4502563476562,524.3173828125,704.8017578125,382.8935241699219,372.0643310546875,795.24609375,275.63629150390625,369.2930603027344,683.6486206054688,456.52716064453125,203.58831787109375,1051.337890625,602.141845703125,802.595458984375,996.087646484375,576.1522216796875,568.3216552734375,1005.3964233398438,562.8778686523438,431.828125,954.3450927734375,540.343017578125,222.32118225097656,886.4755249023438,463.6150207519531,164.81353759765625,936.1319580078125,725.6303100585938,177.1156463623047,0.0,0.0,0.0,0.0,0.0,0.0,0.0,0.0,0.0,0.0,0.0,0.0,1.0,0.0,0.0,0.0,0.0,0.0,0.0,0.0,0.0,0.0,0.0,0.0,0.0,1.0,0.0,0.0,0.0,0.0,0.0,0.0,0.0,0.0,0.0,0.0,0.0,0.0,1.0,0.0,0.0,0.0,0.0,0.0,0.0,0.0,0.0,0.0,0.0,0.0,0.0,1.0,0.0,0.0,0.0,0.0,0.0,0.0,0.0,0.0,0.0,0.0,0.0,0.0,1.0,0.0,0.0,0.0,0.0,0.0,0.0,0.0,0.0,0.0,0.0,0.0,0.0,1.0,0.0,0.0,0.0,0.0,0.0,0.0,0.0,0.0,0.0,0.0,0.0,0.0,1.0,0,0,0,0,0,0,0,0,0,0,0,0,0,0,0,0,0,0,0,0,0,0,0,0,0,0,0,0,0,0,0,0,0,0,0,0
1776955216.4378362,121,0,981.3990873238256,440.03817489997607,876.3580653343992,975.970490951629,435.8032725168763,881.2113973029503,963.1217607850201,447.6810655571648,855.137446544722,973.9426522065905,432.06603050386053,830.4767559257095,967.37240318681,434.0152611124586,816.388206989955,986.8276836960222,444.27307728307585,871.504733365848,988.4976395710391,466.90254029554444,849.7989416574678,989.928723972319,488.1604831692392,827.1026306159102,989.3056343263987,495.37645839801894,813.2103182074824,748.67919921875,604.256591796875,1121.8194580078125,997.7468872070312,638.410400390625,1125.36474609375,798.26025390625,425.67767333984375,1147.5565185546875,959.59814453125,428.32708740234375,1152.7335205078125,677.9342651367188,571.8159790039062,872.9833984375,691.8963623046875,660.1513061523438,633.2467651367188,686.621826171875,537.2978515625,522.9146118164062,711.0604248046875,423.929443359375,358.4556884765625,803.5344848632812,318.3202819824219,336.2480773925781,681.7644653320312,520.8585815429688,205.68365478515625,1053.943115234375,589.565185546875,801.8464965820312,997.7424926757812,555.8804321289062,568.765380859375,1006.5599975585938,538.7366333007812,432.6356201171875,954.8299560546875,510.8025817871094,223.80084228515625,887.2765502929688,433.3633728027344,166.01177978515625,936.864990234375,695.351806640625,177.2003173828125,0.0,0.0,0.0,0.0,0.0,0.0,0.0,0.0,0.0,0.0,0.0,0.0,1.0,0.0,0.0,0.0,0.0,0.0,0.0,0.0,0.0,0.0,0.0,0.0,0.0,1.0,0.0,0.0,0.0,0.0,0.0,0.0,0.0,0.0,0.0,0.0,0.0,0.0,1.0,0.0,0.0,0.0,0.0,0.0,0.0,0.0,0.0,0.0,0.0,0.0,0.0,1.0,0.0,0.0,0.0,0.0,0.0,0.0,0.0,0.0,0.0,0.0,0.0,0.0,1.0,0.0,0.0,0.0,0.0,0.0,0.0,0.0,0.0,0.0,0.0,0.0,0.0,1.0,0.0,0.0,0.0,0.0,0.0,0.0,0.0,0.0,0.0,0.0,0.0,0.0,1.0,0,0,0,0,0,0,0,0,0,0,0,0,0,0,0,0,0,0,0,0,0,0,0,0,0,0,0,0,0,0,0,0,0,0,0,0
1776955216.4610868,122,0,979.7191536511067,434.4800702192476,875.1320513627841,974.2699276229873,430.3015121664668,880.0110344799486,961.7123983781294,443.00222880874384,854.1842460891731,972.5993602549903,427.96154463896914,829.1977986930975,966.0789058167486,430.3937247432006,815.1613084935509,985.1683796792261,438.65862827202835,870.2530682456195,987.1217903837465,461.41213488180125,848.7011572834042,988.7776600536488,482.56079910133565,825.9182081756686,988.1779371042015,489.7380955226506,812.0048465499844,749.7457885742188,603.1417846679688,1122.640869140625,998.8721923828125,636.969482421875,1125.5438232421875,799.0916137695312,424.4103698730469,1148.5372314453125,960.4407958984375,427.0484313964844,1153.3968505859375,678.9902954101562,570.80859375,874.5405883789062,692.5222778320312,663.0797119140625,635.5137329101562,687.4482421875,543.2144775390625,520.8494262695312,711.9598388671875,435.45733642578125,352.6679382324219,804.0703125,330.73687744140625,325.54193115234375,681.5001220703125,538.8070678710938,204.60433959960938,1054.376953125,586.3494873046875,801.6470336914062,998.036865234375,550.7692260742188,568.8849487304688,1006.7636108398438,532.6406860351562,432.85626220703125,954.91650390625,503.396240234375,224.1746826171875,887.490966796875,425.8011169433594,166.3164825439453,937.0513305664062,687.7717895507812,177.20225524902344,0.0,0.0,0.0,0.0,0.0,0.0,0.0,0.0,0.0,0.0,0.0,0.0,1.0,0.0,0.0,0.0,0.0,0.0,0.0,0.0,0.0,0.0,0.0,0.0,0.0,1.0,0.0,0.0,0.0,0.0,0.0,0.0,0.0,0.0,0.0,0.0,0.0,0.0,1.0,0.0,0.0,0.0,0.0,0.0,0.0,0.0,0.0,0.0,0.0,0.0,0.0,1.0,0.0,0.0,0.0,0.0,0.0,0.0,0.0,0.0,0.0,0.0,0.0,0.0,1.0,0.0,0.0,0.0,0.0,0.0,0.0,0.0,0.0,0.0,0.0,0.0,0.0,1.0,0.0,0.0,0.0,0.0,0.0,0.0,0.0,0.0,0.0,0.0,0.0,0.0,1.0,0,0,0,0,0,0,0,0,0,0,0,0,0,0,0,0,0,0,0,0,0,0,0,0,0,0,0,0,0,0,0,0,0,0,0,0
1776955216.474174,124,0,975.7834203209627,423.83294682127666,871.6258849658329,970.2859373324665,419.76186129807905,876.5414552702407,958.3630935022821,434.02529787718066,851.2348767875665,969.4850045650427,420.2056383598998,825.653813912493,963.0921801477994,423.6211858578976,811.7642237629676,981.280903309459,427.9040323444743,866.7103146614252,983.8776037091084,450.9144379647485,845.5017993251344,986.0326682955521,471.79999677396927,822.5187663978894,985.4867830815037,478.8911681486448,808.5591037540202,751.6363525390625,600.9732666015625,1124.02685546875,1000.8937377929688,634.1060791015625,1125.6912841796875,800.4561157226562,421.9654235839844,1150.32568359375,961.8098754882812,424.5146179199219,1154.564697265625,681.2907104492188,567.6981811523438,876.9029541015625,694.1215209960938,667.3352661132812,639.0455322265625,688.8297119140625,554.764892578125,514.8742065429688,712.9949951171875,460.1236877441406,338.9763488769531,803.73046875,357.84747314453125,301.5335693359375,681.0092163085938,576.6216430664062,201.42176818847656,1055.0264892578125,579.8667602539062,801.1897583007812,998.529052734375,540.4757690429688,569.0702514648438,1007.0850830078125,520.3736572265625,433.2459716796875,955.0408325195312,488.56170654296875,224.87820434570312,887.9164428710938,410.6844787597656,166.8716583251953,937.4236450195312,672.5853881835938,177.17160034179688,0.0,0.0,0.0,0.0,0.0,0.0,0.0,0.0,0.0,0.0,0.0,0.0,1.0,0.0,0.0,0.0,0.0,0.0,0.0,0.0,0.0,0.0,0.0,0.0,0.0,1.0,0.0,0.0,0.0,0.0,0.0,0.0,0.0,0.0,0.0,0.0,0.0,0.0,1.0,0.0,0.0,0.0,0.0,0.0,0.0,0.0,0.0,0.0,0.0,0.0,0.0,1.0,0.0,0.0,0.0,0.0,0.0,0.0,0.0,0.0,0.0,0.0,0.0,0.0,1.0,0.0,0.0,0.0,0.0,0.0,0.0,0.0,0.0,0.0,0.0,0.0,0.0,1.0,0.0,0.0,0.0,0.0,0.0,0.0,0.0,0.0,0.0,0.0,0.0,0.0,1.0,0,0,0,0,0,0,0,0,0,0,0,0,0,0,0,0,0,0,0,0,0,0,0,0,0,0,0,0,0,0,0,0,0,0,0,0
1776955216.4969666,126,0,971.1487133062607,413.9411948449301,866.9035317175702,965.5902017888559,409.97379117716196,871.8352196447843,954.3525473403836,425.6761335039898,847.0728629214711,965.8338271260923,413.1532720069784,820.9878322124815,959.5932459269872,417.55076199333786,807.3067463133353,976.7072248236655,417.9085985126983,861.9718437903562,980.0379998185515,441.1620964613039,841.1342932233532,982.7469983156896,461.71480987735475,817.9110727089591,982.2646508098867,468.7054236639204,803.8984518608344,753.1875,598.90869140625,1124.9779052734375,1002.5751342773438,631.3543090820312,1125.5135498046875,801.4390869140625,419.6877136230469,1151.805419921875,962.7717895507812,422.0779113769531,1155.483154296875,683.61865234375,563.4727783203125,878.23046875,696.1044311523438,669.4055786132812,641.0958251953125,689.89404296875,566.0193481445312,506.7983093261719,713.16357421875,486.96368408203125,323.38262939453125,802.3005981445312,388.2542419433594,275.1551818847656,680.2474365234375,616.41015625,197.64703369140625,1055.41650390625,573.3462524414062,800.6232299804688,998.9343872070312,530.0806884765625,569.146484375,1007.3194580078125,508.0209655761719,433.5253601074219,955.1093139648438,473.69921875,225.50112915039062,888.31298828125,395.56201171875,167.31666564941406,937.7979125976562,657.3517456054688,177.1077423095703,0.0,0.0,0.0,0.0,0.0,0.0,0.0,0.0,0.0,0.0,0.0,0.0,1.0,0.0,0.0,0.0,0.0,0.0,0.0,0.0,0.0,0.0,0.0,0.0,0.0,1.0,0.0,0.0,0.0,0.0,0.0,0.0,0.0,0.0,0.0,0.0,0.0,0.0,1.0,0.0,0.0,0.0,0.0,0.0,0.0,0.0,0.0,0.0,0.0,0.0,0.0,1.0,0.0,0.0,0.0,0.0,0.0,0.0,0.0,0.0,0.0,0.0,0.0,0.0,1.0,0.0,0.0,0.0,0.0,0.0,0.0,0.0,0.0,0.0,0.0,0.0,0.0,1.0,0.0,0.0,0.0,0.0,0.0,0.0,0.0,0.0,0.0,0.0,0.0,0.0,1.0,0,0,0,0,0,0,0,0,0,0,0,0,0,0,0,0,0,0,0,0,0,0,0,0,0,0,0,0,0,0,0,0,0,0,0,0
1776955216.5133593,128,0,966.3555600566539,405.42053669290755,861.3549454848271,960.7390320303375,401.54383313916964,866.2930291667435,950.1859265422231,418.53342339145684,842.0854161047151,962.161315556166,407.40077776865013,815.5953248991015,956.0748074091122,412.7395378652355,802.1823855318513,971.9720880829702,409.29724024664546,856.4168618029107,976.077108096254,432.74583076024027,835.9391872239684,979.3534621499921,452.8921943635377,812.4347150886858,978.9357098633396,459.7541921848536,798.3565990147991,754.3964233398438,596.9913940429688,1125.4066162109375,1003.8999633789062,628.79150390625,1124.974609375,802.0516357421875,417.63323974609375,1152.8953857421875,963.3402099609375,419.80316162109375,1156.1087646484375,685.6705322265625,558.5928955078125,878.5540771484375,698.3308715820312,669.3135375976562,641.5968017578125,690.6693115234375,577.079345703125,497.1828918457031,712.7077026367188,515.8733520507812,307.1098327636719,800.7516479492188,422.0257568359375,248.3282470703125,679.0014038085938,657.2841796875,194.13075256347656,1055.5911865234375,566.8271484375,799.927734375,999.2973022460938,519.5955200195312,569.0994873046875,1007.5078735351562,495.6160583496094,433.6795349121094,955.14794921875,458.81427001953125,226.04270935058594,888.66259765625,380.4113464355469,167.64183044433594,938.1925048828125,642.074462890625,177.0462188720703,0.0,0.0,0.0,0.0,0.0,0.0,0.0,0.0,0.0,0.0,0.0,0.0,1.0,0.0,0.0,0.0,0.0,0.0,0.0,0.0,0.0,0.0,0.0,0.0,0.0,1.0,0.0,0.0,0.0,0.0,0.0,0.0,0.0,0.0,0.0,0.0,0.0,0.0,1.0,0.0,0.0,0.0,0.0,0.0,0.0,0.0,0.0,0.0,0.0,0.0,0.0,1.0,0.0,0.0,0.0,0.0,0.0,0.0,0.0,0.0,0.0,0.0,0.0,0.0,1.0,0.0,0.0,0.0,0.0,0.0,0.0,0.0,0.0,0.0,0.0,0.0,0.0,1.0,0.0,0.0,0.0,0.0,0.0,0.0,0.0,0.0,0.0,0.0,0.0,0.0,1.0,0,0,0,0,0,0,0,0,0,0,0,0,0,0,0,0,0,0,0,0,0,0,0,0,0,0,0,0,0,0,0,0,0,0,0,0
1776955216.5365856,130,0,961.5441581060244,398.276526498664,855.4547357083676,955.8655700709766,394.48504714480805,860.3880115166988,945.9750446964267,412.61127613853375,836.7312984561917,958.5747562352142,402.97270658043493,809.9466775200458,952.638783538849,409.19401967009657,796.8503278434762,967.2227461410722,402.06800585251995,850.5214599000363,972.1286139084677,425.6212609111551,830.3422780500089,975.9820874958552,445.2822117243963,806.5164847345576,975.6302879361883,451.9871383244765,792.3610942553116,755.2752075195312,595.281494140625,1125.2647705078125,1004.8773803710938,626.4646606445312,1124.06787109375,802.2965698242188,415.8557434082031,1153.5340576171875,963.5252075195312,417.7393493652344,1156.404052734375,687.1819458007812,553.4907836914062,877.9534912109375,700.6412963867188,667.2256469726562,640.6124877929688,691.15966796875,588.0049438476562,486.72967529296875,711.898681640625,546.4812622070312,291.4264831542969,799.634765625,458.6709899902344,223.03155517578125,677.5590209960938,698.3753662109375,191.82322692871094,1055.60400390625,560.3526000976562,799.1035766601562,999.64990234375,509.05975341796875,568.9442749023438,1007.6917724609375,483.2104187011719,433.7278747558594,955.1928100585938,443.9209899902344,226.5269317626953,888.97900390625,365.2222900390625,167.88760375976562,938.6331176757812,626.7760620117188,177.0203857421875,0.0,0.0,0.0,0.0,0.0,0.0,0.0,0.0,0.0,0.0,0.0,0.0,1.0,0.0,0.0,0.0,0.0,0.0,0.0,0.0,0.0,0.0,0.0,0.0,0.0,1.0,0.0,0.0,0.0,0.0,0.0,0.0,0.0,0.0,0.0,0.0,0.0,0.0,1.0,0.0,0.0,0.0,0.0,0.0,0.0,0.0,0.0,0.0,0.0,0.0,0.0,1.0,0.0,0.0,0.0,0.0,0.0,0.0,0.0,0.0,0.0,0.0,0.0,0.0,1.0,0.0,0.0,0.0,0.0,0.0,0.0,0.0,0.0,0.0,0.0,0.0,0.0,1.0,0.0,0.0,0.0,0.0,0.0,0.0,0.0,0.0,0.0,0.0,0.0,0.0,1.0,0,0,0,0,0,0,0,0,0,0,0,0,0,0,0,0,0,0,0,0,0,0,0,0,0,0,0,0,0,0,0,0,0,0,0,0
1776955216.5662186,133,0,954.9482721021232,390.30152348914123,846.9967248018746,949.168590138573,386.62884849318755,851.9023973080535,940.1769277331276,406.1893379019139,829.0428259248807,953.9531718805066,399.0299827317832,802.0608059222991,948.2449864861005,406.4439970268462,789.4948242734877,960.7279540656733,393.9741984850949,842.0910522956957,966.8169659170355,417.47308899148607,822.1724975743466,971.5088125839542,436.26126952391064,797.7991202988205,971.2483248094012,442.6718658491204,783.5060700947147,756.0226440429688,593.26220703125,1123.9908447265625,1005.7520141601562,623.4634399414062,1122.0816650390625,801.9685668945312,413.8164978027344,1153.5731201171875,963.1004638671875,415.11383056640625,1156.175537109375,688.1390991210938,546.15673828125,875.545654296875,703.9913940429688,661.1506958007812,636.7945556640625,691.399658203125,604.0372924804688,471.2162780761719,710.5770263671875,593.787841796875,271.47918701171875,798.3993530273438,516.2598876953125,190.88124084472656,677.1157836914062,758.7047729492188,192.93240356445312,1055.427001953125,550.8348388671875,797.6583862304688,1000.174560546875,493.3124084472656,568.5795288085938,1008.006591796875,464.73565673828125,433.6936950683594,955.330078125,421.61224365234375,227.2349853515625,889.4662475585938,342.38568115234375,168.2613983154297,939.3795166015625,603.8504638671875,177.03662109375,0.0,0.0,0.0,0.0,0.0,0.0,0.0,0.0,0.0,0.0,0.0,0.0,1.0,0.0,0.0,0.0,0.0,0.0,0.0,0.0,0.0,0.0,0.0,0.0,0.0,1.0,0.0,0.0,0.0,0.0,0.0,0.0,0.0,0.0,0.0,0.0,0.0,0.0,1.0,0.0,0.0,0.0,0.0,0.0,0.0,0.0,0.0,0.0,0.0,0.0,0.0,1.0,0.0,0.0,0.0,0.0,0.0,0.0,0.0,0.0,0.0,0.0,0.0,0.0,1.0,0.0,0.0,0.0,0.0,0.0,0.0,0.0,0.0,0.0,0.0,0.0,0.0,1.0,0.0,0.0,0.0,0.0,0.0,0.0,0.0,0.0,0.0,0.0,0.0,0.0,1.0,0,0,0,0,0,0,0,0,0,0,0,0,0,0,0,0,0,0,0,0,0,0,0,0,0,0,0,0,0,0,0,0,0,0,0,0
1776955216.5912695,136,0,949.6813051240227,385.2194641921879,840.2191344406249,943.8053024892728,381.6584605109046,845.0926068968791,935.5682505278156,402.36251115557303,822.9675983221457,950.7395995956558,397.94141759370063,796.1468084035229,945.3011028368768,406.37687573089914,784.1168174524499,955.5573077587727,388.7804678734712,835.3456619843706,962.7091453702292,411.967601789114,815.4150126697554,968.1518576567995,429.7684696184732,790.4635265383184,967.9615438195239,435.8198371800296,776.0136263815402,756.1602172851562,592.1156616210938,1121.62060546875,1006.0154418945312,621.0708618164062,1119.527587890625,800.7975463867188,412.65399169921875,1152.5208740234375,961.8555908203125,413.1231994628906,1155.1297607421875,687.6264038085938,539.99853515625,871.7151489257812,707.0770263671875,653.2223510742188,631.0827026367188,691.2672119140625,618.986083984375,458.04248046875,709.7640380859375,638.6686401367188,257.8815002441406,795.9949340820312,570.9407958984375,167.47108459472656,682.266845703125,814.1983642578125,201.2752685546875,1055.0699462890625,541.7447509765625,796.0170288085938,1000.6011352539062,477.9112854003906,568.1633911132812,1008.3214721679688,446.6148986816406,433.6806945800781,955.552734375,399.41278076171875,228.06195068359375,890.0371704101562,319.54193115234375,168.7977752685547,940.1192016601562,581.008056640625,176.99996948242188,0.0,0.0,0.0,0.0,0.0,0.0,0.0,0.0,0.0,0.0,0.0,0.0,1.0,0.0,0.0,0.0,0.0,0.0,0.0,0.0,0.0,0.0,0.0,0.0,0.0,1.0,0.0,0.0,0.0,0.0,0.0,0.0,0.0,0.0,0.0,0.0,0.0,0.0,1.0,0.0,0.0,0.0,0.0,0.0,0.0,0.0,0.0,0.0,0.0,0.0,0.0,1.0,0.0,0.0,0.0,0.0,0.0,0.0,0.0,0.0,0.0,0.0,0.0,0.0,1.0,0.0,0.0,0.0,0.0,0.0,0.0,0.0,0.0,0.0,0.0,0.0,0.0,1.0,0.0,0.0,0.0,0.0,0.0,0.0,0.0,0.0,0.0,0.0,0.0,0.0,1.0,0,0,0,0,0,0,0,0,0,0,0,0,0,0,0,0,0,0,0,0,0,0,0,0,0,0,0,0,0,0,0,0,0,0,0,0
1776955216.6168926,139,0,945.4175115270849,381.59593103599474,835.852921503068,939.4393222370936,378.15747985656503,840.6899861360125,931.8685031192292,399.74461158143174,819.179496036468,948.439287166877,398.0094565859587,792.8836974011747,943.350217077245,407.2595577927308,781.3082113833066,951.3957008170762,385.03438221542444,831.0158568701236,959.4307348025671,407.6906949141888,810.8130732427967,965.4995644437213,424.44035935330294,785.2848786210905,965.3674093898404,430.0984680345935,770.6758668661835,755.7537841796875,592.0487060546875,1118.518798828125,1005.7534790039062,619.31494140625,1116.6842041015625,798.7922973632812,412.47174072265625,1150.5394287109375,959.8214721679688,411.8331298828125,1153.345458984375,686.2520141601562,535.8840942382812,867.0391235351562,710.0372314453125,645.621826171875,624.614990234375,691.4078369140625,631.4512939453125,448.4506530761719,710.1640625,675.282958984375,250.4835662841797,791.5863037109375,614.4578247070312,153.3819580078125,694.6611938476562,859.093505859375,214.33612060546875,1054.424560546875,533.3699951171875,794.218994140625,1000.6876220703125,463.2360534667969,567.796875,1008.45068359375,429.08868408203125,433.8519592285156,955.7669677734375,377.401611328125,229.17144775390625,890.6898803710938,296.731689453125,169.49659729003906,940.7288818359375,558.2468872070312,176.8443603515625,0.0,0.0,0.0,0.0,0.0,0.0,0.0,0.0,0.0,0.0,0.0,0.0,1.0,0.0,0.0,0.0,0.0,0.0,0.0,0.0,0.0,0.0,0.0,0.0,0.0,1.0,0.0,0.0,0.0,0.0,0.0,0.0,0.0,0.0,0.0,0.0,0.0,0.0,1.0,0.0,0.0,0.0,0.0,0.0,0.0,0.0,0.0,0.0,0.0,0.0,0.0,1.0,0.0,0.0,0.0,0.0,0.0,0.0,0.0,0.0,0.0,0.0,0.0,0.0,1.0,0.0,0.0,0.0,0.0,0.0,0.0,0.0,0.0,0.0,0.0,0.0,0.0,1.0,0.0,0.0,0.0,0.0,0.0,0.0,0.0,0.0,0.0,0.0,0.0,0.0,1.0,0,0,0,0,0,0,0,0,0,0,0,0,0,0,0,0,0,0,0,0,0,0,0,0,0,0,0,0,0,0,0,0,0,0,0,0
1776955216.6416073,141,0,943.0762636959454,379.41389478070965,834.2519072212436,937.033239145874,376.06138395114107,839.0686917699264,929.887653540285,398.0762069358483,817.8481611957401,947.246355499759,397.80768350950274,792.0087719976254,942.4238032924256,407.44804908064805,780.6394613270178,949.1192882460168,382.76640561027824,829.4351226725609,957.6036779255944,405.01422787531834,808.9638677336708,963.9984696971469,421.0996182343797,783.0903769008688,963.9016704797937,426.4879591142655,768.3794525337107,755.1929931640625,592.6720581054688,1116.2781982421875,1005.304931640625,618.5289306640625,1114.7822265625,797.0098266601562,412.9248962402344,1148.852294921875,958.0466918945312,411.3919982910156,1151.8323974609375,685.2633056640625,534.69287109375,863.799072265625,712.04638671875,641.6768798828125,620.3846435546875,692.1079711914062,637.5406494140625,443.8948059082031,711.4329833984375,692.446533203125,247.7977294921875,788.2778930664062,633.4791259765625,148.70361328125,705.93408203125,879.9931030273438,221.96949768066406,1053.7120361328125,528.3589477539062,792.9431762695312,1000.3985595703125,454.0699157714844,567.6199951171875,1008.3012084960938,417.8604431152344,434.1445617675781,955.823486328125,362.8619079589844,230.1558380126953,891.1343994140625,281.54840087890625,169.97793579101562,941.077880859375,543.1066284179688,176.70965576171875,0.0,0.0,0.0,0.0,0.0,0.0,0.0,0.0,0.0,0.0,0.0,0.0,1.0,0.0,0.0,0.0,0.0,0.0,0.0,0.0,0.0,0.0,0.0,0.0,0.0,1.0,0.0,0.0,0.0,0.0,0.0,0.0,0.0,0.0,0.0,0.0,0.0,0.0,1.0,0.0,0.0,0.0,0.0,0.0,0.0,0.0,0.0,0.0,0.0,0.0,0.0,1.0,0.0,0.0,0.0,0.0,0.0,0.0,0.0,0.0,0.0,0.0,0.0,0.0,1.0,0.0,0.0,0.0,0.0,0.0,0.0,0.0,0.0,0.0,0.0,0.0,0.0,1.0,0.0,0.0,0.0,0.0,0.0,0.0,0.0,0.0,0.0,0.0,0.0,0.0,1.0,0,0,0,0,0,0,0,0,0,0,0,0,0,0,0,0,0,0,0,0,0,0,0,0,0,0,0,0,0,0,0,0,0,0,0,0
1776955216.6651146,142,0,941.7958067748706,378.0829932817359,833.7270653120144,935.7168448304025,374.77972125197795,838.5326353654729,928.7988565150692,396.9593620885499,817.4085327200502,946.4716942723255,397.2259149461559,791.782951207433,941.791162770552,407.01182381361195,780.4788149838499,947.8747687193387,381.3862653114939,828.9214952585559,956.5544109455459,403.4314148179712,808.3132945460513,963.0882367183445,419.1920550477351,782.2752068090717,963.0149878107283,424.4502489691523,767.5171271729918,754.8240966796875,593.1913452148438,1115.1629638671875,1004.9974365234375,618.2609252929688,1113.864990234375,795.9913330078125,413.325927734375,1147.9429931640625,957.0390625,411.3020935058594,1151.006591796875,684.8284912109375,534.6318969726562,862.2229614257812,713.0703735351562,640.1845092773438,618.3829956054688,692.7180786132812,639.7681884765625,442.0271301269531,712.3986206054688,698.4724731445312,246.76028442382812,786.8187255859375,639.4046020507812,147.48822021484375,711.9862670898438,887.228759765625,224.447509765625,1053.240234375,526.0692138671875,792.2854614257812,1000.1162719726562,449.7257080078125,567.560302734375,1008.1246337890625,412.4087829589844,434.3625793457031,955.80322265625,355.6355895996094,230.74549865722656,891.3429565429688,273.9655456542969,170.2074432373047,941.2525634765625,535.5491333007812,176.6399383544922,0.0,0.0,0.0,0.0,0.0,0.0,0.0,0.0,0.0,0.0,0.0,0.0,1.0,0.0,0.0,0.0,0.0,0.0,0.0,0.0,0.0,0.0,0.0,0.0,0.0,1.0,0.0,0.0,0.0,0.0,0.0,0.0,0.0,0.0,0.0,0.0,0.0,0.0,1.0,0.0,0.0,0.0,0.0,0.0,0.0,0.0,0.0,0.0,0.0,0.0,0.0,1.0,0.0,0.0,0.0,0.0,0.0,0.0,0.0,0.0,0.0,0.0,0.0,0.0,1.0,0.0,0.0,0.0,0.0,0.0,0.0,0.0,0.0,0.0,0.0,0.0,0.0,1.0,0.0,0.0,0.0,0.0,0.0,0.0,0.0,0.0,0.0,0.0,0.0,0.0,1.0,0,0,0,0,0,0,0,0,0,0,0,0,0,0,0,0,0,0,0,0,0,0,0,0,0,0,0,0,0,0,0,0,0,0,0,0
1776955216.7027786,147,0,934.976589451289,369.6293221640817,832.6418570351373,928.7427533466254,366.58965182291627,837.4229217283621,923.0365206514709,389.02065781203453,816.2023745796748,941.2692190175921,389.3972875734599,790.9734718490201,937.2455034086958,399.4014772835495,779.6076993629181,941.2104255559526,372.66899250524716,827.8607923419124,950.5607241036481,393.9921083363425,806.7913976930995,957.5319226188319,408.33375350757916,780.0558356506768,957.6149853445276,412.9665782349849,765.0897099365412,752.0265502929688,597.7909545898438,1110.3680419921875,1002.5509643554688,618.2599487304688,1110.0821533203125,789.7420043945312,416.9952392578125,1143.41064453125,950.884033203125,412.13787841796875,1146.657470703125,683.685302734375,539.6560668945312,855.6861572265625,718.0485229492188,637.9598388671875,610.2717895507812,698.0048828125,642.6755981445312,434.9129333496094,719.1763916015625,703.8748779296875,241.2192840576172,783.5358276367188,634.5632934570312,148.26817321777344,738.6362915039062,892.1292114257812,217.0662078857422,1049.48974609375,517.4249267578125,788.9374389648438,997.133056640625,431.3782958984375,567.669189453125,1005.9887084960938,387.1800842285156,436.4980163574219,955.0100708007812,320.0168762207031,235.16580200195312,892.0079956054688,236.24557495117188,171.82974243164062,942.273681640625,497.9370422363281,176.15672302246094,0.0,0.0,0.0,0.0,0.0,0.0,0.0,0.0,0.0,0.0,0.0,0.0,1.0,0.0,0.0,0.0,0.0,0.0,0.0,0.0,0.0,0.0,0.0,0.0,0.0,1.0,0.0,0.0,0.0,0.0,0.0,0.0,0.0,0.0,0.0,0.0,0.0,0.0,1.0,0.0,0.0,0.0,0.0,0.0,0.0,0.0,0.0,0.0,0.0,0.0,0.0,1.0,0.0,0.0,0.0,0.0,0.0,0.0,0.0,0.0,0.0,0.0,0.0,0.0,1.0,0.0,0.0,0.0,0.0,0.0,0.0,0.0,0.0,0.0,0.0,0.0,0.0,1.0,0.0,0.0,0.0,0.0,0.0,0.0,0.0,0.0,0.0,0.0,0.0,0.0,1.0,0,0,0,0,0,0,0,0,0,0,0,0,0,0,0,0,0,0,0,0,0,0,0,0,0,0,0,0,0,0,0,0,0,0,0,0
1776955216.7269664,148,0,933.3765519315184,367.67863932087585,832.6070052103744,927.1109650815233,364.69481034095674,837.3817380832517,921.6458625749875,387.07365869721775,816.0429812453921,939.783826241275,386.99843547150164,790.7431929421921,935.8630175152848,396.9654998344752,779.3090436436603,939.6421387815135,370.66246830079496,827.8322723374971,949.091283249148,391.9077013245983,806.7283275607773,956.1095147947093,405.9879621997399,779.8664335035662,956.2345001742632,410.4977139751155,764.8630538562345,751.2633666992188,599.070556640625,1109.6767578125,1001.8621826171875,618.5226440429688,1109.5615234375,788.283935546875,418.029296875,1142.6229248046875,949.4459228515625,412.5374450683594,1145.832763671875,683.626220703125,541.5595092773438,854.7636108398438,718.90185546875,638.4398193359375,609.1136474609375,699.208251953125,641.927490234375,433.7903137207031,720.4608154296875,700.9898071289062,239.89920043945312,783.5297241210938,628.5101318359375,149.1728057861328,742.07763671875,888.1234741210938,212.3990478515625,1048.4693603515625,516.3779296875,788.3010864257812,996.254638671875,428.6355285644531,567.7914428710938,1005.3302612304688,382.67132568359375,437.21087646484375,954.7285766601562,313.0504150390625,236.47305297851562,892.0670166015625,228.78643798828125,172.556640625,942.4982299804688,490.4388427734375,176.01681518554688,0.0,0.0,0.0,0.0,0.0,0.0,0.0,0.0,0.0,0.0,0.0,0.0,1.0,0.0,0.0,0.0,0.0,0.0,0.0,0.0,0.0,0.0,0.0,0.0,0.0,1.0,0.0,0.0,0.0,0.0,0.0,0.0,0.0,0.0,0.0,0.0,0.0,0.0,1.0,0.0,0.0,0.0,0.0,0.0,0.0,0.0,0.0,0.0,0.0,0.0,0.0,1.0,0.0,0.0,0.0,0.0,0.0,0.0,0.0,0.0,0.0,0.0,0.0,0.0,1.0,0.0,0.0,0.0,0.0,0.0,0.0,0.0,0.0,0.0,0.0,0.0,0.0,1.0,0.0,0.0,0.0,0.0,0.0,0.0,0.0,0.0,0.0,0.0,0.0,0.0,1.0,0,0,0,0,0,0,0,0,0,0,0,0,0,0,0,0,0,0,0,0,0,0,0,0,0,0,0,0,0,0,0,0,0,0,0,0
