Timestamp,Vicon_Frame_Num,Vicon_Recv_Timestamp,IMU_Recv_Timestamp,Planter_Recv_Timestamp,Vicon_Gap_Flag,Vicon_Gap_Size,IMU_Stale_ms,Planter_Stale_ms,IMU_Matched_Flag,Planter_Matched_Flag,Vicon_Root_X,Vicon_Root_Y,Vicon_Root_Z,Vicon_L_Femur_X,Vicon_L_Femur_Y,Vicon_L_Femur_Z,Vicon_L_Tibia_X,Vicon_L_Tibia_Y,Vicon_L_Tibia_Z,Vicon_L_Foot_X,Vicon_L_Foot_Y,Vicon_L_Foot_Z,Vicon_L_Toe_X,Vicon_L_Toe_Y,Vicon_L_Toe_Z,Vicon_R_Femur_X,Vicon_R_Femur_Y,Vicon_R_Femur_Z,Vicon_R_Tibia_X,Vicon_R_Tibia_Y,Vicon_R_Tibia_Z,Vicon_R_Foot_X,Vicon_R_Foot_Y,Vicon_R_Foot_Z,Vicon_R_Toe_X,Vicon_R_Toe_Y,Vicon_R_Toe_Z,Vicon_LASI_X,Vicon_LASI_Y,Vicon_LASI_Z,Vicon_RASI_X,Vicon_RASI_Y,Vicon_RASI_Z,Vicon_LPSI_X,Vicon_LPSI_Y,Vicon_LPSI_Z,Vicon_RPSI_X,Vicon_RPSI_Y,Vicon_RPSI_Z,Vicon_LTHI_X,Vicon_LTHI_Y,Vicon_LTHI_Z,Vicon_LKNE_X,Vicon_LKNE_Y,Vicon_LKNE_Z,Vicon_LTIB_X,Vicon_LTIB_Y,Vicon_LTIB_Z,Vicon_LANK_X,Vicon_LANK_Y,Vicon_LANK_Z,Vicon_LHEE_X,Vicon_LHEE_Y,Vicon_LHEE_Z,Vicon_LTOE_X,Vicon_LTOE_Y,Vicon_LTOE_Z,Vicon_RTHI_X,Vicon_RTHI_Y,Vicon_RTHI_Z,Vicon_RKNE_X,Vicon_RKNE_Y,Vicon_RKNE_Z,Vicon_RTIB_X,Vicon_RTIB_Y,Vicon_RTIB_Z,Vicon_RANK_X,Vicon_RANK_Y,Vicon_RANK_Z,Vicon_RHEE_X,Vicon_RHEE_Y,Vicon_RHEE_Z,Vicon_RTOE_X,Vicon_RTOE_Y,Vicon_RTOE_Z,IMU_Trunk_Acc_X,IMU_Trunk_Acc_Y,IMU_Trunk_Acc_Z,IMU_Trunk_Gyro_X,IMU_Trunk_Gyro_Y,IMU_Trunk_Gyro_Z,IMU_Trunk_Roll,IMU_Trunk_Pitch,IMU_Trunk_Yaw,IMU_Trunk_Quat_x,IMU_Trunk_Quat_y,IMU_Trunk_Quat_z,IMU_Trunk_Quat_w,IMU_L_Femur_Acc_X,IMU_L_Femur_Acc_Y,IMU_L_Femur_Acc_Z,IMU_L_Femur_Gyro_X,IMU_L_Femur_Gyro_Y,IMU_L_Femur_Gyro_Z,IMU_L_Femur_Roll,IMU_L_Femur_Pitch,IMU_L_Femur_Yaw,IMU_L_Femur_Quat_x,IMU_L_Femur_Quat_y,IMU_L_Femur_Quat_z,IMU_L_Femur_Quat_w,IMU_L_Tibia_Acc_X,IMU_L_Tibia_Acc_Y,IMU_L_Tibia_Acc_Z,IMU_L_Tibia_Gyro_X,IMU_L_Tibia_Gyro_Y,IMU_L_Tibia_Gyro_Z,IMU_L_Tibia_Roll,IMU_L_Tibia_Pitch,IMU_L_Tibia_Yaw,IMU_L_Tibia_Quat_x,IMU_L_Tibia_Quat_y,IMU_L_Tibia_Quat_z,IMU_L_Tibia_Quat_w,IMU_L_Foot_Acc_X,IMU_L_Foot_Acc_Y,IMU_L_Foot_Acc_Z,IMU_L_Foot_Gyro_X,IMU_L_Foot_Gyro_Y,IMU_L_Foot_Gyro_Z,IMU_L_Foot_Roll,IMU_L_Foot_Pitch,IMU_L_Foot_Yaw,IMU_L_Foot_Quat_x,IMU_L_Foot_Quat_y,IMU_L_Foot_Quat_z,IMU_L_Foot_Quat_w,IMU_R_Femur_Acc_X,IMU_R_Femur_Acc_Y,IMU_R_Femur_Acc_Z,IMU_R_Femur_Gyro_X,IMU_R_Femur_Gyro_Y,IMU_R_Femur_Gyro_Z,IMU_R_Femur_Roll,IMU_R_Femur_Pitch,IMU_R_Femur_Yaw,IMU_R_Femur_Quat_x,IMU_R_Femur_Quat_y,IMU_R_Femur_Quat_z,IMU_R_Femur_Quat_w,IMU_R_Tibia_Acc_X,IMU_R_Tibia_Acc_Y,IMU_R_Tibia_Acc_Z,IMU_R_Tibia_Gyro_X,IMU_R_Tibia_Gyro_Y,IMU_R_Tibia_Gyro_Z,IMU_R_Tibia_Roll,IMU_R_Tibia_Pitch,IMU_R_Tibia_Yaw,IMU_R_Tibia_Quat_x,IMU_R_Tibia_Quat_y,IMU_R_Tibia_Quat_z,IMU_R_Tibia_Quat_w,IMU_R_Foot_Acc_X,IMU_R_Foot_Acc_Y,IMU_R_Foot_Acc_Z,IMU_R_Foot_Gyro_X,IMU_R_Foot_Gyro_Y,IMU_R_Foot_Gyro_Z,IMU_R_Foot_Roll,IMU_R_Foot_Pitch,IMU_R_Foot_Yaw,IMU_R_Foot_Quat_x,IMU_R_Foot_Quat_y,IMU_R_Foot_Quat_z,IMU_R_Foot_Quat_w,Planter_Left_0,Planter_Left_1,Planter_Left_2,Planter_Left_3,Planter_Left_4,Planter_Left_5,Planter_Left_6,Planter_Left_7,Planter_Left_8,Planter_Left_9,Planter_Left_10,Planter_Left_11,Planter_Left_12,Planter_Left_13,Planter_Left_14,Planter_Left_15,Planter_Left_16,Planter_Left_17,Planter_Right_0,Planter_Right_1,Planter_Right_2,Planter_Right_3,Planter_Right_4,Planter_Right_5,Planter_Right_6,Planter_Right_7,Planter_Right_8,Planter_Right_9,Planter_Right_10,Planter_Right_11,Planter_Right_12,Planter_Right_13,Planter_Right_14,Planter_Right_15,Planter_Right_16,Planter_Right_17
1777291275.375087,6186,1777291269.4690614,1777291269.6336343,1777291270.4952357,0,0,-164.57295417785645,-1026.1743068695068,1,1,0.0,0.0,0.0,0.0,0.0,0.0,0.0,0.0,0.0,0.0,0.0,0.0,0.0,0.0,0.0,0.0,0.0,0.0,0.0,0.0,0.0,0.0,0.0,0.0,0.0,0.0,0.0,0.0,0.0,0.0,0.0,0.0,0.0,0.0,0.0,0.0,0.0,0.0,0.0,0.0,0.0,0.0,0.0,0.0,0.0,0.0,0.0,0.0,0.0,0.0,0.0,0.0,0.0,0.0,0.0,0.0,0.0,0.0,0.0,0.0,0.0,0.0,0.0,0.0,0.0,0.0,0.0,0.0,0.0,0.0,0.0,0.0,0.0,0.0,0.0,0.0,0.0,0.0,0.0,0.0,0.0,0.0,0.0,0.0,0.0,0.0,0.0,1.0,0.9092,9.6517,-0.7034,0.1831,-0.3662,-0.1221,94.1748,-5.3394,-177.2589,0.0492,0.7306,-0.6808,-0.0178,0.0,0.0,0.0,0.0,0.0,0.0,0.0,0.0,0.0,0.0,0.0,0.0,1.0,0.0,0.0,0.0,0.0,0.0,0.0,0.0,0.0,0.0,0.0,0.0,0.0,1.0,0.0,0.0,0.0,0.0,0.0,0.0,0.0,0.0,0.0,0.0,0.0,0.0,1.0,0.0,0.0,0.0,0.0,0.0,0.0,0.0,0.0,0.0,0.0,0.0,0.0,1.0,0.0,0.0,0.0,0.0,0.0,0.0,0.0,0.0,0.0,0.0,0.0,0.0,1.0,0,0,55568,31763,0,0,0,0,51476,22,30468,0,0,0,0,0,0,0,0,0,0,0,0,0,0,0,0,0,0,0,0,0,0,0,0,0
1777291275.375087,6187,1777291269.480014,1777291269.6336343,1777291270.4952357,0,0,-153.62024307250977,-1015.2215957641602,1,1,0.0,0.0,0.0,0.0,0.0,0.0,0.0,0.0,0.0,0.0,0.0,0.0,0.0,0.0,0.0,0.0,0.0,0.0,0.0,0.0,0.0,0.0,0.0,0.0,0.0,0.0,0.0,752.1221313476562,605.5916748046875,1115.710205078125,1001.7879638671875,638.5158081054688,1115.1904296875,801.4619750976562,426.4787292480469,1138.6168212890625,963.4131469726562,426.3126525878906,1141.868896484375,692.349365234375,523.1787719726562,848.4592895507812,717.7692260742188,549.8369750976562,594.4100952148438,709.69091796875,417.3568420410156,487.87347412109375,736.158935546875,293.6826171875,329.1990661621094,812.3837890625,172.94349670410156,325.20989990234375,757.666015625,376.644775390625,170.70225524902344,1057.34912109375,606.6990966796875,802.0882568359375,1003.2755126953125,601.02490234375,567.7947998046875,1012.8870239257812,592.155517578125,431.71343994140625,962.3207397460938,579.6626586914062,221.02621459960938,891.2753295898438,507.1343994140625,164.56214904785156,950.4632568359375,767.3265380859375,176.94882202148438,0.0,0.0,0.0,0.0,0.0,0.0,0.0,0.0,0.0,0.0,0.0,0.0,1.0,0.9092,9.6517,-0.7034,0.1831,-0.3662,-0.1221,94.1748,-5.3394,-177.2589,0.0492,0.7306,-0.6808,-0.0178,0.0,0.0,0.0,0.0,0.0,0.0,0.0,0.0,0.0,0.0,0.0,0.0,1.0,0.0,0.0,0.0,0.0,0.0,0.0,0.0,0.0,0.0,0.0,0.0,0.0,1.0,0.0,0.0,0.0,0.0,0.0,0.0,0.0,0.0,0.0,0.0,0.0,0.0,1.0,0.0,0.0,0.0,0.0,0.0,0.0,0.0,0.0,0.0,0.0,0.0,0.0,1.0,0.0,0.0,0.0,0.0,0.0,0.0,0.0,0.0,0.0,0.0,0.0,0.0,1.0,0,0,55568,31763,0,0,0,0,51476,22,30468,0,0,0,0,0,0,0,0,0,0,0,0,0,0,0,0,0,0,0,0,0,0,0,0,0
1777291275.376089,6188,1777291269.4831276,1777291269.6336343,1777291270.4952357,0,0,-150.50673484802246,-1012.1080875396729,1,1,0.0,0.0,0.0,0.0,0.0,0.0,0.0,0.0,0.0,0.0,0.0,0.0,0.0,0.0,0.0,0.0,0.0,0.0,0.0,0.0,0.0,0.0,0.0,0.0,0.0,0.0,0.0,753.4351196289062,604.5875854492188,1116.325439453125,1002.9464721679688,638.4075317382812,1115.793701171875,803.2489624023438,425.6080627441406,1139.0404052734375,965.166015625,426.05584716796875,1142.4244384765625,693.3458251953125,525.7142944335938,849.3857421875,716.0560913085938,557.9769897460938,596.123779296875,708.9356079101562,424.6112976074219,492.3878479003906,736.1854858398438,298.5052185058594,336.0903625488281,814.0799560546875,181.4849090576172,339.65692138671875,756.1163940429688,375.65179443359375,170.9988250732422,1058.8587646484375,605.1090087890625,801.7826538085938,1004.044677734375,597.4689331054688,567.6153564453125,1013.4464721679688,587.3109130859375,431.5638732910156,962.5813598632812,572.7189331054688,221.19102478027344,891.538818359375,499.8091735839844,164.68710327148438,950.6093139648438,760.051025390625,176.68173217773438,0.0,0.0,0.0,0.0,0.0,0.0,0.0,0.0,0.0,0.0,0.0,0.0,1.0,0.9092,9.6517,-0.7034,0.1831,-0.3662,-0.1221,94.1748,-5.3394,-177.2589,0.0492,0.7306,-0.6808,-0.0178,0.0,0.0,0.0,0.0,0.0,0.0,0.0,0.0,0.0,0.0,0.0,0.0,1.0,0.0,0.0,0.0,0.0,0.0,0.0,0.0,0.0,0.0,0.0,0.0,0.0,1.0,0.0,0.0,0.0,0.0,0.0,0.0,0.0,0.0,0.0,0.0,0.0,0.0,1.0,0.0,0.0,0.0,0.0,0.0,0.0,0.0,0.0,0.0,0.0,0.0,0.0,1.0,0.0,0.0,0.0,0.0,0.0,0.0,0.0,0.0,0.0,0.0,0.0,0.0,1.0,0,0,55568,31763,0,0,0,0,51476,22,30468,0,0,0,0,0,0,0,0,0,0,0,0,0,0,0,0,0,0,0,0,0,0,0,0,0
1777291275.376089,6189,1777291269.4981325,1777291269.6336343,1777291270.4952357,0,0,-135.50186157226562,-997.103214263916,1,1,0.0,0.0,0.0,0.0,0.0,0.0,0.0,0.0,0.0,0.0,0.0,0.0,0.0,0.0,0.0,0.0,0.0,0.0,0.0,0.0,0.0,0.0,0.0,0.0,0.0,0.0,0.0,754.6690063476562,603.4483032226562,1116.9439697265625,1004.0294799804688,638.157958984375,1116.358642578125,804.9954223632812,424.6089172363281,1139.5147705078125,966.8735961914062,425.6733703613281,1142.9954833984375,694.112548828125,528.1468505859375,850.505859375,714.3475341796875,565.9007568359375,598.1096801757812,708.3008422851562,431.8660583496094,496.8612365722656,736.4634399414062,303.757080078125,342.6907043457031,815.935791015625,190.51309204101562,352.53900146484375,754.4202270507812,375.981689453125,172.06871032714844,1060.265380859375,603.3499145507812,801.4144287109375,1004.7361450195312,593.7005615234375,567.3980102539062,1013.916259765625,582.321533203125,431.38885498046875,962.7900390625,565.74560546875,221.351806640625,891.7726440429688,492.4682312011719,164.8162384033203,950.744140625,752.7424926757812,176.42442321777344,0.0,0.0,0.0,0.0,0.0,0.0,0.0,0.0,0.0,0.0,0.0,0.0,1.0,0.9092,9.6517,-0.7034,0.1831,-0.3662,-0.1221,94.1748,-5.3394,-177.2589,0.0492,0.7306,-0.6808,-0.0178,0.0,0.0,0.0,0.0,0.0,0.0,0.0,0.0,0.0,0.0,0.0,0.0,1.0,0.0,0.0,0.0,0.0,0.0,0.0,0.0,0.0,0.0,0.0,0.0,0.0,1.0,0.0,0.0,0.0,0.0,0.0,0.0,0.0,0.0,0.0,0.0,0.0,0.0,1.0,0.0,0.0,0.0,0.0,0.0,0.0,0.0,0.0,0.0,0.0,0.0,0.0,1.0,0.0,0.0,0.0,0.0,0.0,0.0,0.0,0.0,0.0,0.0,0.0,0.0,1.0,0,0,55568,31763,0,0,0,0,51476,22,30468,0,0,0,0,0,0,0,0,0,0,0,0,0,0,0,0,0,0,0,0,0,0,0,0,0
1777291275.376089,6190,1777291269.5164173,1777291269.6336343,1777291270.4952357,0,0,-117.2170639038086,-978.818416595459,1,1,0.0,0.0,0.0,0.0,0.0,0.0,0.0,0.0,0.0,0.0,0.0,0.0,0.0,0.0,0.0,0.0,0.0,0.0,0.0,0.0,0.0,0.0,0.0,0.0,0.0,0.0,0.0,755.829345703125,602.1949462890625,1117.5692138671875,1005.0447387695312,637.7693481445312,1116.8863525390625,806.6887817382812,423.4941711425781,1140.0399169921875,968.5260620117188,425.1684875488281,1143.5792236328125,694.6552734375,530.4642333984375,851.8167724609375,712.6815185546875,573.557373046875,600.3504028320312,707.8095092773438,439.0572509765625,501.22479248046875,736.9839477539062,309.39892578125,348.8554992675781,818.007080078125,199.6051025390625,363.2940368652344,752.51904296875,377.8566589355469,174.01231384277344,1061.5389404296875,601.4424438476562,801.0071411132812,1005.3477172851562,589.74365234375,567.1640625,1014.30078125,577.2046508789062,431.2104797363281,962.9512329101562,558.7401123046875,221.52000427246094,891.9783325195312,485.10882568359375,164.95101928710938,950.87060546875,745.396728515625,176.19627380371094,0.0,0.0,0.0,0.0,0.0,0.0,0.0,0.0,0.0,0.0,0.0,0.0,1.0,0.9092,9.6517,-0.7034,0.1831,-0.3662,-0.1221,94.1748,-5.3394,-177.2589,0.0492,0.7306,-0.6808,-0.0178,0.0,0.0,0.0,0.0,0.0,0.0,0.0,0.0,0.0,0.0,0.0,0.0,1.0,0.0,0.0,0.0,0.0,0.0,0.0,0.0,0.0,0.0,0.0,0.0,0.0,1.0,0.0,0.0,0.0,0.0,0.0,0.0,0.0,0.0,0.0,0.0,0.0,0.0,1.0,0.0,0.0,0.0,0.0,0.0,0.0,0.0,0.0,0.0,0.0,0.0,0.0,1.0,0.0,0.0,0.0,0.0,0.0,0.0,0.0,0.0,0.0,0.0,0.0,0.0,1.0,0,0,55568,31763,0,0,0,0,51476,22,30468,0,0,0,0,0,0,0,0,0,0,0,0,0,0,0,0,0,0,0,0,0,0,0,0,0
1777291275.376089,6191,1777291269.521067,1777291269.6336343,1777291270.4952357,0,0,-112.56742477416992,-974.1687774658203,1,1,0.0,0.0,0.0,0.0,0.0,0.0,0.0,0.0,0.0,0.0,0.0,0.0,0.0,0.0,0.0,0.0,0.0,0.0,0.0,0.0,0.0,0.0,0.0,0.0,0.0,0.0,0.0,756.9212036132812,600.848388671875,1118.20654296875,1005.9998168945312,637.2454223632812,1117.3809814453125,808.3172607421875,422.27728271484375,1140.6163330078125,970.1136474609375,424.54571533203125,1144.173583984375,694.9934692382812,532.6484985351562,853.3088989257812,711.0908813476562,580.908203125,602.8217163085938,707.4714965820312,446.1404724121094,505.4040832519531,737.7184448242188,315.407958984375,354.444091796875,820.3284301757812,208.41543579101562,371.51104736328125,750.3531494140625,381.44873046875,176.83343505859375,1062.657470703125,599.40673828125,800.58544921875,1005.8806762695312,585.6170654296875,566.934326171875,1014.608154296875,571.971435546875,431.0487976074219,963.0712280273438,551.6991577148438,221.70545959472656,892.1593017578125,477.7279052734375,165.09410095214844,950.99267578125,738.0125122070312,176.0104217529297,0.0,0.0,0.0,0.0,0.0,0.0,0.0,0.0,0.0,0.0,0.0,0.0,1.0,0.9092,9.6517,-0.7034,0.1831,-0.3662,-0.1221,94.1748,-5.3394,-177.2589,0.0492,0.7306,-0.6808,-0.0178,0.0,0.0,0.0,0.0,0.0,0.0,0.0,0.0,0.0,0.0,0.0,0.0,1.0,0.0,0.0,0.0,0.0,0.0,0.0,0.0,0.0,0.0,0.0,0.0,0.0,1.0,0.0,0.0,0.0,0.0,0.0,0.0,0.0,0.0,0.0,0.0,0.0,0.0,1.0,0.0,0.0,0.0,0.0,0.0,0.0,0.0,0.0,0.0,0.0,0.0,0.0,1.0,0.0,0.0,0.0,0.0,0.0,0.0,0.0,0.0,0.0,0.0,0.0,0.0,1.0,0,0,55568,31763,0,0,0,0,51476,22,30468,0,0,0,0,0,0,0,0,0,0,0,0,0,0,0,0,0,0,0,0,0,0,0,0,0
1777291275.376089,6192,1777291269.534119,1777291269.6336343,1777291270.4952357,0,0,-99.51543807983398,-961.1167907714844,1,1,0.0,0.0,0.0,0.0,0.0,0.0,0.0,0.0,0.0,0.0,0.0,0.0,0.0,0.0,0.0,0.0,0.0,0.0,0.0,0.0,0.0,0.0,0.0,0.0,0.0,0.0,0.0,757.9490356445312,599.42822265625,1118.862060546875,1006.9017333984375,636.5911865234375,1117.8482666015625,809.8699951171875,420.9716796875,1141.2447509765625,971.6276245117188,423.81072998046875,1144.77783203125,695.1582641601562,534.6754150390625,854.966064453125,709.6030883789062,587.9246215820312,605.4935302734375,707.2838134765625,453.089111328125,509.3216247558594,738.6202392578125,321.77728271484375,359.32562255859375,822.8934936523438,216.752197265625,376.990478515625,747.8753051757812,386.84130859375,180.4192352294922,1063.6077880859375,597.2606811523438,800.1725463867188,1006.3396606445312,581.3348388671875,566.7272338867188,1014.849365234375,566.6278076171875,430.920654296875,963.157470703125,544.6192626953125,221.91574096679688,892.3209838867188,470.3222961425781,165.24908447265625,951.1148681640625,730.5911254882812,175.87342834472656,0.0,0.0,0.0,0.0,0.0,0.0,0.0,0.0,0.0,0.0,0.0,0.0,1.0,0.9092,9.6517,-0.7034,0.1831,-0.3662,-0.1221,94.1748,-5.3394,-177.2589,0.0492,0.7306,-0.6808,-0.0178,0.0,0.0,0.0,0.0,0.0,0.0,0.0,0.0,0.0,0.0,0.0,0.0,1.0,0.0,0.0,0.0,0.0,0.0,0.0,0.0,0.0,0.0,0.0,0.0,0.0,1.0,0.0,0.0,0.0,0.0,0.0,0.0,0.0,0.0,0.0,0.0,0.0,0.0,1.0,0.0,0.0,0.0,0.0,0.0,0.0,0.0,0.0,0.0,0.0,0.0,0.0,1.0,0.0,0.0,0.0,0.0,0.0,0.0,0.0,0.0,0.0,0.0,0.0,0.0,1.0,0,0,55568,31763,0,0,0,0,51476,22,30468,0,0,0,0,0,0,0,0,0,0,0,0,0,0,0,0,0,0,0,0,0,0,0,0,0
1777291275.376089,6193,1777291269.5376122,1777291269.6336343,1777291270.4952357,0,0,-96.02212905883789,-957.6234817504883,1,1,0.0,0.0,0.0,0.0,0.0,0.0,0.0,0.0,0.0,0.0,0.0,0.0,0.0,0.0,0.0,0.0,0.0,0.0,0.0,0.0,0.0,0.0,0.0,0.0,0.0,0.0,0.0,758.916015625,597.9524536132812,1119.5418701171875,1007.755859375,635.8130493164062,1118.2950439453125,811.3377685546875,419.590576171875,1141.9251708984375,973.0601196289062,422.97027587890625,1145.3916015625,695.189453125,536.5160522460938,856.7660522460938,708.2401733398438,594.5858764648438,608.3308715820312,707.2324829101562,459.8908996582031,512.9000244140625,739.6282958984375,328.5138854980469,363.3836975097656,825.6456298828125,224.61500549316406,379.7631530761719,745.0635375976562,394.0086975097656,184.5454559326172,1064.3861083984375,595.0188598632812,799.7883911132812,1006.7320556640625,576.9067993164062,566.5580444335938,1015.037353515625,561.176025390625,430.8388671875,963.2181396484375,537.4974975585938,222.15591430664062,892.4705200195312,462.8890075683594,165.419921875,951.2420654296875,723.1353759765625,175.78599548339844,0.0,0.0,0.0,0.0,0.0,0.0,0.0,0.0,0.0,0.0,0.0,0.0,1.0,0.9092,9.6517,-0.7034,0.1831,-0.3662,-0.1221,94.1748,-5.3394,-177.2589,0.0492,0.7306,-0.6808,-0.0178,0.0,0.0,0.0,0.0,0.0,0.0,0.0,0.0,0.0,0.0,0.0,0.0,1.0,0.0,0.0,0.0,0.0,0.0,0.0,0.0,0.0,0.0,0.0,0.0,0.0,1.0,0.0,0.0,0.0,0.0,0.0,0.0,0.0,0.0,0.0,0.0,0.0,0.0,1.0,0.0,0.0,0.0,0.0,0.0,0.0,0.0,0.0,0.0,0.0,0.0,0.0,1.0,0.0,0.0,0.0,0.0,0.0,0.0,0.0,0.0,0.0,0.0,0.0,0.0,1.0,0,0,55568,31763,0,0,0,0,51476,22,30468,0,0,0,0,0,0,0,0,0,0,0,0,0,0,0,0,0,0,0,0,0,0,0,0,0
1777291275.376089,6194,1777291269.551797,1777291269.6336343,1777291270.4952357,0,0,-81.83741569519043,-943.4387683868408,1,1,0.0,0.0,0.0,0.0,0.0,0.0,0.0,0.0,0.0,0.0,0.0,0.0,0.0,0.0,0.0,0.0,0.0,0.0,0.0,0.0,0.0,0.0,0.0,0.0,0.0,0.0,0.0,759.8236694335938,596.4364013671875,1120.250732421875,1008.566162109375,634.9187622070312,1118.72802734375,812.7128295898438,418.14666748046875,1142.6566162109375,974.4044189453125,422.0320129394531,1146.0147705078125,695.1316528320312,538.13818359375,858.6812133789062,707.01953125,600.8763427734375,611.2951049804688,707.2946166992188,466.5444030761719,516.0653686523438,740.6727294921875,335.63507080078125,366.52008056640625,828.4842529296875,232.17376708984375,380.057861328125,741.9278564453125,402.82220458984375,188.90875244140625,1064.9974365234375,592.6917724609375,799.4482421875,1007.0665283203125,572.33935546875,566.4380493164062,1015.1853637695312,555.6160888671875,430.811767578125,963.2611083984375,530.331787109375,222.4284210205078,892.615966796875,455.4256591796875,165.61026000976562,951.3779296875,715.64892578125,175.74386596679688,0.0,0.0,0.0,0.0,0.0,0.0,0.0,0.0,0.0,0.0,0.0,0.0,1.0,0.9092,9.6517,-0.7034,0.1831,-0.3662,-0.1221,94.1748,-5.3394,-177.2589,0.0492,0.7306,-0.6808,-0.0178,0.0,0.0,0.0,0.0,0.0,0.0,0.0,0.0,0.0,0.0,0.0,0.0,1.0,0.0,0.0,0.0,0.0,0.0,0.0,0.0,0.0,0.0,0.0,0.0,0.0,1.0,0.0,0.0,0.0,0.0,0.0,0.0,0.0,0.0,0.0,0.0,0.0,0.0,1.0,0.0,0.0,0.0,0.0,0.0,0.0,0.0,0.0,0.0,0.0,0.0,0.0,1.0,0.0,0.0,0.0,0.0,0.0,0.0,0.0,0.0,0.0,0.0,0.0,0.0,1.0,0,0,55568,31763,0,0,0,0,51476,22,30468,0,0,0,0,0,0,0,0,0,0,0,0,0,0,0,0,0,0,0,0,0,0,0,0,0
1777291275.376089,6195,1777291269.5547981,1777291269.6336343,1777291270.4952357,0,0,-78.83620262145996,-940.4375553131104,1,1,0.0,0.0,0.0,0.0,0.0,0.0,0.0,0.0,0.0,0.0,0.0,0.0,0.0,0.0,0.0,0.0,0.0,0.0,0.0,0.0,0.0,0.0,0.0,0.0,0.0,0.0,0.0,760.6724853515625,594.8932495117188,1120.99169921875,1009.3342895507812,633.917236328125,1119.152099609375,813.9892578125,416.65191650390625,1143.4371337890625,975.6552124023438,421.0043640136719,1146.6474609375,695.0302124023438,539.5089111328125,860.679931640625,705.9541625976562,606.783447265625,614.3445434570312,707.44140625,473.0550842285156,518.7505493164062,741.6800537109375,343.1636657714844,368.6575927734375,831.280029296875,239.7013702392578,378.22882080078125,738.5094604492188,413.0823059082031,193.17697143554688,1065.4541015625,590.2850952148438,799.1618041992188,1007.3526000976562,567.63671875,566.3740844726562,1015.3055419921875,549.9469604492188,430.84320068359375,963.2931518554688,523.121337890625,222.733154296875,892.7650756835938,447.9312744140625,165.8226318359375,951.5241088867188,708.1353759765625,175.73922729492188,0.0,0.0,0.0,0.0,0.0,0.0,0.0,0.0,0.0,0.0,0.0,0.0,1.0,0.9092,9.6517,-0.7034,0.1831,-0.3662,-0.1221,94.1748,-5.3394,-177.2589,0.0492,0.7306,-0.6808,-0.0178,0.0,0.0,0.0,0.0,0.0,0.0,0.0,0.0,0.0,0.0,0.0,0.0,1.0,0.0,0.0,0.0,0.0,0.0,0.0,0.0,0.0,0.0,0.0,0.0,0.0,1.0,0.0,0.0,0.0,0.0,0.0,0.0,0.0,0.0,0.0,0.0,0.0,0.0,1.0,0.0,0.0,0.0,0.0,0.0,0.0,0.0,0.0,0.0,0.0,0.0,0.0,1.0,0.0,0.0,0.0,0.0,0.0,0.0,0.0,0.0,0.0,0.0,0.0,0.0,1.0,0,0,55568,31763,0,0,0,0,51476,22,30468,0,0,0,0,0,0,0,0,0,0,0,0,0,0,0,0,0,0,0,0,0,0,0,0,0
1777291275.376089,6196,1777291269.5696077,1777291269.6336343,1777291270.4952357,0,0,-64.0265941619873,-925.6279468536377,1,1,0.0,0.0,0.0,0.0,0.0,0.0,0.0,0.0,0.0,0.0,0.0,0.0,0.0,0.0,0.0,0.0,0.0,0.0,0.0,0.0,0.0,0.0,0.0,0.0,0.0,0.0,0.0,761.46142578125,593.3333740234375,1121.7650146484375,1010.0601806640625,632.8187255859375,1119.5701904296875,815.162841796875,415.1175231933594,1144.2628173828125,976.808349609375,419.8963928222656,1147.2890625,694.927978515625,540.5974731445312,862.7275390625,705.0532836914062,612.2958374023438,617.4354248046875,707.6414794921875,479.4317321777344,520.8980102539062,742.5797119140625,351.1225891113281,369.7423400878906,833.8922119140625,247.49227905273438,374.66790771484375,734.873779296875,424.5641174316406,197.04296875,1065.7740478515625,587.7999877929688,798.9329223632812,1007.599365234375,562.8016967773438,566.3685913085938,1015.4082641601562,544.1676635742188,430.93292236328125,963.3196411132812,515.8667602539062,223.06790161132812,892.9240112304688,440.40673828125,166.05807495117188,951.6803588867188,700.59814453125,175.76223754882812,0.0,0.0,0.0,0.0,0.0,0.0,0.0,0.0,0.0,0.0,0.0,0.0,1.0,0.9092,9.6517,-0.7034,0.1831,-0.3662,-0.1221,94.1748,-5.3394,-177.2589,0.0492,0.7306,-0.6808,-0.0178,0.0,0.0,0.0,0.0,0.0,0.0,0.0,0.0,0.0,0.0,0.0,0.0,1.0,0.0,0.0,0.0,0.0,0.0,0.0,0.0,0.0,0.0,0.0,0.0,0.0,1.0,0.0,0.0,0.0,0.0,0.0,0.0,0.0,0.0,0.0,0.0,0.0,0.0,1.0,0.0,0.0,0.0,0.0,0.0,0.0,0.0,0.0,0.0,0.0,0.0,0.0,1.0,0.0,0.0,0.0,0.0,0.0,0.0,0.0,0.0,0.0,0.0,0.0,0.0,1.0,0,0,55568,31763,0,0,0,0,51476,22,30468,0,0,0,0,0,0,0,0,0,0,0,0,0,0,0,0,0,0,0,0,0,0,0,0,0
1777291275.376089,6197,1777291269.571613,1777291269.6336343,1777291270.4952357,0,0,-62.02125549316406,-923.6226081848145,1,1,0.0,0.0,0.0,0.0,0.0,0.0,0.0,0.0,0.0,0.0,0.0,0.0,0.0,0.0,0.0,0.0,0.0,0.0,0.0,0.0,0.0,0.0,0.0,0.0,0.0,0.0,0.0,762.18896484375,591.7651977539062,1122.5677490234375,1010.7420043945312,631.6340942382812,1119.9820556640625,816.2308959960938,413.5540466308594,1145.1282958984375,977.8609619140625,418.7176513671875,1147.938720703125,694.8617553710938,541.3776245117188,864.7879638671875,704.3228149414062,617.4019165039062,620.5221557617188,707.8631591796875,485.6833190917969,522.4617919921875,743.308349609375,359.5312194824219,369.7455749511719,836.183837890625,255.79476928710938,369.7254638671875,731.1009521484375,437.0616149902344,200.26824951171875,1065.9783935546875,585.2334594726562,798.7601928710938,1007.8148193359375,557.8370361328125,566.420166015625,1015.50146484375,538.2781982421875,431.07720947265625,963.343994140625,508.56982421875,223.4287109375,893.0972290039062,432.8548278808594,166.3162078857422,951.8446655273438,693.0404052734375,175.80245971679688,0.0,0.0,0.0,0.0,0.0,0.0,0.0,0.0,0.0,0.0,0.0,0.0,1.0,0.9092,9.6517,-0.7034,0.1831,-0.3662,-0.1221,94.1748,-5.3394,-177.2589,0.0492,0.7306,-0.6808,-0.0178,0.0,0.0,0.0,0.0,0.0,0.0,0.0,0.0,0.0,0.0,0.0,0.0,1.0,0.0,0.0,0.0,0.0,0.0,0.0,0.0,0.0,0.0,0.0,0.0,0.0,1.0,0.0,0.0,0.0,0.0,0.0,0.0,0.0,0.0,0.0,0.0,0.0,0.0,1.0,0.0,0.0,0.0,0.0,0.0,0.0,0.0,0.0,0.0,0.0,0.0,0.0,1.0,0.0,0.0,0.0,0.0,0.0,0.0,0.0,0.0,0.0,0.0,0.0,0.0,1.0,0,0,55568,31763,0,0,0,0,51476,22,30468,0,0,0,0,0,0,0,0,0,0,0,0,0,0,0,0,0,0,0,0,0,0,0,0,0
1777291275.376089,6198,1777291269.5868967,1777291269.6336343,1777291270.4952357,0,0,-46.7376708984375,-908.3390235900879,1,1,0.0,0.0,0.0,0.0,0.0,0.0,0.0,0.0,0.0,0.0,0.0,0.0,0.0,0.0,0.0,0.0,0.0,0.0,0.0,0.0,0.0,0.0,0.0,0.0,0.0,0.0,0.0,762.85302734375,590.195068359375,1123.3935546875,1011.376708984375,630.3751220703125,1120.384765625,817.1923217773438,411.97137451171875,1146.0262451171875,978.8111572265625,417.47796630859375,1148.594482421875,694.8603515625,541.8299560546875,866.8248291015625,703.7651977539062,622.0889282226562,623.5582275390625,708.0770874023438,491.81689453125,523.4091796875,743.8135986328125,368.40325927734375,368.66375732421875,838.0328369140625,264.7726135253906,363.6571350097656,727.2753295898438,450.4188537597656,202.7078399658203,1066.0899658203125,582.5794677734375,798.6376342773438,1008.0057373046875,552.7463989257812,566.5237426757812,1015.5903930664062,532.2802734375,431.2696533203125,963.3681030273438,501.23333740234375,223.81069946289062,893.2868041992188,425.2798156738281,166.59536743164062,952.0144653320312,685.4651489257812,175.85008239746094,0.0,0.0,0.0,0.0,0.0,0.0,0.0,0.0,0.0,0.0,0.0,0.0,1.0,0.9092,9.6517,-0.7034,0.1831,-0.3662,-0.1221,94.1748,-5.3394,-177.2589,0.0492,0.7306,-0.6808,-0.0178,0.0,0.0,0.0,0.0,0.0,0.0,0.0,0.0,0.0,0.0,0.0,0.0,1.0,0.0,0.0,0.0,0.0,0.0,0.0,0.0,0.0,0.0,0.0,0.0,0.0,1.0,0.0,0.0,0.0,0.0,0.0,0.0,0.0,0.0,0.0,0.0,0.0,0.0,1.0,0.0,0.0,0.0,0.0,0.0,0.0,0.0,0.0,0.0,0.0,0.0,0.0,1.0,0.0,0.0,0.0,0.0,0.0,0.0,0.0,0.0,0.0,0.0,0.0,0.0,1.0,0,0,55568,31763,0,0,0,0,51476,22,30468,0,0,0,0,0,0,0,0,0,0,0,0,0,0,0,0,0,0,0,0,0,0,0,0,0
1777291275.3770866,6199,1777291269.6043208,1777291269.6336343,1777291270.4952357,0,0,-29.31356430053711,-890.9149169921875,1,1,0.0,0.0,0.0,0.0,0.0,0.0,0.0,0.0,0.0,0.0,0.0,0.0,0.0,0.0,0.0,0.0,0.0,0.0,0.0,0.0,0.0,0.0,0.0,0.0,0.0,0.0,0.0,763.4517822265625,588.628173828125,1124.232421875,1011.9606323242188,629.0537109375,1120.771728515625,818.0469360351562,410.3788146972656,1146.947998046875,979.6580810546875,416.1873474121094,1149.25341796875,694.9424438476562,541.9435424804688,868.8029174804688,703.3800048828125,626.342041015625,626.4967651367188,708.2579956054688,497.83624267578125,523.7207641601562,744.0560302734375,377.74700927734375,366.5177001953125,839.3394775390625,274.4986267089844,356.6051330566406,723.475341796875,464.5421142578125,204.3141632080078,1066.13037109375,579.8302612304688,798.5560302734375,1008.1771850585938,547.534912109375,566.671875,1015.6780395507812,526.1779174804688,431.5020751953125,963.392578125,493.861083984375,224.20852661132812,893.4927368164062,417.6871032714844,166.8924560546875,952.1873168945312,677.8753051757812,175.89698791503906,0.0,0.0,0.0,0.0,0.0,0.0,0.0,0.0,0.0,0.0,0.0,0.0,1.0,0.9092,9.6517,-0.7034,0.1831,-0.3662,-0.1221,94.1748,-5.3394,-177.2589,0.0492,0.7306,-0.6808,-0.0178,0.0,0.0,0.0,0.0,0.0,0.0,0.0,0.0,0.0,0.0,0.0,0.0,1.0,0.0,0.0,0.0,0.0,0.0,0.0,0.0,0.0,0.0,0.0,0.0,0.0,1.0,0.0,0.0,0.0,0.0,0.0,0.0,0.0,0.0,0.0,0.0,0.0,0.0,1.0,0.0,0.0,0.0,0.0,0.0,0.0,0.0,0.0,0.0,0.0,0.0,0.0,1.0,0.0,0.0,0.0,0.0,0.0,0.0,0.0,0.0,0.0,0.0,0.0,0.0,1.0,0,0,55568,31763,0,0,0,0,51476,22,30468,0,0,0,0,0,0,0,0,0,0,0,0,0,0,0,0,0,0,0,0,0,0,0,0,0
1777291275.3770866,6200,1777291269.607263,1777291269.6336343,1777291270.4952357,0,0,-26.371240615844727,-887.9725933074951,1,1,0.0,0.0,0.0,0.0,0.0,0.0,0.0,0.0,0.0,0.0,0.0,0.0,0.0,0.0,0.0,0.0,0.0,0.0,0.0,0.0,0.0,0.0,0.0,0.0,0.0,0.0,0.0,763.9835815429688,587.0689086914062,1125.0716552734375,1012.4898071289062,627.681884765625,1121.134033203125,818.7954711914062,408.78546142578125,1147.8831787109375,980.4016723632812,414.85577392578125,1149.91162109375,695.1163330078125,541.7171630859375,870.689208984375,703.1635131835938,630.1448974609375,629.2911987304688,708.385986328125,503.7424011230469,523.3901977539062,744.00927734375,387.56683349609375,363.3504333496094,840.03076171875,284.97406005859375,348.61334228515625,719.7652587890625,479.39410400390625,205.12315368652344,1066.1192626953125,576.977783203125,798.5038452148438,1008.3328857421875,542.2101440429688,566.85498046875,1015.7654418945312,519.9778442382812,431.7652587890625,963.4171752929688,486.45758056640625,224.61685180664062,893.712890625,410.0826416015625,167.20274353027344,952.3614501953125,670.2735595703125,175.9373016357422,0.0,0.0,0.0,0.0,0.0,0.0,0.0,0.0,0.0,0.0,0.0,0.0,1.0,0.9092,9.6517,-0.7034,0.1831,-0.3662,-0.1221,94.1748,-5.3394,-177.2589,0.0492,0.7306,-0.6808,-0.0178,0.0,0.0,0.0,0.0,0.0,0.0,0.0,0.0,0.0,0.0,0.0,0.0,1.0,0.0,0.0,0.0,0.0,0.0,0.0,0.0,0.0,0.0,0.0,0.0,0.0,1.0,0.0,0.0,0.0,0.0,0.0,0.0,0.0,0.0,0.0,0.0,0.0,0.0,1.0,0.0,0.0,0.0,0.0,0.0,0.0,0.0,0.0,0.0,0.0,0.0,0.0,1.0,0.0,0.0,0.0,0.0,0.0,0.0,0.0,0.0,0.0,0.0,0.0,0.0,1.0,0,0,55568,31763,0,0,0,0,51476,22,30468,0,0,0,0,0,0,0,0,0,0,0,0,0,0,0,0,0,0,0,0,0,0,0,0,0
1777291275.3770866,6201,1777291269.6225717,1777291269.6336343,1777291270.4952357,0,0,-11.0626220703125,-872.6639747619629,1,1,0.0,0.0,0.0,0.0,0.0,0.0,0.0,0.0,0.0,0.0,0.0,0.0,0.0,0.0,0.0,0.0,0.0,0.0,0.0,0.0,0.0,0.0,0.0,0.0,0.0,0.0,0.0,764.4476318359375,585.5214233398438,1125.895751953125,1012.9609375,626.271240234375,1121.4603271484375,819.4390869140625,407.2001037597656,1148.8203125,981.042236328125,413.4932556152344,1150.5640869140625,695.3794555664062,541.1598510742188,872.4539794921875,703.1089477539062,633.4795532226562,631.896240234375,708.4465942382812,509.5350036621094,522.4226684570312,743.6592407226562,397.8654479980469,359.2245178222656,840.0648193359375,296.1623229980469,339.66790771484375,716.1882934570312,494.9742736816406,205.2294158935547,1066.072998046875,574.0151977539062,798.4686279296875,1008.4749755859375,536.7820434570312,567.0624389648438,1015.8519897460938,513.689453125,432.0494384765625,963.4415283203125,479.0278015136719,225.03062438964844,893.9435424804688,402.47235107421875,167.5198211669922,952.536376953125,662.662353515625,175.96771240234375,0.0,0.0,0.0,0.0,0.0,0.0,0.0,0.0,0.0,0.0,0.0,0.0,1.0,0.9092,9.6517,-0.7034,0.1831,-0.3662,-0.1221,94.1748,-5.3394,-177.2589,0.0492,0.7306,-0.6808,-0.0178,0.0,0.0,0.0,0.0,0.0,0.0,0.0,0.0,0.0,0.0,0.0,0.0,1.0,0.0,0.0,0.0,0.0,0.0,0.0,0.0,0.0,0.0,0.0,0.0,0.0,1.0,0.0,0.0,0.0,0.0,0.0,0.0,0.0,0.0,0.0,0.0,0.0,0.0,1.0,0.0,0.0,0.0,0.0,0.0,0.0,0.0,0.0,0.0,0.0,0.0,0.0,1.0,0.0,0.0,0.0,0.0,0.0,0.0,0.0,0.0,0.0,0.0,0.0,0.0,1.0,0,0,55568,31763,0,0,0,0,51476,22,30468,0,0,0,0,0,0,0,0,0,0,0,0,0,0,0,0,0,0,0,0,0,0,0,0,0
1777291275.3770866,6202,1777291269.6416965,1777291269.6416965,1777291270.4952357,0,0,0.0,-853.539228439331,1,1,0.0,0.0,0.0,0.0,0.0,0.0,0.0,0.0,0.0,0.0,0.0,0.0,0.0,0.0,0.0,0.0,0.0,0.0,0.0,0.0,0.0,0.0,0.0,0.0,0.0,0.0,0.0,764.84375,583.9901123046875,1126.687255859375,1013.371337890625,624.8329467773438,1121.73779296875,819.979248046875,405.63134765625,1149.7469482421875,981.5805053710938,412.10943603515625,1151.2049560546875,695.7198486328125,540.2904052734375,874.0716552734375,703.2061767578125,636.3276977539062,634.26904296875,708.4301147460938,515.21435546875,520.8330078125,743.0027465820312,408.6462097167969,354.21954345703125,839.4344482421875,308.0238952636719,329.74786376953125,712.763916015625,511.29315185546875,204.7578582763672,1066.003662109375,570.93798828125,798.4378662109375,1008.6044921875,531.2632446289062,567.2830810546875,1015.9364013671875,507.3247375488281,432.34503173828125,963.4653930664062,471.5768737792969,225.4451446533203,894.18017578125,394.861083984375,167.8361358642578,952.7127685546875,655.0435180664062,175.9874725341797,0.0,0.0,0.0,0.0,0.0,0.0,0.0,0.0,0.0,0.0,0.0,0.0,1.0,0.9092,9.6469,-0.7226,0.1221,-0.3662,-0.1221,94.2627,-5.3503,171.8262,0.0205,-0.7325,0.6754,0.0826,0.0,0.0,0.0,0.0,0.0,0.0,0.0,0.0,0.0,0.0,0.0,0.0,1.0,0.0,0.0,0.0,0.0,0.0,0.0,0.0,0.0,0.0,0.0,0.0,0.0,1.0,0.0,0.0,0.0,0.0,0.0,0.0,0.0,0.0,0.0,0.0,0.0,0.0,1.0,0.0,0.0,0.0,0.0,0.0,0.0,0.0,0.0,0.0,0.0,0.0,0.0,1.0,0.0,0.0,0.0,0.0,0.0,0.0,0.0,0.0,0.0,0.0,0.0,0.0,1.0,0,0,55568,31763,0,0,0,0,51476,22,30468,0,0,0,0,0,0,0,0,0,0,0,0,0,0,0,0,0,0,0,0,0,0,0,0,0
1777291275.3770866,6204,1777291269.6439445,1777291269.6416965,1777291270.4952357,1,1,2.248048782348633,-851.2911796569824,1,1,0.0,0.0,0.0,0.0,0.0,0.0,0.0,0.0,0.0,0.0,0.0,0.0,0.0,0.0,0.0,0.0,0.0,0.0,0.0,0.0,0.0,0.0,0.0,0.0,0.0,0.0,0.0,765.4359741210938,580.9965209960938,1128.0987548828125,1014.0053100585938,621.9138793945312,1122.093505859375,820.7549438476562,402.5780029296875,1151.515869140625,982.354248046875,409.31561279296875,1152.4228515625,696.5451049804688,537.7314453125,876.7855834960938,703.8004150390625,640.495849609375,638.1649780273438,708.1394653320312,526.2481079101562,515.887939453125,740.80126953125,431.6788330078125,341.9631042480469,836.3435668945312,333.7225036621094,307.1169738769531,706.3429565429688,546.1107788085938,202.5970916748047,1065.82568359375,564.438720703125,798.3424072265625,1008.826171875,520.0145874023438,567.7193603515625,1016.0914916992188,494.42474365234375,432.9335021972656,963.5125122070312,456.6311950683594,226.2597198486328,894.6500854492188,379.6466064453125,168.43348693847656,953.0753784179688,639.7880249023438,176.0011444091797,0.0,0.0,0.0,0.0,0.0,0.0,0.0,0.0,0.0,0.0,0.0,0.0,1.0,0.9092,9.6469,-0.7226,0.1221,-0.3662,-0.1221,94.2627,-5.3503,171.8262,0.0205,-0.7325,0.6754,0.0826,0.0,0.0,0.0,0.0,0.0,0.0,0.0,0.0,0.0,0.0,0.0,0.0,1.0,0.0,0.0,0.0,0.0,0.0,0.0,0.0,0.0,0.0,0.0,0.0,0.0,1.0,0.0,0.0,0.0,0.0,0.0,0.0,0.0,0.0,0.0,0.0,0.0,0.0,1.0,0.0,0.0,0.0,0.0,0.0,0.0,0.0,0.0,0.0,0.0,0.0,0.0,1.0,0.0,0.0,0.0,0.0,0.0,0.0,0.0,0.0,0.0,0.0,0.0,0.0,1.0,0,0,55568,31763,0,0,0,0,51476,22,30468,0,0,0,0,0,0,0,0,0,0,0,0,0,0,0,0,0,0,0,0,0,0,0,0,0
1777291275.3770866,6205,1777291269.6569026,1777291269.6416965,1777291270.4952357,0,0,15.206098556518555,-838.3331298828125,1,1,0.0,0.0,0.0,0.0,0.0,0.0,0.0,0.0,0.0,0.0,0.0,0.0,0.0,0.0,0.0,0.0,0.0,0.0,0.0,0.0,0.0,0.0,0.0,0.0,0.0,0.0,0.0,765.6356201171875,579.5467529296875,1128.6822509765625,1014.2296142578125,620.451171875,1122.146728515625,820.992919921875,401.11029052734375,1152.331298828125,982.5917358398438,407.92352294921875,1152.9837646484375,696.9737548828125,536.1142578125,877.8533325195312,704.2621459960938,641.7879638671875,639.6246337890625,707.852783203125,531.6195678710938,512.6016845703125,739.2891845703125,443.9476318359375,334.9388732910156,834.0562133789062,347.6021423339844,294.6423034667969,703.2949829101562,564.516845703125,201.1401824951172,1065.723876953125,561.0258178710938,798.2570190429688,1008.9172973632812,514.319091796875,567.9141845703125,1016.1588134765625,487.9217224121094,433.2095642089844,963.5368041992188,449.1449890136719,226.6522216796875,894.8726196289062,372.044189453125,168.6986846923828,953.2642822265625,632.1522827148438,176.00054931640625,0.0,0.0,0.0,0.0,0.0,0.0,0.0,0.0,0.0,0.0,0.0,0.0,1.0,0.9092,9.6469,-0.7226,0.1221,-0.3662,-0.1221,94.2627,-5.3503,171.8262,0.0205,-0.7325,0.6754,0.0826,0.0,0.0,0.0,0.0,0.0,0.0,0.0,0.0,0.0,0.0,0.0,0.0,1.0,0.0,0.0,0.0,0.0,0.0,0.0,0.0,0.0,0.0,0.0,0.0,0.0,1.0,0.0,0.0,0.0,0.0,0.0,0.0,0.0,0.0,0.0,0.0,0.0,0.0,1.0,0.0,0.0,0.0,0.0,0.0,0.0,0.0,0.0,0.0,0.0,0.0,0.0,1.0,0.0,0.0,0.0,0.0,0.0,0.0,0.0,0.0,0.0,0.0,0.0,0.0,1.0,0,0,55568,31763,0,0,0,0,51476,22,30468,0,0,0,0,0,0,0,0,0,0,0,0,0,0,0,0,0,0,0,0,0,0,0,0,0
1777291275.3770866,6206,1777291269.6755974,1777291269.6416965,1777291270.4952357,0,0,33.90097618103027,-819.6382522583008,1,1,0.0,0.0,0.0,0.0,0.0,0.0,0.0,0.0,0.0,0.0,0.0,0.0,0.0,0.0,0.0,0.0,0.0,0.0,0.0,0.0,0.0,0.0,0.0,0.0,0.0,0.0,0.0,765.7738647460938,578.1380004882812,1129.1617431640625,1014.3942260742188,618.9969482421875,1122.102783203125,821.1322021484375,399.6929931640625,1153.0830078125,982.73095703125,406.5461120605469,1153.5010986328125,697.3722534179688,534.3238525390625,878.7156982421875,704.8059692382812,642.5406494140625,640.7268676757812,707.4614868164062,536.9114379882812,508.8323059082031,737.5344848632812,456.72845458984375,327.4881591796875,831.4349975585938,362.21759033203125,281.6597595214844,700.3157958984375,583.4760131835938,199.57058715820312,1065.61376953125,557.5167846679688,798.1351318359375,1008.9945068359375,508.6002197265625,568.0812377929688,1016.217529296875,481.40545654296875,433.4636535644531,963.5621337890625,441.6545104980469,227.03025817871094,895.0811157226562,364.44293212890625,168.9337921142578,953.4595947265625,624.5114135742188,175.99964904785156,0.0,0.0,0.0,0.0,0.0,0.0,0.0,0.0,0.0,0.0,0.0,0.0,1.0,0.9092,9.6469,-0.7226,0.1221,-0.3662,-0.1221,94.2627,-5.3503,171.8262,0.0205,-0.7325,0.6754,0.0826,0.0,0.0,0.0,0.0,0.0,0.0,0.0,0.0,0.0,0.0,0.0,0.0,1.0,0.0,0.0,0.0,0.0,0.0,0.0,0.0,0.0,0.0,0.0,0.0,0.0,1.0,0.0,0.0,0.0,0.0,0.0,0.0,0.0,0.0,0.0,0.0,0.0,0.0,1.0,0.0,0.0,0.0,0.0,0.0,0.0,0.0,0.0,0.0,0.0,0.0,0.0,1.0,0.0,0.0,0.0,0.0,0.0,0.0,0.0,0.0,0.0,0.0,0.0,0.0,1.0,0,0,55568,31763,0,0,0,0,51476,22,30468,0,0,0,0,0,0,0,0,0,0,0,0,0,0,0,0,0,0,0,0,0,0,0,0,0
1777291275.3770866,6207,1777291269.6776476,1777291269.6416965,1777291270.4952357,0,0,35.95113754272461,-817.5880908966064,1,1,0.0,0.0,0.0,0.0,0.0,0.0,0.0,0.0,0.0,0.0,0.0,0.0,0.0,0.0,0.0,0.0,0.0,0.0,0.0,0.0,0.0,0.0,0.0,0.0,0.0,0.0,0.0,765.853271484375,576.7784423828125,1129.522705078125,1014.5018920898438,617.5584106445312,1121.9537353515625,821.1735229492188,398.3340759277344,1153.758056640625,982.77294921875,405.1915588378906,1153.965576171875,697.7111206054688,532.3977661132812,879.3671264648438,705.409423828125,642.7528686523438,641.4569091796875,706.956787109375,542.1388549804688,504.6358947753906,735.5670776367188,470.02325439453125,319.7519836425781,828.61181640625,377.595947265625,268.4190673828125,697.3892211914062,602.8802490234375,197.9916534423828,1065.494140625,553.92578125,797.969970703125,1009.0571899414062,502.87615966796875,568.2129516601562,1016.2669067382812,474.8920593261719,433.6896057128906,963.5885009765625,434.1623840332031,227.39105224609375,895.273681640625,356.8403015136719,169.13668823242188,953.6619262695312,616.8654174804688,176.002197265625,0.0,0.0,0.0,0.0,0.0,0.0,0.0,0.0,0.0,0.0,0.0,0.0,1.0,0.9092,9.6469,-0.7226,0.1221,-0.3662,-0.1221,94.2627,-5.3503,171.8262,0.0205,-0.7325,0.6754,0.0826,0.0,0.0,0.0,0.0,0.0,0.0,0.0,0.0,0.0,0.0,0.0,0.0,1.0,0.0,0.0,0.0,0.0,0.0,0.0,0.0,0.0,0.0,0.0,0.0,0.0,1.0,0.0,0.0,0.0,0.0,0.0,0.0,0.0,0.0,0.0,0.0,0.0,0.0,1.0,0.0,0.0,0.0,0.0,0.0,0.0,0.0,0.0,0.0,0.0,0.0,0.0,1.0,0.0,0.0,0.0,0.0,0.0,0.0,0.0,0.0,0.0,0.0,0.0,0.0,1.0,0,0,55568,31763,0,0,0,0,51476,22,30468,0,0,0,0,0,0,0,0,0,0,0,0,0,0,0,0,0,0,0,0,0,0,0,0,0
1777291275.3770866,6208,1777291269.692655,1777291269.6416965,1777291270.4952357,0,0,50.95863342285156,-802.5805950164795,1,1,0.0,0.0,0.0,0.0,0.0,0.0,0.0,0.0,0.0,0.0,0.0,0.0,0.0,0.0,0.0,0.0,0.0,0.0,0.0,0.0,0.0,0.0,0.0,0.0,0.0,0.0,0.0,765.8759765625,575.4767456054688,1129.75341796875,1014.5554809570312,616.1422119140625,1121.6944580078125,821.1172485351562,397.0412292480469,1154.3446044921875,982.718505859375,403.8677978515625,1154.3681640625,697.9647216796875,530.3695068359375,879.8041381835938,706.0496215820312,642.4309692382812,641.8076782226562,706.3310546875,547.3159790039062,500.0786437988281,733.4212646484375,483.8240661621094,311.879150390625,825.7046508789062,393.73760986328125,255.1785125732422,694.5230712890625,622.6172485351562,196.51861572265625,1065.3626708984375,550.270263671875,797.7564086914062,1009.1047973632812,497.1642761230469,568.30322265625,1016.3064575195312,468.39642333984375,433.8824768066406,963.6159057617188,426.6707458496094,227.73289489746094,895.4510498046875,349.2336730957031,169.30874633789062,953.8719482421875,609.21435546875,176.0115966796875,0.0,0.0,0.0,0.0,0.0,0.0,0.0,0.0,0.0,0.0,0.0,0.0,1.0,0.9092,9.6469,-0.7226,0.1221,-0.3662,-0.1221,94.2627,-5.3503,171.8262,0.0205,-0.7325,0.6754,0.0826,0.0,0.0,0.0,0.0,0.0,0.0,0.0,0.0,0.0,0.0,0.0,0.0,1.0,0.0,0.0,0.0,0.0,0.0,0.0,0.0,0.0,0.0,0.0,0.0,0.0,1.0,0.0,0.0,0.0,0.0,0.0,0.0,0.0,0.0,0.0,0.0,0.0,0.0,1.0,0.0,0.0,0.0,0.0,0.0,0.0,0.0,0.0,0.0,0.0,0.0,0.0,1.0,0.0,0.0,0.0,0.0,0.0,0.0,0.0,0.0,0.0,0.0,0.0,0.0,1.0,0,0,55568,31763,0,0,0,0,51476,22,30468,0,0,0,0,0,0,0,0,0,0,0,0,0,0,0,0,0,0,0,0,0,0,0,0,0
1777291275.377646,6209,1777291269.6956584,1777291269.6416965,1777291270.4952357,0,0,53.961992263793945,-799.5772361755371,1,1,0.0,0.0,0.0,0.0,0.0,0.0,0.0,0.0,0.0,0.0,0.0,0.0,0.0,0.0,0.0,0.0,0.0,0.0,0.0,0.0,0.0,0.0,0.0,0.0,0.0,0.0,0.0,765.8440551757812,574.2417602539062,1129.8447265625,1014.5579833984375,614.7548828125,1121.3226318359375,820.9639282226562,395.8216857910156,1154.8316650390625,982.5685424804688,402.5825500488281,1154.7000732421875,698.1117553710938,528.267822265625,880.0250854492188,706.7047729492188,641.5902099609375,641.7803955078125,705.580322265625,552.4536743164062,495.2372131347656,731.1348266601562,498.1083679199219,304.0230407714844,822.7974853515625,410.6070861816406,242.1792449951172,691.7572631835938,642.5805053710938,195.28521728515625,1065.216796875,546.570068359375,797.4909057617188,1009.1368408203125,491.4808044433594,568.34765625,1016.3359375,461.9318542480469,434.0388488769531,963.6441040039062,419.1813049316406,228.0553741455078,895.616455078125,341.62078857421875,169.45449829101562,954.08984375,601.5587158203125,176.03004455566406,0.0,0.0,0.0,0.0,0.0,0.0,0.0,0.0,0.0,0.0,0.0,0.0,1.0,0.9092,9.6469,-0.7226,0.1221,-0.3662,-0.1221,94.2627,-5.3503,171.8262,0.0205,-0.7325,0.6754,0.0826,0.0,0.0,0.0,0.0,0.0,0.0,0.0,0.0,0.0,0.0,0.0,0.0,1.0,0.0,0.0,0.0,0.0,0.0,0.0,0.0,0.0,0.0,0.0,0.0,0.0,1.0,0.0,0.0,0.0,0.0,0.0,0.0,0.0,0.0,0.0,0.0,0.0,0.0,1.0,0.0,0.0,0.0,0.0,0.0,0.0,0.0,0.0,0.0,0.0,0.0,0.0,1.0,0.0,0.0,0.0,0.0,0.0,0.0,0.0,0.0,0.0,0.0,0.0,0.0,1.0,0,0,55568,31763,0,0,0,0,51476,22,30468,0,0,0,0,0,0,0,0,0,0,0,0,0,0,0,0,0,0,0,0,0,0,0,0,0
1777291275.377646,6210,1777291269.7139091,1777291269.712405,1777291270.4952357,0,0,1.5041828155517578,-781.3265323638916,1,1,0.0,0.0,0.0,0.0,0.0,0.0,0.0,0.0,0.0,0.0,0.0,0.0,0.0,0.0,0.0,0.0,0.0,0.0,0.0,0.0,0.0,0.0,0.0,0.0,0.0,0.0,0.0,765.7587280273438,573.082275390625,1129.790771484375,1014.5118408203125,613.40283203125,1120.8389892578125,820.7138671875,394.68212890625,1155.209228515625,982.3240966796875,401.3432922363281,1154.9527587890625,698.1361083984375,526.1170043945312,880.02978515625,707.3552856445312,640.2556762695312,641.38427734375,704.7061157226562,557.5572509765625,490.19781494140625,728.7483520507812,512.8338012695312,296.3371276855469,819.9270629882812,428.1297607421875,229.62615966796875,689.1672973632812,662.6740112304688,194.44427490234375,1065.053466796875,542.846923828125,797.1713256835938,1009.1526489257812,485.8404235839844,568.3438110351562,1016.35498046875,455.5098571777344,434.1568908691406,963.673095703125,411.69561767578125,228.35955810546875,895.77490234375,333.9998474121094,169.58050537109375,954.3155517578125,593.899169921875,176.05795288085938,0.0,0.0,0.0,0.0,0.0,0.0,0.0,0.0,0.0,0.0,0.0,0.0,1.0,0.9092,9.6517,-0.7178,0.1831,-0.3662,-0.1831,94.2627,-5.3503,171.8207,0.0205,-0.7325,0.6754,0.0826,0.0,0.0,0.0,0.0,0.0,0.0,0.0,0.0,0.0,0.0,0.0,0.0,1.0,0.0,0.0,0.0,0.0,0.0,0.0,0.0,0.0,0.0,0.0,0.0,0.0,1.0,0.0,0.0,0.0,0.0,0.0,0.0,0.0,0.0,0.0,0.0,0.0,0.0,1.0,0.0,0.0,0.0,0.0,0.0,0.0,0.0,0.0,0.0,0.0,0.0,0.0,1.0,0.0,0.0,0.0,0.0,0.0,0.0,0.0,0.0,0.0,0.0,0.0,0.0,1.0,0,0,55568,31763,0,0,0,0,51476,22,30468,0,0,0,0,0,0,0,0,0,0,0,0,0,0,0,0,0,0,0,0,0,0,0,0,0
1777291275.377646,6211,1777291269.7175372,1777291269.712405,1777291270.4952357,0,0,5.132198333740234,-777.6985168457031,1,1,0.0,0.0,0.0,0.0,0.0,0.0,0.0,0.0,0.0,0.0,0.0,0.0,0.0,0.0,0.0,0.0,0.0,0.0,0.0,0.0,0.0,0.0,0.0,0.0,0.0,0.0,0.0,765.6207885742188,572.0066528320312,1129.5888671875,1014.4188232421875,612.0928955078125,1120.24658203125,820.3675537109375,393.62860107421875,1155.46923828125,981.986083984375,400.1574401855469,1155.11865234375,698.0269165039062,523.9383544921875,879.81982421875,707.9848022460938,638.4632568359375,640.6365356445312,703.71630859375,562.6251220703125,485.0541076660156,726.3035888671875,527.9332885742188,288.9696350097656,817.0810546875,446.1933898925781,217.67835998535156,686.86181640625,682.8096923828125,194.16079711914062,1064.86962890625,539.1238403320312,796.796875,1009.1513061523438,480.2560729980469,568.291259765625,1016.3631591796875,449.139892578125,434.2366638183594,963.703125,404.2152404785156,228.64793395996094,895.931884765625,326.3699645996094,169.69381713867188,954.5480346679688,586.2364501953125,176.0935516357422,0.0,0.0,0.0,0.0,0.0,0.0,0.0,0.0,0.0,0.0,0.0,0.0,1.0,0.9092,9.6517,-0.7178,0.1831,-0.3662,-0.1831,94.2627,-5.3503,171.8207,0.0205,-0.7325,0.6754,0.0826,0.0,0.0,0.0,0.0,0.0,0.0,0.0,0.0,0.0,0.0,0.0,0.0,1.0,0.0,0.0,0.0,0.0,0.0,0.0,0.0,0.0,0.0,0.0,0.0,0.0,1.0,0.0,0.0,0.0,0.0,0.0,0.0,0.0,0.0,0.0,0.0,0.0,0.0,1.0,0.0,0.0,0.0,0.0,0.0,0.0,0.0,0.0,0.0,0.0,0.0,0.0,1.0,0.0,0.0,0.0,0.0,0.0,0.0,0.0,0.0,0.0,0.0,0.0,0.0,1.0,0,0,55568,31763,0,0,0,0,51476,22,30468,0,0,0,0,0,0,0,0,0,0,0,0,0,0,0,0,0,0,0,0,0,0,0,0,0
1777291275.377646,6212,1777291269.7313366,1777291269.712405,1777291270.4952357,0,0,18.93162727355957,-763.8990879058838,1,1,0.0,0.0,0.0,0.0,0.0,0.0,0.0,0.0,0.0,0.0,0.0,0.0,0.0,0.0,0.0,0.0,0.0,0.0,0.0,0.0,0.0,0.0,0.0,0.0,0.0,0.0,0.0,765.4301147460938,571.0227661132812,1129.239501953125,1014.2797241210938,610.8321533203125,1119.55126953125,819.9256591796875,392.6665344238281,1155.6046142578125,981.5556030273438,399.0321960449219,1155.1910400390625,697.7781372070312,521.7514038085938,879.3988647460938,708.5810546875,636.2601928710938,639.5616455078125,702.6249389648438,567.6481323242188,479.9038391113281,723.8427124023438,543.3106689453125,282.05731201171875,814.2072143554688,464.6526794433594,206.44932556152344,684.9744873046875,702.8987426757812,194.5979461669922,1064.66162109375,535.4243774414062,796.3682250976562,1009.1314086914062,474.7388916015625,568.191650390625,1016.3597412109375,442.8296813964844,434.28021240234375,963.734130859375,396.7418212890625,228.9243621826172,896.091796875,318.73114013671875,169.8005828857422,954.7850341796875,578.5715942382812,176.13272094726562,0.0,0.0,0.0,0.0,0.0,0.0,0.0,0.0,0.0,0.0,0.0,0.0,1.0,0.9092,9.6517,-0.7178,0.1831,-0.3662,-0.1831,94.2627,-5.3503,171.8207,0.0205,-0.7325,0.6754,0.0826,0.0,0.0,0.0,0.0,0.0,0.0,0.0,0.0,0.0,0.0,0.0,0.0,1.0,0.0,0.0,0.0,0.0,0.0,0.0,0.0,0.0,0.0,0.0,0.0,0.0,1.0,0.0,0.0,0.0,0.0,0.0,0.0,0.0,0.0,0.0,0.0,0.0,0.0,1.0,0.0,0.0,0.0,0.0,0.0,0.0,0.0,0.0,0.0,0.0,0.0,0.0,1.0,0.0,0.0,0.0,0.0,0.0,0.0,0.0,0.0,0.0,0.0,0.0,0.0,1.0,0,0,55568,31763,0,0,0,0,51476,22,30468,0,0,0,0,0,0,0,0,0,0,0,0,0,0,0,0,0,0,0,0,0,0,0,0,0
1777291275.377646,6213,1777291269.7340865,1777291269.712405,1777291270.4952357,0,0,21.681547164916992,-761.1491680145264,1,1,0.0,0.0,0.0,0.0,0.0,0.0,0.0,0.0,0.0,0.0,0.0,0.0,0.0,0.0,0.0,0.0,0.0,0.0,0.0,0.0,0.0,0.0,0.0,0.0,0.0,0.0,0.0,765.1856689453125,570.137451171875,1128.7462158203125,1014.0941162109375,609.628173828125,1118.7611083984375,819.3889770507812,391.800537109375,1155.61083984375,981.033935546875,397.97467041015625,1155.1644287109375,697.3889770507812,519.5761108398438,878.77294921875,709.1364135742188,633.7050170898438,638.190673828125,701.4510498046875,572.6090087890625,474.84454345703125,721.407470703125,558.8372192382812,275.7188720703125,811.2302856445312,483.3310546875,196.0175018310547,683.64990234375,722.8375854492188,195.895751953125,1064.425048828125,531.7720336914062,795.8871459960938,1009.0910034179688,469.2980041503906,568.048583984375,1016.3433837890625,436.5853576660156,434.29150390625,963.7659912109375,389.2773132324219,229.1937713623047,896.2578735351562,311.0841369628906,169.90565490722656,955.0233764648438,570.9056396484375,176.169921875,0.0,0.0,0.0,0.0,0.0,0.0,0.0,0.0,0.0,0.0,0.0,0.0,1.0,0.9092,9.6517,-0.7178,0.1831,-0.3662,-0.1831,94.2627,-5.3503,171.8207,0.0205,-0.7325,0.6754,0.0826,0.0,0.0,0.0,0.0,0.0,0.0,0.0,0.0,0.0,0.0,0.0,0.0,1.0,0.0,0.0,0.0,0.0,0.0,0.0,0.0,0.0,0.0,0.0,0.0,0.0,1.0,0.0,0.0,0.0,0.0,0.0,0.0,0.0,0.0,0.0,0.0,0.0,0.0,1.0,0.0,0.0,0.0,0.0,0.0,0.0,0.0,0.0,0.0,0.0,0.0,0.0,1.0,0.0,0.0,0.0,0.0,0.0,0.0,0.0,0.0,0.0,0.0,0.0,0.0,1.0,0,0,55568,31763,0,0,0,0,51476,22,30468,0,0,0,0,0,0,0,0,0,0,0,0,0,0,0,0,0,0,0,0,0,0,0,0,0
1777291275.377646,6214,1777291269.7468257,1777291269.712405,1777291270.4952357,0,0,34.42072868347168,-748.4099864959717,1,1,0.0,0.0,0.0,0.0,0.0,0.0,0.0,0.0,0.0,0.0,0.0,0.0,0.0,0.0,0.0,0.0,0.0,0.0,0.0,0.0,0.0,0.0,0.0,0.0,0.0,0.0,0.0,764.8856811523438,569.3568115234375,1128.1156005859375,1013.8604125976562,608.489013671875,1117.8861083984375,818.7586059570312,391.0345153808594,1155.4847412109375,980.4223022460938,396.99176025390625,1155.0345458984375,696.8633422851562,517.4342651367188,877.9508666992188,709.6474609375,630.866943359375,636.5601806640625,700.218017578125,577.4823608398438,469.968505859375,719.0394287109375,574.35107421875,270.0483703613281,808.0740356445312,502.02020263671875,186.44192504882812,683.0255737304688,742.4935302734375,198.14639282226562,1064.15478515625,528.1901245117188,795.3563842773438,1009.0271606445312,463.94073486328125,567.8677368164062,1016.3121337890625,430.41168212890625,434.2764587402344,963.7978515625,381.82415771484375,229.46214294433594,896.4315185546875,303.4297790527344,170.0127716064453,955.2601318359375,563.2395629882812,176.19979858398438,0.0,0.0,0.0,0.0,0.0,0.0,0.0,0.0,0.0,0.0,0.0,0.0,1.0,0.9092,9.6517,-0.7178,0.1831,-0.3662,-0.1831,94.2627,-5.3503,171.8207,0.0205,-0.7325,0.6754,0.0826,0.0,0.0,0.0,0.0,0.0,0.0,0.0,0.0,0.0,0.0,0.0,0.0,1.0,0.0,0.0,0.0,0.0,0.0,0.0,0.0,0.0,0.0,0.0,0.0,0.0,1.0,0.0,0.0,0.0,0.0,0.0,0.0,0.0,0.0,0.0,0.0,0.0,0.0,1.0,0.0,0.0,0.0,0.0,0.0,0.0,0.0,0.0,0.0,0.0,0.0,0.0,1.0,0.0,0.0,0.0,0.0,0.0,0.0,0.0,0.0,0.0,0.0,0.0,0.0,1.0,0,0,55568,31763,0,0,0,0,51476,22,30468,0,0,0,0,0,0,0,0,0,0,0,0,0,0,0,0,0,0,0,0,0,0,0,0,0
1777291275.377646,6215,1777291269.76556,1777291269.712405,1777291270.4952357,0,0,53.154945373535156,-729.6757698059082,1,1,0.0,0.0,0.0,0.0,0.0,0.0,0.0,0.0,0.0,0.0,0.0,0.0,0.0,0.0,0.0,0.0,0.0,0.0,0.0,0.0,0.0,0.0,0.0,0.0,0.0,0.0,0.0,764.52734375,568.685791015625,1127.356689453125,1013.5755615234375,607.42333984375,1116.937744140625,818.035888671875,390.3716125488281,1155.225830078125,979.7222290039062,396.0902404785156,1154.798828125,696.2100830078125,515.35107421875,876.944580078125,710.1148071289062,627.8245849609375,634.7112426757812,698.9529418945312,582.23486328125,465.3573303222656,716.780517578125,589.6592407226562,265.1094970703125,804.685791015625,520.4804077148438,177.775634765625,683.2125854492188,761.6939086914062,201.3716583251953,1063.8443603515625,524.7010498046875,794.7796630859375,1008.9362182617188,458.6727600097656,567.6566162109375,1016.2633666992188,424.312255859375,434.2427062988281,963.8281860351562,374.38507080078125,229.73634338378906,896.6128540039062,295.7690734863281,170.12478637695312,955.4931640625,555.573974609375,176.2185821533203,0.0,0.0,0.0,0.0,0.0,0.0,0.0,0.0,0.0,0.0,0.0,0.0,1.0,0.9092,9.6517,-0.7178,0.1831,-0.3662,-0.1831,94.2627,-5.3503,171.8207,0.0205,-0.7325,0.6754,0.0826,0.0,0.0,0.0,0.0,0.0,0.0,0.0,0.0,0.0,0.0,0.0,0.0,1.0,0.0,0.0,0.0,0.0,0.0,0.0,0.0,0.0,0.0,0.0,0.0,0.0,1.0,0.0,0.0,0.0,0.0,0.0,0.0,0.0,0.0,0.0,0.0,0.0,0.0,1.0,0.0,0.0,0.0,0.0,0.0,0.0,0.0,0.0,0.0,0.0,0.0,0.0,1.0,0.0,0.0,0.0,0.0,0.0,0.0,0.0,0.0,0.0,0.0,0.0,0.0,1.0,0,0,55568,31763,0,0,0,0,51476,22,30468,0,0,0,0,0,0,0,0,0,0,0,0,0,0,0,0,0,0,0,0,0,0,0,0,0
1777291275.377646,6216,1777291269.7670474,1777291269.712405,1777291270.4952357,0,0,54.642438888549805,-728.1882762908936,1,1,0.0,0.0,0.0,0.0,0.0,0.0,0.0,0.0,0.0,0.0,0.0,0.0,0.0,0.0,0.0,0.0,0.0,0.0,0.0,0.0,0.0,0.0,0.0,0.0,0.0,0.0,0.0,764.1071166992188,568.1283569335938,1126.481201171875,1013.2354736328125,606.4400634765625,1115.928955078125,817.222412109375,389.81427001953125,1154.8355712890625,978.935302734375,395.27655029296875,1154.4564208984375,695.4426879882812,513.3558349609375,875.7694091796875,710.5419921875,624.6635131835938,632.6879272460938,697.686279296875,586.8262329101562,461.0773010253906,714.6738891601562,604.5429077148438,260.93084716796875,801.0552368164062,538.4415283203125,170.07290649414062,684.2796020507812,780.2227783203125,205.5066680908203,1063.4866943359375,521.3262939453125,794.1616821289062,1008.813720703125,453.4981994628906,567.4244384765625,1016.1935424804688,418.2896728515625,434.1997375488281,963.8544921875,366.9632568359375,230.0241241455078,896.8009033203125,288.1029968261719,170.24378967285156,955.7208862304688,547.909423828125,176.2242431640625,0.0,0.0,0.0,0.0,0.0,0.0,0.0,0.0,0.0,0.0,0.0,0.0,1.0,0.9092,9.6517,-0.7178,0.1831,-0.3662,-0.1831,94.2627,-5.3503,171.8207,0.0205,-0.7325,0.6754,0.0826,0.0,0.0,0.0,0.0,0.0,0.0,0.0,0.0,0.0,0.0,0.0,0.0,1.0,0.0,0.0,0.0,0.0,0.0,0.0,0.0,0.0,0.0,0.0,0.0,0.0,1.0,0.0,0.0,0.0,0.0,0.0,0.0,0.0,0.0,0.0,0.0,0.0,0.0,1.0,0.0,0.0,0.0,0.0,0.0,0.0,0.0,0.0,0.0,0.0,0.0,0.0,1.0,0.0,0.0,0.0,0.0,0.0,0.0,0.0,0.0,0.0,0.0,0.0,0.0,1.0,0,0,55568,31763,0,0,0,0,51476,22,30468,0,0,0,0,0,0,0,0,0,0,0,0,0,0,0,0,0,0,0,0,0,0,0,0,0
1777291275.377646,6217,1777291269.7830236,1777291269.712405,1777291270.4952357,0,0,70.6186294555664,-712.212085723877,1,1,0.0,0.0,0.0,0.0,0.0,0.0,0.0,0.0,0.0,0.0,0.0,0.0,0.0,0.0,0.0,0.0,0.0,0.0,0.0,0.0,0.0,0.0,0.0,0.0,0.0,0.0,0.0,763.6205444335938,567.6873168945312,1125.503173828125,1012.8348388671875,605.5481567382812,1114.8736572265625,816.320068359375,389.3641662597656,1154.318115234375,978.0631713867188,394.5568542480469,1154.0084228515625,694.5789184570312,511.4818420410156,874.4439086914062,710.9344482421875,621.4737548828125,630.536376953125,696.4515380859375,591.2097778320312,457.17523193359375,712.7640380859375,618.7655639648438,257.50360107421875,797.2236938476562,555.6038818359375,163.3882293701172,686.24267578125,797.8255615234375,210.3923797607422,1063.073486328125,518.086181640625,793.5078125,1008.654541015625,448.4200744628906,567.1818237304688,1016.0985717773438,412.3453063964844,434.1584777832031,963.8736572265625,359.56207275390625,230.33396911621094,896.993408203125,280.4327392578125,170.37106323242188,955.9424438476562,540.24609375,176.2163543701172,0.0,0.0,0.0,0.0,0.0,0.0,0.0,0.0,0.0,0.0,0.0,0.0,1.0,0.9092,9.6517,-0.7178,0.1831,-0.3662,-0.1831,94.2627,-5.3503,171.8207,0.0205,-0.7325,0.6754,0.0826,0.0,0.0,0.0,0.0,0.0,0.0,0.0,0.0,0.0,0.0,0.0,0.0,1.0,0.0,0.0,0.0,0.0,0.0,0.0,0.0,0.0,0.0,0.0,0.0,0.0,1.0,0.0,0.0,0.0,0.0,0.0,0.0,0.0,0.0,0.0,0.0,0.0,0.0,1.0,0.0,0.0,0.0,0.0,0.0,0.0,0.0,0.0,0.0,0.0,0.0,0.0,1.0,0.0,0.0,0.0,0.0,0.0,0.0,0.0,0.0,0.0,0.0,0.0,0.0,1.0,0,0,55568,31763,0,0,0,0,51476,22,30468,0,0,0,0,0,0,0,0,0,0,0,0,0,0,0,0,0,0,0,0,0,0,0,0,0
1777291275.377646,6218,1777291269.7861745,1777291269.712405,1777291270.4952357,0,0,73.76956939697266,-709.0611457824707,1,1,0.0,0.0,0.0,0.0,0.0,0.0,0.0,0.0,0.0,0.0,0.0,0.0,0.0,0.0,0.0,0.0,0.0,0.0,0.0,0.0,0.0,0.0,0.0,0.0,0.0,0.0,0.0,763.0625610351562,567.36474609375,1124.4381103515625,1012.367431640625,604.7567749023438,1113.7864990234375,815.3309936523438,389.0224609375,1153.6795654296875,977.1076049804688,393.936767578125,1153.4576416015625,693.6401977539062,509.76605224609375,872.9898681640625,711.29833984375,618.3461303710938,628.3029174804688,695.2837524414062,595.333984375,453.6762390136719,711.0955200195312,632.0833740234375,254.78118896484375,793.2830810546875,571.6424560546875,157.7659454345703,689.0621337890625,814.2222290039062,215.7786102294922,1062.595703125,514.999755859375,792.8242797851562,1008.4530639648438,443.4408264160156,566.9407958984375,1015.9739379882812,406.4796142578125,434.1313781738281,963.8822631835938,352.18475341796875,230.6749267578125,897.18701171875,272.759765625,170.50677490234375,956.1572875976562,532.5841674804688,176.19569396972656,0.0,0.0,0.0,0.0,0.0,0.0,0.0,0.0,0.0,0.0,0.0,0.0,1.0,0.9092,9.6517,-0.7178,0.1831,-0.3662,-0.1831,94.2627,-5.3503,171.8207,0.0205,-0.7325,0.6754,0.0826,0.0,0.0,0.0,0.0,0.0,0.0,0.0,0.0,0.0,0.0,0.0,0.0,1.0,0.0,0.0,0.0,0.0,0.0,0.0,0.0,0.0,0.0,0.0,0.0,0.0,1.0,0.0,0.0,0.0,0.0,0.0,0.0,0.0,0.0,0.0,0.0,0.0,0.0,1.0,0.0,0.0,0.0,0.0,0.0,0.0,0.0,0.0,0.0,0.0,0.0,0.0,1.0,0.0,0.0,0.0,0.0,0.0,0.0,0.0,0.0,0.0,0.0,0.0,0.0,1.0,0,0,55568,31763,0,0,0,0,51476,22,30468,0,0,0,0,0,0,0,0,0,0,0,0,0,0,0,0,0,0,0,0,0,0,0,0,0
1777291275.377646,6219,1777291269.7999518,1777291269.712405,1777291270.4952357,0,0,87.54682540893555,-695.2838897705078,1,1,0.0,0.0,0.0,0.0,0.0,0.0,0.0,0.0,0.0,0.0,0.0,0.0,0.0,0.0,0.0,0.0,0.0,0.0,0.0,0.0,0.0,0.0,0.0,0.0,0.0,0.0,0.0,762.4275512695312,567.1616821289062,1123.3035888671875,1011.8262939453125,604.07470703125,1112.6826171875,814.2574462890625,388.7897033691406,1152.928955078125,976.0704345703125,393.4212646484375,1152.808837890625,692.650634765625,508.24755859375,871.4319458007812,711.6397705078125,615.3683471679688,626.0327758789062,694.2177734375,599.1439819335938,450.5830383300781,709.7109375,644.2572021484375,252.68243408203125,789.3657836914062,586.216552734375,153.22377014160156,692.6460571289062,829.1259155273438,221.3378448486328,1062.044189453125,512.08447265625,792.117919921875,1008.20361328125,438.5628662109375,566.7138061523438,1015.8153686523438,400.69207763671875,434.13177490234375,963.8768310546875,344.834228515625,231.0564727783203,897.377197265625,265.0859375,170.65040588378906,956.3652954101562,524.9239501953125,176.16358947753906,0.0,0.0,0.0,0.0,0.0,0.0,0.0,0.0,0.0,0.0,0.0,0.0,1.0,0.9092,9.6517,-0.7178,0.1831,-0.3662,-0.1831,94.2627,-5.3503,171.8207,0.0205,-0.7325,0.6754,0.0826,0.0,0.0,0.0,0.0,0.0,0.0,0.0,0.0,0.0,0.0,0.0,0.0,1.0,0.0,0.0,0.0,0.0,0.0,0.0,0.0,0.0,0.0,0.0,0.0,0.0,1.0,0.0,0.0,0.0,0.0,0.0,0.0,0.0,0.0,0.0,0.0,0.0,0.0,1.0,0.0,0.0,0.0,0.0,0.0,0.0,0.0,0.0,0.0,0.0,0.0,0.0,1.0,0.0,0.0,0.0,0.0,0.0,0.0,0.0,0.0,0.0,0.0,0.0,0.0,1.0,0,0,55568,31763,0,0,0,0,51476,22,30468,0,0,0,0,0,0,0,0,0,0,0,0,0,0,0,0,0,0,0,0,0,0,0,0,0
1777291275.377646,6220,1777291269.8024642,1777291269.712405,1777291270.4952357,0,0,90.05928039550781,-692.7714347839355,1,1,0.0,0.0,0.0,0.0,0.0,0.0,0.0,0.0,0.0,0.0,0.0,0.0,0.0,0.0,0.0,0.0,0.0,0.0,0.0,0.0,0.0,0.0,0.0,0.0,0.0,0.0,0.0,761.7095947265625,567.07861328125,1122.1181640625,1011.2041015625,603.5100708007812,1111.5775146484375,813.1019287109375,388.666015625,1152.0770263671875,974.9535522460938,393.01458740234375,1152.0689697265625,691.6358032226562,506.9657897949219,869.797119140625,711.9634399414062,612.6212158203125,623.7682495117188,693.2866821289062,602.5845336914062,447.8771057128906,708.646484375,655.066650390625,251.09742736816406,785.6275024414062,598.9876098632812,149.73660278320312,696.8587646484375,842.2659912109375,226.6898651123047,1061.40966796875,509.35650634765625,791.3959350585938,1007.9005126953125,433.7896728515625,566.513671875,1015.6185302734375,394.98175048828125,434.17364501953125,963.8543701171875,337.5127868652344,231.4883270263672,897.5582885742188,257.4139709472656,170.80166625976562,956.5674438476562,517.2667236328125,176.12132263183594,0.0,0.0,0.0,0.0,0.0,0.0,0.0,0.0,0.0,0.0,0.0,0.0,1.0,0.9092,9.6517,-0.7178,0.1831,-0.3662,-0.1831,94.2627,-5.3503,171.8207,0.0205,-0.7325,0.6754,0.0826,0.0,0.0,0.0,0.0,0.0,0.0,0.0,0.0,0.0,0.0,0.0,0.0,1.0,0.0,0.0,0.0,0.0,0.0,0.0,0.0,0.0,0.0,0.0,0.0,0.0,1.0,0.0,0.0,0.0,0.0,0.0,0.0,0.0,0.0,0.0,0.0,0.0,0.0,1.0,0.0,0.0,0.0,0.0,0.0,0.0,0.0,0.0,0.0,0.0,0.0,0.0,1.0,0.0,0.0,0.0,0.0,0.0,0.0,0.0,0.0,0.0,0.0,0.0,0.0,1.0,0,0,55568,31763,0,0,0,0,51476,22,30468,0,0,0,0,0,0,0,0,0,0,0,0,0,0,0,0,0,0,0,0,0,0,0,0,0
1777291275.377646,6221,1777291269.8188207,1777291269.8188207,1777291270.4952357,0,0,0.0,-676.414966583252,1,1,0.0,0.0,0.0,0.0,0.0,0.0,0.0,0.0,0.0,0.0,0.0,0.0,0.0,0.0,0.0,0.0,0.0,0.0,0.0,0.0,0.0,0.0,0.0,0.0,0.0,0.0,0.0,760.9025268554688,567.1154174804688,1120.9014892578125,1010.4933471679688,603.0701904296875,1110.486572265625,811.8668823242188,388.6510314941406,1151.1370849609375,973.7588500976562,392.7200012207031,1151.2469482421875,690.6211547851562,505.9580993652344,868.1141357421875,712.272216796875,610.1746215820312,621.5475463867188,692.5198974609375,605.6033325195312,445.52191162109375,707.9273071289062,664.3235473632812,249.89662170410156,782.2256469726562,609.644287109375,147.2294921875,701.5322875976562,853.4114379882812,231.43539428710938,1060.683837890625,506.83038330078125,790.6659545898438,1007.5382690429688,429.1271667480469,566.3525390625,1015.3795776367188,389.3479309082031,434.27105712890625,963.8121948242188,330.2220153808594,231.98043823242188,897.7242431640625,249.7471923828125,170.96212768554688,956.765625,509.6150207519531,176.06947326660156,0.0,0.0,0.0,0.0,0.0,0.0,0.0,0.0,0.0,0.0,0.0,0.0,1.0,0.9092,9.6517,-0.7226,0.1221,-0.4272,-0.1221,94.2627,-5.3503,171.7932,0.0207,-0.7325,0.6754,0.0827,0.0,0.0,0.0,0.0,0.0,0.0,0.0,0.0,0.0,0.0,0.0,0.0,1.0,0.0,0.0,0.0,0.0,0.0,0.0,0.0,0.0,0.0,0.0,0.0,0.0,1.0,0.0,0.0,0.0,0.0,0.0,0.0,0.0,0.0,0.0,0.0,0.0,0.0,1.0,0.0,0.0,0.0,0.0,0.0,0.0,0.0,0.0,0.0,0.0,0.0,0.0,1.0,0.0,0.0,0.0,0.0,0.0,0.0,0.0,0.0,0.0,0.0,0.0,0.0,1.0,0,0,55568,31763,0,0,0,0,51476,22,30468,0,0,0,0,0,0,0,0,0,0,0,0,0,0,0,0,0,0,0,0,0,0,0,0,0
1777291275.377646,6222,1777291269.83644,1777291269.8188207,1777291270.4952357,0,0,17.61937141418457,-658.7955951690674,1,1,0.0,0.0,0.0,0.0,0.0,0.0,0.0,0.0,0.0,0.0,0.0,0.0,0.0,0.0,0.0,0.0,0.0,0.0,0.0,0.0,0.0,0.0,0.0,0.0,0.0,0.0,0.0,760.0006713867188,567.271484375,1119.6734619140625,1009.6867065429688,602.7610473632812,1109.4254150390625,810.5550537109375,388.7440490722656,1150.1243896484375,972.48828125,392.53955078125,1150.35302734375,689.630126953125,505.2572326660156,866.4126586914062,712.5665283203125,608.0841674804688,619.4034423828125,691.9409790039062,608.1551513671875,443.4676208496094,707.5619506835938,671.8859252929688,248.9427032470703,779.2965698242188,617.9310913085938,145.5869140625,706.4795532226562,862.3931884765625,235.1949005126953,1059.8597412109375,504.51922607421875,789.9356079101562,1007.112060546875,424.58502197265625,566.2413330078125,1015.0952758789062,383.7913818359375,434.4377746582031,963.7484741210938,322.9628601074219,232.5430908203125,897.8693237304688,242.0897979736328,171.13735961914062,956.9627685546875,501.97265625,176.00782775878906,0.0,0.0,0.0,0.0,0.0,0.0,0.0,0.0,0.0,0.0,0.0,0.0,1.0,0.9092,9.6517,-0.7226,0.1221,-0.4272,-0.1221,94.2627,-5.3503,171.7932,0.0207,-0.7325,0.6754,0.0827,0.0,0.0,0.0,0.0,0.0,0.0,0.0,0.0,0.0,0.0,0.0,0.0,1.0,0.0,0.0,0.0,0.0,0.0,0.0,0.0,0.0,0.0,0.0,0.0,0.0,1.0,0.0,0.0,0.0,0.0,0.0,0.0,0.0,0.0,0.0,0.0,0.0,0.0,1.0,0.0,0.0,0.0,0.0,0.0,0.0,0.0,0.0,0.0,0.0,0.0,0.0,1.0,0.0,0.0,0.0,0.0,0.0,0.0,0.0,0.0,0.0,0.0,0.0,0.0,1.0,0,0,55568,31763,0,0,0,0,51476,22,30468,0,0,0,0,0,0,0,0,0,0,0,0,0,0,0,0,0,0,0,0,0,0,0,0,0
1777291275.377646,6223,1777291269.8458688,1777291269.8188207,1777291270.4952357,0,0,27.048110961914062,-649.3668556213379,1,1,0.0,0.0,0.0,0.0,0.0,0.0,0.0,0.0,0.0,0.0,0.0,0.0,0.0,0.0,0.0,0.0,0.0,0.0,0.0,0.0,0.0,0.0,0.0,0.0,0.0,0.0,0.0,758.9987182617188,567.545654296875,1118.4544677734375,1008.7775268554688,602.5869140625,1108.40869140625,809.1688232421875,388.94384765625,1149.055908203125,971.1437377929688,392.47393798828125,1149.39990234375,688.6827392578125,504.8885803222656,864.7223510742188,712.8441162109375,606.3887939453125,617.3628540039062,691.5653076171875,610.2061767578125,441.6574401855469,707.537841796875,677.6697387695312,248.10377502441406,776.9345703125,623.6779174804688,144.67376708984375,711.507080078125,869.1221923828125,237.64781188964844,1058.9322509765625,502.4349670410156,789.2125244140625,1006.61767578125,420.178466796875,566.1887817382812,1014.7627563476562,378.3156433105469,434.686767578125,963.6620483398438,315.7359924316406,233.1872100830078,897.9890747070312,234.44683837890625,171.33900451660156,957.1620483398438,494.3437194824219,175.93540954589844,0.0,0.0,0.0,0.0,0.0,0.0,0.0,0.0,0.0,0.0,0.0,0.0,1.0,0.9092,9.6517,-0.7226,0.1221,-0.4272,-0.1221,94.2627,-5.3503,171.7932,0.0207,-0.7325,0.6754,0.0827,0.0,0.0,0.0,0.0,0.0,0.0,0.0,0.0,0.0,0.0,0.0,0.0,1.0,0.0,0.0,0.0,0.0,0.0,0.0,0.0,0.0,0.0,0.0,0.0,0.0,1.0,0.0,0.0,0.0,0.0,0.0,0.0,0.0,0.0,0.0,0.0,0.0,0.0,1.0,0.0,0.0,0.0,0.0,0.0,0.0,0.0,0.0,0.0,0.0,0.0,0.0,1.0,0.0,0.0,0.0,0.0,0.0,0.0,0.0,0.0,0.0,0.0,0.0,0.0,1.0,0,0,55568,31763,0,0,0,0,51476,22,30468,0,0,0,0,0,0,0,0,0,0,0,0,0,0,0,0,0,0,0,0,0,0,0,0,0
1777291275.377646,6225,1777291269.8552036,1777291269.8188207,1777291270.4952357,1,1,36.38291358947754,-640.0320529937744,1,1,0.0,0.0,0.0,0.0,0.0,0.0,0.0,0.0,0.0,0.0,0.0,0.0,0.0,0.0,0.0,0.0,0.0,0.0,0.0,0.0,0.0,0.0,0.0,0.0,0.0,0.0,0.0,756.6790771484375,568.44091796875,1116.1239013671875,1006.6295776367188,602.6505737304688,1106.565185546875,806.183349609375,389.6563415527344,1146.826416015625,968.239990234375,392.6820068359375,1147.3719482421875,686.9721069335938,505.2002868652344,861.4887084960938,713.3267211914062,604.2467651367188,613.6705322265625,691.4290771484375,612.7486572265625,438.54840087890625,708.34912109375,683.9031372070312,246.3438262939453,773.9946899414062,627.4530029296875,144.51171875,721.0553588867188,875.9258422851562,237.853515625,1056.7596435546875,498.99078369140625,787.8180541992188,1005.4130859375,411.8710632324219,566.2822875976562,1013.9461059570312,367.6454162597656,435.4785461425781,963.4230346679688,301.3856506347656,234.77017211914062,898.1481323242188,219.2288818359375,171.9110565185547,957.5780029296875,479.1397705078125,175.75289916992188,0.0,0.0,0.0,0.0,0.0,0.0,0.0,0.0,0.0,0.0,0.0,0.0,1.0,0.9092,9.6517,-0.7226,0.1221,-0.4272,-0.1221,94.2627,-5.3503,171.7932,0.0207,-0.7325,0.6754,0.0827,0.0,0.0,0.0,0.0,0.0,0.0,0.0,0.0,0.0,0.0,0.0,0.0,1.0,0.0,0.0,0.0,0.0,0.0,0.0,0.0,0.0,0.0,0.0,0.0,0.0,1.0,0.0,0.0,0.0,0.0,0.0,0.0,0.0,0.0,0.0,0.0,0.0,0.0,1.0,0.0,0.0,0.0,0.0,0.0,0.0,0.0,0.0,0.0,0.0,0.0,0.0,1.0,0.0,0.0,0.0,0.0,0.0,0.0,0.0,0.0,0.0,0.0,0.0,0.0,1.0,0,0,55568,31763,0,0,0,0,51476,22,30468,0,0,0,0,0,0,0,0,0,0,0,0,0,0,0,0,0,0,0,0,0,0,0,0,0
1777291275.377646,6226,1777291269.8735523,1777291269.8188207,1777291270.4952357,0,0,54.73160743713379,-621.6833591461182,1,1,0.0,0.0,0.0,0.0,0.0,0.0,0.0,0.0,0.0,0.0,0.0,0.0,0.0,0.0,0.0,0.0,0.0,0.0,0.0,0.0,0.0,0.0,0.0,0.0,0.0,0.0,0.0,755.357177734375,569.0564575195312,1115.0506591796875,1005.3836669921875,602.8853759765625,1105.7645263671875,804.5889892578125,390.1634826660156,1145.705322265625,966.6846313476562,392.9485168457031,1146.328369140625,686.2191162109375,505.8775939941406,859.9966430664062,713.514404296875,603.7869262695312,612.0450439453125,691.6358642578125,613.2589721679688,437.1607360839844,709.052490234375,684.5276489257812,245.2864990234375,773.3113403320312,625.7706298828125,145.038330078125,725.2409057617188,876.2791748046875,235.53834533691406,1055.5181884765625,497.6518859863281,787.1605834960938,1004.7015380859375,408.04302978515625,566.4315795898438,1013.4618530273438,362.4880676269531,436.0419006347656,963.2764892578125,294.271240234375,235.73956298828125,898.197509765625,211.66712951660156,172.35264587402344,957.7973022460938,471.5672912597656,175.64126586914062,0.0,0.0,0.0,0.0,0.0,0.0,0.0,0.0,0.0,0.0,0.0,0.0,1.0,0.9092,9.6517,-0.7226,0.1221,-0.4272,-0.1221,94.2627,-5.3503,171.7932,0.0207,-0.7325,0.6754,0.0827,0.0,0.0,0.0,0.0,0.0,0.0,0.0,0.0,0.0,0.0,0.0,0.0,1.0,0.0,0.0,0.0,0.0,0.0,0.0,0.0,0.0,0.0,0.0,0.0,0.0,1.0,0.0,0.0,0.0,0.0,0.0,0.0,0.0,0.0,0.0,0.0,0.0,0.0,1.0,0.0,0.0,0.0,0.0,0.0,0.0,0.0,0.0,0.0,0.0,0.0,0.0,1.0,0.0,0.0,0.0,0.0,0.0,0.0,0.0,0.0,0.0,0.0,0.0,0.0,1.0,0,0,55568,31763,0,0,0,0,51476,22,30468,0,0,0,0,0,0,0,0,0,0,0,0,0,0,0,0,0,0,0,0,0,0,0,0,0
1777291275.377646,6227,1777291269.877612,1777291269.8188207,1777291270.4952357,0,0,58.791399002075195,-617.6235675811768,1,1,0.0,0.0,0.0,0.0,0.0,0.0,0.0,0.0,0.0,0.0,0.0,0.0,0.0,0.0,0.0,0.0,0.0,0.0,0.0,0.0,0.0,0.0,0.0,0.0,0.0,0.0,0.0,753.927490234375,569.7785034179688,1114.0628662109375,1004.0213012695312,603.2483520507812,1105.06005859375,802.93017578125,390.7660217285156,1144.6072998046875,965.0628051757812,393.31524658203125,1145.2869873046875,685.529541015625,506.8800048828125,858.6171264648438,713.6516723632812,603.6986694335938,610.5772705078125,691.978271484375,613.3082885742188,435.8475646972656,709.845458984375,683.7120361328125,244.07920837402344,773.0148315429688,622.1190185546875,145.8470916748047,728.8533935546875,874.9107666015625,231.79518127441406,1054.18115234375,496.5832214355469,786.5383911132812,1003.9202270507812,404.4981994628906,566.6460571289062,1012.930419921875,357.4892883300781,436.72882080078125,963.1206665039062,287.2105712890625,236.85296630859375,898.2440185546875,204.14596557617188,172.9636993408203,958.02294921875,464.01251220703125,175.5172882080078,0.0,0.0,0.0,0.0,0.0,0.0,0.0,0.0,0.0,0.0,0.0,0.0,1.0,0.9092,9.6517,-0.7226,0.1221,-0.4272,-0.1221,94.2627,-5.3503,171.7932,0.0207,-0.7325,0.6754,0.0827,0.0,0.0,0.0,0.0,0.0,0.0,0.0,0.0,0.0,0.0,0.0,0.0,1.0,0.0,0.0,0.0,0.0,0.0,0.0,0.0,0.0,0.0,0.0,0.0,0.0,1.0,0.0,0.0,0.0,0.0,0.0,0.0,0.0,0.0,0.0,0.0,0.0,0.0,1.0,0.0,0.0,0.0,0.0,0.0,0.0,0.0,0.0,0.0,0.0,0.0,0.0,1.0,0.0,0.0,0.0,0.0,0.0,0.0,0.0,0.0,0.0,0.0,0.0,0.0,1.0,0,0,55568,31763,0,0,0,0,51476,22,30468,0,0,0,0,0,0,0,0,0,0,0,0,0,0,0,0,0,0,0,0,0,0,0,0,0
1777291275.377646,6228,1777291269.8900554,1777291269.8188207,1777291270.4952357,0,0,71.23470306396484,-605.1802635192871,1,1,0.0,0.0,0.0,0.0,0.0,0.0,0.0,0.0,0.0,0.0,0.0,0.0,0.0,0.0,0.0,0.0,0.0,0.0,0.0,0.0,0.0,0.0,0.0,0.0,0.0,0.0,0.0,752.3927001953125,570.6015625,1113.176513671875,1002.5440673828125,603.7303466796875,1104.4619140625,801.2093505859375,391.4585876464844,1143.5526123046875,963.3765258789062,393.7734375,1144.2647705078125,684.8914794921875,508.1758117675781,857.3679809570312,713.7262573242188,603.9383544921875,609.2711791992188,692.4022216796875,612.9550170898438,434.60015869140625,710.6441040039062,681.67919921875,242.73951721191406,772.9859008789062,616.9218139648438,146.86062622070312,731.8051147460938,872.1094360351562,226.9137725830078,1052.758544921875,495.7970886230469,785.9573364257812,1003.0753784179688,401.29974365234375,566.91943359375,1012.3582153320312,352.6926574707031,437.5470886230469,962.9662475585938,280.2217102050781,238.13400268554688,898.3078002929688,196.67306518554688,173.80419921875,958.25146484375,456.4715576171875,175.38470458984375,0.0,0.0,0.0,0.0,0.0,0.0,0.0,0.0,0.0,0.0,0.0,0.0,1.0,0.9092,9.6517,-0.7226,0.1221,-0.4272,-0.1221,94.2627,-5.3503,171.7932,0.0207,-0.7325,0.6754,0.0827,0.0,0.0,0.0,0.0,0.0,0.0,0.0,0.0,0.0,0.0,0.0,0.0,1.0,0.0,0.0,0.0,0.0,0.0,0.0,0.0,0.0,0.0,0.0,0.0,0.0,1.0,0.0,0.0,0.0,0.0,0.0,0.0,0.0,0.0,0.0,0.0,0.0,0.0,1.0,0.0,0.0,0.0,0.0,0.0,0.0,0.0,0.0,0.0,0.0,0.0,0.0,1.0,0.0,0.0,0.0,0.0,0.0,0.0,0.0,0.0,0.0,0.0,0.0,0.0,1.0,0,0,55568,31763,0,0,0,0,51476,22,30468,0,0,0,0,0,0,0,0,0,0,0,0,0,0,0,0,0,0,0,0,0,0,0,0,0
1777291275.377646,6229,1777291269.8936465,1777291269.8188207,1777291270.4952357,0,0,74.82576370239258,-601.5892028808594,1,1,0.0,0.0,0.0,0.0,0.0,0.0,0.0,0.0,0.0,0.0,0.0,0.0,0.0,0.0,0.0,0.0,0.0,0.0,0.0,0.0,0.0,0.0,0.0,0.0,0.0,0.0,0.0,750.7575073242188,571.5183715820312,1112.406005859375,1000.9557495117188,604.318359375,1103.978271484375,799.4292602539062,392.23455810546875,1142.560791015625,961.6279907226562,394.31219482421875,1143.2783203125,684.2877807617188,509.7229919433594,856.263427734375,713.7266235351562,604.4524536132812,608.12841796875,692.8424682617188,612.2711791992188,433.42315673828125,711.3737182617188,678.6721801757812,241.3097686767578,773.1159057617188,610.6278076171875,148.00927734375,734.0606689453125,868.1701049804688,221.26388549804688,1051.26318359375,495.3072204589844,785.4227294921875,1002.1769409179688,398.52081298828125,567.242919921875,1011.75537109375,348.15362548828125,438.5038146972656,962.8277587890625,273.3316650390625,239.61016845703125,898.4115600585938,189.25802612304688,174.93788146972656,958.4781494140625,448.93963623046875,175.24996948242188,0.0,0.0,0.0,0.0,0.0,0.0,0.0,0.0,0.0,0.0,0.0,0.0,1.0,0.9092,9.6517,-0.7226,0.1221,-0.4272,-0.1221,94.2627,-5.3503,171.7932,0.0207,-0.7325,0.6754,0.0827,0.0,0.0,0.0,0.0,0.0,0.0,0.0,0.0,0.0,0.0,0.0,0.0,1.0,0.0,0.0,0.0,0.0,0.0,0.0,0.0,0.0,0.0,0.0,0.0,0.0,1.0,0.0,0.0,0.0,0.0,0.0,0.0,0.0,0.0,0.0,0.0,0.0,0.0,1.0,0.0,0.0,0.0,0.0,0.0,0.0,0.0,0.0,0.0,0.0,0.0,0.0,1.0,0.0,0.0,0.0,0.0,0.0,0.0,0.0,0.0,0.0,0.0,0.0,0.0,1.0,0,0,55568,31763,0,0,0,0,51476,22,30468,0,0,0,0,0,0,0,0,0,0,0,0,0,0,0,0,0,0,0,0,0,0,0,0,0
1777291275.377646,6230,1777291269.9086895,1777291269.908331,1777291270.4952357,0,0,0.35858154296875,-586.5461826324463,1,1,0.0,0.0,0.0,0.0,0.0,0.0,0.0,0.0,0.0,0.0,0.0,0.0,0.0,0.0,0.0,0.0,0.0,0.0,0.0,0.0,0.0,0.0,0.0,0.0,0.0,0.0,0.0,749.0286865234375,572.520263671875,1111.763671875,999.2627563476562,604.9962158203125,1103.6163330078125,797.5928344726562,393.0858459472656,1141.6505126953125,959.8196411132812,394.9186706542969,1142.34375,683.6973876953125,511.47125244140625,855.3143920898438,713.6429443359375,605.1802368164062,607.1481323242188,693.2277221679688,611.3351440429688,432.331298828125,711.9767456054688,674.9290161132812,239.84703063964844,773.3162841796875,603.6495361328125,149.22877502441406,735.645263671875,863.3634033203125,215.2469482421875,1049.710693359375,495.12884521484375,784.9393310546875,1001.2388916015625,396.24273681640625,567.6055297851562,1011.1359252929688,343.9391784667969,439.6054992675781,962.72314453125,266.5779113769531,241.31260681152344,898.5755615234375,181.9142608642578,176.42694091796875,958.6975708007812,441.4125671386719,175.12176513671875,0.0,0.0,0.0,0.0,0.0,0.0,0.0,0.0,0.0,0.0,0.0,0.0,1.0,0.9044,9.6564,-0.7178,0.1221,-0.4272,-0.1221,94.2627,-5.3503,171.7822,0.0208,-0.7325,0.6754,0.0828,0.0,0.0,0.0,0.0,0.0,0.0,0.0,0.0,0.0,0.0,0.0,0.0,1.0,0.0,0.0,0.0,0.0,0.0,0.0,0.0,0.0,0.0,0.0,0.0,0.0,1.0,0.0,0.0,0.0,0.0,0.0,0.0,0.0,0.0,0.0,0.0,0.0,0.0,1.0,0.0,0.0,0.0,0.0,0.0,0.0,0.0,0.0,0.0,0.0,0.0,0.0,1.0,0.0,0.0,0.0,0.0,0.0,0.0,0.0,0.0,0.0,0.0,0.0,0.0,1.0,0,0,55568,31763,0,0,0,0,51476,22,30468,0,0,0,0,0,0,0,0,0,0,0,0,0,0,0,0,0,0,0,0,0,0,0,0,0
1777291275.377646,6231,1777291269.9259262,1777291269.908331,1777291270.4952357,0,0,17.595291137695312,-569.3094730377197,1,1,0.0,0.0,0.0,0.0,0.0,0.0,0.0,0.0,0.0,0.0,0.0,0.0,0.0,0.0,0.0,0.0,0.0,0.0,0.0,0.0,0.0,0.0,0.0,0.0,0.0,0.0,0.0,747.215087890625,573.5964965820312,1111.2591552734375,997.4739379882812,605.7443237304688,1103.3809814453125,795.7034301757812,394.0028076171875,1140.8380126953125,957.9541625976562,395.5780029296875,1141.476318359375,683.0973510742188,513.3641357421875,854.5283203125,713.4689331054688,606.0563354492188,606.3272705078125,693.4885864257812,610.2221069335938,431.3451232910156,712.4170532226562,670.6600952148438,238.41275024414062,773.522216796875,596.3193359375,150.45875549316406,736.6422729492188,857.9152221679688,209.24771118164062,1048.1182861328125,495.27813720703125,784.5111694335938,1000.2789306640625,394.5521240234375,567.9954223632812,1010.5176391601562,340.1266174316406,440.85833740234375,962.6728515625,260.00982666015625,243.27540588378906,898.8131103515625,174.6619415283203,178.32862854003906,958.9049072265625,433.8888244628906,175.00942993164062,0.0,0.0,0.0,0.0,0.0,0.0,0.0,0.0,0.0,0.0,0.0,0.0,1.0,0.9044,9.6564,-0.7178,0.1221,-0.4272,-0.1221,94.2627,-5.3503,171.7822,0.0208,-0.7325,0.6754,0.0828,0.0,0.0,0.0,0.0,0.0,0.0,0.0,0.0,0.0,0.0,0.0,0.0,1.0,0.0,0.0,0.0,0.0,0.0,0.0,0.0,0.0,0.0,0.0,0.0,0.0,1.0,0.0,0.0,0.0,0.0,0.0,0.0,0.0,0.0,0.0,0.0,0.0,0.0,1.0,0.0,0.0,0.0,0.0,0.0,0.0,0.0,0.0,0.0,0.0,0.0,0.0,1.0,0.0,0.0,0.0,0.0,0.0,0.0,0.0,0.0,0.0,0.0,0.0,0.0,1.0,0,0,55568,31763,0,0,0,0,51476,22,30468,0,0,0,0,0,0,0,0,0,0,0,0,0,0,0,0,0,0,0,0,0,0,0,0,0
1777291275.377646,6232,1777291269.9280448,1777291269.908331,1777291270.4952357,0,0,19.713878631591797,-567.1908855438232,1,1,0.0,0.0,0.0,0.0,0.0,0.0,0.0,0.0,0.0,0.0,0.0,0.0,0.0,0.0,0.0,0.0,0.0,0.0,0.0,0.0,0.0,0.0,0.0,0.0,0.0,0.0,0.0,745.3269653320312,574.7348022460938,1110.89990234375,995.6005859375,606.5402221679688,1103.275146484375,793.7647094726562,394.9743957519531,1140.137939453125,956.0347290039062,396.27392578125,1140.6893310546875,682.4646606445312,515.3416137695312,853.908935546875,713.2032470703125,607.01220703125,605.6596069335938,693.5662231445312,608.9945068359375,430.4864501953125,712.6820678710938,666.0320434570312,237.06454467773438,773.6927490234375,588.8688354492188,151.64234924316406,737.1796264648438,851.9978637695312,203.59600830078125,1046.505126953125,495.7712707519531,784.1414184570312,999.3184204101562,393.5372314453125,568.4002685546875,1009.9216918945312,336.80157470703125,442.26824951171875,962.699462890625,253.6890869140625,245.53453063964844,899.127685546875,167.5313262939453,180.6959228515625,959.0971069335938,426.371826171875,174.9202880859375,0.0,0.0,0.0,0.0,0.0,0.0,0.0,0.0,0.0,0.0,0.0,0.0,1.0,0.9044,9.6564,-0.7178,0.1221,-0.4272,-0.1221,94.2627,-5.3503,171.7822,0.0208,-0.7325,0.6754,0.0828,0.0,0.0,0.0,0.0,0.0,0.0,0.0,0.0,0.0,0.0,0.0,0.0,1.0,0.0,0.0,0.0,0.0,0.0,0.0,0.0,0.0,0.0,0.0,0.0,0.0,1.0,0.0,0.0,0.0,0.0,0.0,0.0,0.0,0.0,0.0,0.0,0.0,0.0,1.0,0.0,0.0,0.0,0.0,0.0,0.0,0.0,0.0,0.0,0.0,0.0,0.0,1.0,0.0,0.0,0.0,0.0,0.0,0.0,0.0,0.0,0.0,0.0,0.0,0.0,1.0,0,0,55568,31763,0,0,0,0,51476,22,30468,0,0,0,0,0,0,0,0,0,0,0,0,0,0,0,0,0,0,0,0,0,0,0,0,0
1777291275.377646,6233,1777291269.9433234,1777291269.908331,1777291270.4952357,0,0,34.99245643615723,-551.9123077392578,1,1,0.0,0.0,0.0,0.0,0.0,0.0,0.0,0.0,0.0,0.0,0.0,0.0,0.0,0.0,0.0,0.0,0.0,0.0,0.0,0.0,0.0,0.0,0.0,0.0,0.0,0.0,0.0,743.3764038085938,575.921142578125,1110.68994140625,993.656005859375,607.3591918945312,1103.2996826171875,791.7808227539062,395.98809814453125,1139.561767578125,954.0648803710938,396.9888000488281,1139.9947509765625,681.7778930664062,517.3423461914062,853.4566650390625,712.849609375,607.9773559570312,605.1357421875,693.4210815429688,607.6937255859375,429.77398681640625,712.7806396484375,661.1616821289062,235.85086059570312,773.8089599609375,581.431884765625,152.72828674316406,737.4047241210938,845.7321166992188,198.54324340820312,1044.890625,496.6230163574219,783.8327026367188,998.3809814453125,393.2834777832031,568.8088989257812,1009.3712768554688,334.0546569824219,443.8409423828125,962.8258056640625,247.68946838378906,248.12643432617188,899.5137939453125,160.5665740966797,183.5829620361328,959.2747802734375,418.8726806640625,174.8566436767578,0.0,0.0,0.0,0.0,0.0,0.0,0.0,0.0,0.0,0.0,0.0,0.0,1.0,0.9044,9.6564,-0.7178,0.1221,-0.4272,-0.1221,94.2627,-5.3503,171.7822,0.0208,-0.7325,0.6754,0.0828,0.0,0.0,0.0,0.0,0.0,0.0,0.0,0.0,0.0,0.0,0.0,0.0,1.0,0.0,0.0,0.0,0.0,0.0,0.0,0.0,0.0,0.0,0.0,0.0,0.0,1.0,0.0,0.0,0.0,0.0,0.0,0.0,0.0,0.0,0.0,0.0,0.0,0.0,1.0,0.0,0.0,0.0,0.0,0.0,0.0,0.0,0.0,0.0,0.0,0.0,0.0,1.0,0.0,0.0,0.0,0.0,0.0,0.0,0.0,0.0,0.0,0.0,0.0,0.0,1.0,0,0,55568,31763,0,0,0,0,51476,22,30468,0,0,0,0,0,0,0,0,0,0,0,0,0,0,0,0,0,0,0,0,0,0,0,0,0
1777291275.377646,6234,1777291269.9457867,1777291269.908331,1777291270.4952357,0,0,37.45579719543457,-549.4489669799805,1,1,0.0,0.0,0.0,0.0,0.0,0.0,0.0,0.0,0.0,0.0,0.0,0.0,0.0,0.0,0.0,0.0,0.0,0.0,0.0,0.0,0.0,0.0,0.0,0.0,0.0,0.0,0.0,741.3764038085938,577.1399536132812,1110.63037109375,991.6553344726562,608.1747436523438,1103.453125,789.7564697265625,397.0301513671875,1139.1182861328125,952.0487060546875,397.7042541503906,1139.402099609375,681.0184326171875,519.30615234375,853.1680297851562,712.41650390625,608.88037109375,604.7426147460938,693.0399780273438,606.334716796875,429.2202453613281,712.7391967773438,656.1184692382812,234.8078155517578,773.8696899414062,574.0628662109375,153.67547607421875,737.458251953125,839.1969604492188,194.25167846679688,1043.294677734375,497.8448181152344,783.5869750976562,997.4916381835938,393.8685302734375,569.2119140625,1008.890625,331.97772216796875,445.58172607421875,963.07373046875,242.0953826904297,251.0865478515625,899.9599609375,153.82907104492188,187.05264282226562,959.4439697265625,411.4123840332031,174.81346130371094,0.0,0.0,0.0,0.0,0.0,0.0,0.0,0.0,0.0,0.0,0.0,0.0,1.0,0.9044,9.6564,-0.7178,0.1221,-0.4272,-0.1221,94.2627,-5.3503,171.7822,0.0208,-0.7325,0.6754,0.0828,0.0,0.0,0.0,0.0,0.0,0.0,0.0,0.0,0.0,0.0,0.0,0.0,1.0,0.0,0.0,0.0,0.0,0.0,0.0,0.0,0.0,0.0,0.0,0.0,0.0,1.0,0.0,0.0,0.0,0.0,0.0,0.0,0.0,0.0,0.0,0.0,0.0,0.0,1.0,0.0,0.0,0.0,0.0,0.0,0.0,0.0,0.0,0.0,0.0,0.0,0.0,1.0,0.0,0.0,0.0,0.0,0.0,0.0,0.0,0.0,0.0,0.0,0.0,0.0,1.0,0,0,55568,31763,0,0,0,0,51476,22,30468,0,0,0,0,0,0,0,0,0,0,0,0,0,0,0,0,0,0,0,0,0,0,0,0,0
1777291275.377646,6235,1777291269.9612503,1777291269.908331,1777291270.4952357,0,0,52.91938781738281,-533.9853763580322,1,1,0.0,0.0,0.0,0.0,0.0,0.0,0.0,0.0,0.0,0.0,0.0,0.0,0.0,0.0,0.0,0.0,0.0,0.0,0.0,0.0,0.0,0.0,0.0,0.0,0.0,0.0,0.0,739.3410034179688,578.37451171875,1110.718994140625,989.6151123046875,608.9599609375,1103.7314453125,787.697021484375,398.08563232421875,1138.812744140625,949.9909057617188,398.4016418457031,1138.91845703125,680.1710815429688,521.1758422851562,853.0360717773438,711.9154052734375,609.6493530273438,604.4638061523438,692.439208984375,604.9044189453125,428.8290100097656,712.595458984375,650.9332275390625,233.95716857910156,773.885986328125,566.7637329101562,154.45867919921875,737.4547729492188,832.4439086914062,190.79222106933594,1041.736572265625,499.44287109375,783.40576171875,996.6753540039062,395.3574523925781,569.6031494140625,1008.503173828125,330.6591491699219,447.49530029296875,963.4622192382812,236.99908447265625,254.44744873046875,900.453125,147.40072631835938,191.18328857421875,959.6171264648438,404.0231628417969,174.7766876220703,0.0,0.0,0.0,0.0,0.0,0.0,0.0,0.0,0.0,0.0,0.0,0.0,1.0,0.9044,9.6564,-0.7178,0.1221,-0.4272,-0.1221,94.2627,-5.3503,171.7822,0.0208,-0.7325,0.6754,0.0828,0.0,0.0,0.0,0.0,0.0,0.0,0.0,0.0,0.0,0.0,0.0,0.0,1.0,0.0,0.0,0.0,0.0,0.0,0.0,0.0,0.0,0.0,0.0,0.0,0.0,1.0,0.0,0.0,0.0,0.0,0.0,0.0,0.0,0.0,0.0,0.0,0.0,0.0,1.0,0.0,0.0,0.0,0.0,0.0,0.0,0.0,0.0,0.0,0.0,0.0,0.0,1.0,0.0,0.0,0.0,0.0,0.0,0.0,0.0,0.0,0.0,0.0,0.0,0.0,1.0,0,0,55568,31763,0,0,0,0,51476,22,30468,0,0,0,0,0,0,0,0,0,0,0,0,0,0,0,0,0,0,0,0,0,0,0,0,0
1777291275.377646,6236,1777291269.9633727,1777291269.908331,1777291270.4952357,0,0,55.04179000854492,-531.8629741668701,1,1,0.0,0.0,0.0,0.0,0.0,0.0,0.0,0.0,0.0,0.0,0.0,0.0,0.0,0.0,0.0,0.0,0.0,0.0,0.0,0.0,0.0,0.0,0.0,0.0,0.0,0.0,0.0,737.2847290039062,579.6070556640625,1110.9500732421875,987.5526123046875,609.6878662109375,1104.128173828125,785.6082153320312,399.1388854980469,1138.6474609375,947.8970336914062,399.0623779296875,1138.548583984375,679.2242431640625,522.8990478515625,853.0504150390625,711.3585205078125,610.2132568359375,604.280029296875,691.662109375,603.3634033203125,428.5943298339844,712.3917236328125,645.6090087890625,233.3054656982422,773.8754272460938,559.5095825195312,155.072021484375,737.4747314453125,825.5115966796875,188.1512908935547,1040.235107421875,501.4159851074219,783.29052734375,995.9551391601562,397.7978210449219,569.9807739257812,1008.2301025390625,330.1791076660156,449.5853271484375,964.0052490234375,232.4966278076172,258.2370300292969,900.98193359375,141.3863525390625,196.07156372070312,959.8130493164062,396.748291015625,174.72239685058594,0.0,0.0,0.0,0.0,0.0,0.0,0.0,0.0,0.0,0.0,0.0,0.0,1.0,0.9044,9.6564,-0.7178,0.1221,-0.4272,-0.1221,94.2627,-5.3503,171.7822,0.0208,-0.7325,0.6754,0.0828,0.0,0.0,0.0,0.0,0.0,0.0,0.0,0.0,0.0,0.0,0.0,0.0,1.0,0.0,0.0,0.0,0.0,0.0,0.0,0.0,0.0,0.0,0.0,0.0,0.0,1.0,0.0,0.0,0.0,0.0,0.0,0.0,0.0,0.0,0.0,0.0,0.0,0.0,1.0,0.0,0.0,0.0,0.0,0.0,0.0,0.0,0.0,0.0,0.0,0.0,0.0,1.0,0.0,0.0,0.0,0.0,0.0,0.0,0.0,0.0,0.0,0.0,0.0,0.0,1.0,0,0,55568,31763,0,0,0,0,51476,22,30468,0,0,0,0,0,0,0,0,0,0,0,0,0,0,0,0,0,0,0,0,0,0,0,0,0
1777291275.377646,6237,1777291269.9790735,1777291269.908331,1777291270.4952357,0,0,70.74260711669922,-516.1621570587158,1,1,0.0,0.0,0.0,0.0,0.0,0.0,0.0,0.0,0.0,0.0,0.0,0.0,0.0,0.0,0.0,0.0,0.0,0.0,0.0,0.0,0.0,0.0,0.0,0.0,0.0,0.0,0.0,735.2225952148438,580.8194580078125,1111.3143310546875,985.4855346679688,610.3330688476562,1104.6341552734375,783.4967651367188,400.1735534667969,1138.6209716796875,945.773193359375,399.6687316894531,1138.29443359375,678.1697998046875,524.4293823242188,853.1978149414062,710.7564697265625,610.50390625,604.1702880859375,690.771484375,601.6507568359375,428.5006103515625,712.1685791015625,640.1324462890625,232.84463500976562,773.8568725585938,552.2683715820312,155.5275115966797,737.5648193359375,818.4341430664062,186.24905395507812,1038.8070068359375,503.75396728515625,783.242919921875,995.350830078125,401.2158508300781,570.3480834960938,1008.08837890625,330.6041259765625,451.8541259765625,964.7095336914062,228.6824493408203,262.47637939453125,901.5392456054688,135.91464233398438,201.8300323486328,960.055419921875,389.6400451660156,174.6171875,0.0,0.0,0.0,0.0,0.0,0.0,0.0,0.0,0.0,0.0,0.0,0.0,1.0,0.9044,9.6564,-0.7178,0.1221,-0.4272,-0.1221,94.2627,-5.3503,171.7822,0.0208,-0.7325,0.6754,0.0828,0.0,0.0,0.0,0.0,0.0,0.0,0.0,0.0,0.0,0.0,0.0,0.0,1.0,0.0,0.0,0.0,0.0,0.0,0.0,0.0,0.0,0.0,0.0,0.0,0.0,1.0,0.0,0.0,0.0,0.0,0.0,0.0,0.0,0.0,0.0,0.0,0.0,0.0,1.0,0.0,0.0,0.0,0.0,0.0,0.0,0.0,0.0,0.0,0.0,0.0,0.0,1.0,0.0,0.0,0.0,0.0,0.0,0.0,0.0,0.0,0.0,0.0,0.0,0.0,1.0,0,0,55568,31763,0,0,0,0,51476,22,30468,0,0,0,0,0,0,0,0,0,0,0,0,0,0,0,0,0,0,0,0,0,0,0,0,0
1777291275.377646,6238,1777291269.9819508,1777291269.908331,1777291270.4952357,0,0,73.61984252929688,-513.2849216461182,1,1,0.0,0.0,0.0,0.0,0.0,0.0,0.0,0.0,0.0,0.0,0.0,0.0,0.0,0.0,0.0,0.0,0.0,0.0,0.0,0.0,0.0,0.0,0.0,0.0,0.0,0.0,0.0,733.1693725585938,581.9931640625,1111.7996826171875,983.4314575195312,610.8724365234375,1105.2384033203125,781.3696899414062,401.1730041503906,1138.7286376953125,943.6265869140625,400.2040710449219,1138.1552734375,677.0029907226562,525.72705078125,853.4622802734375,710.1161499023438,610.4580688476562,604.1129150390625,689.838134765625,599.69140625,428.5237731933594,711.9597778320312,634.4832763671875,232.55413818359375,773.84619140625,545.012939453125,155.84976196289062,737.7416381835938,811.244140625,184.96395874023438,1037.4677734375,506.4364318847656,783.2653198242188,994.8770751953125,405.61297607421875,570.7140502929688,1008.08935546875,331.9820556640625,454.30255126953125,965.5725708007812,225.64308166503906,267.177978515625,902.1226196289062,131.13597106933594,208.5795135498047,960.3700561523438,382.7565002441406,174.42022705078125,0.0,0.0,0.0,0.0,0.0,0.0,0.0,0.0,0.0,0.0,0.0,0.0,1.0,0.9044,9.6564,-0.7178,0.1221,-0.4272,-0.1221,94.2627,-5.3503,171.7822,0.0208,-0.7325,0.6754,0.0828,0.0,0.0,0.0,0.0,0.0,0.0,0.0,0.0,0.0,0.0,0.0,0.0,1.0,0.0,0.0,0.0,0.0,0.0,0.0,0.0,0.0,0.0,0.0,0.0,0.0,1.0,0.0,0.0,0.0,0.0,0.0,0.0,0.0,0.0,0.0,0.0,0.0,0.0,1.0,0.0,0.0,0.0,0.0,0.0,0.0,0.0,0.0,0.0,0.0,0.0,0.0,1.0,0.0,0.0,0.0,0.0,0.0,0.0,0.0,0.0,0.0,0.0,0.0,0.0,1.0,0,0,55568,31763,0,0,0,0,51476,22,30468,0,0,0,0,0,0,0,0,0,0,0,0,0,0,0,0,0,0,0,0,0,0,0,0,0
1777291275.377646,6239,1777291269.9972024,1777291269.908331,1777291270.4952357,0,0,88.87147903442383,-498.0332851409912,1,1,0.0,0.0,0.0,0.0,0.0,0.0,0.0,0.0,0.0,0.0,0.0,0.0,0.0,0.0,0.0,0.0,0.0,0.0,0.0,0.0,0.0,0.0,0.0,0.0,0.0,0.0,0.0,731.1395263671875,583.1099853515625,1112.390869140625,981.4071655273438,611.2861328125,1105.9276123046875,779.2349853515625,402.12060546875,1138.9632568359375,941.4651489257812,400.6534423828125,1138.1285400390625,675.7222290039062,526.7593383789062,853.8258056640625,709.440185546875,610.02099609375,604.0867919921875,688.9285278320312,597.406005859375,428.6335144042969,711.7897338867188,628.64111328125,232.40431213378906,773.854248046875,537.7262573242188,156.06967163085938,737.997802734375,803.972412109375,184.15640258789062,1036.22998046875,509.4322814941406,783.3609619140625,994.5424194335938,410.964111328125,571.0940551757812,1008.2369995117188,334.3372497558594,456.9297180175781,966.5803833007812,223.4505157470703,272.3435974121094,902.7337646484375,127.21681213378906,216.43641662597656,960.7819213867188,376.1575012207031,174.08782958984375,0.0,0.0,0.0,0.0,0.0,0.0,0.0,0.0,0.0,0.0,0.0,0.0,1.0,0.9044,9.6564,-0.7178,0.1221,-0.4272,-0.1221,94.2627,-5.3503,171.7822,0.0208,-0.7325,0.6754,0.0828,0.0,0.0,0.0,0.0,0.0,0.0,0.0,0.0,0.0,0.0,0.0,0.0,1.0,0.0,0.0,0.0,0.0,0.0,0.0,0.0,0.0,0.0,0.0,0.0,0.0,1.0,0.0,0.0,0.0,0.0,0.0,0.0,0.0,0.0,0.0,0.0,0.0,0.0,1.0,0.0,0.0,0.0,0.0,0.0,0.0,0.0,0.0,0.0,0.0,0.0,0.0,1.0,0.0,0.0,0.0,0.0,0.0,0.0,0.0,0.0,0.0,0.0,0.0,0.0,1.0,0,0,55568,31763,0,0,0,0,51476,22,30468,0,0,0,0,0,0,0,0,0,0,0,0,0,0,0,0,0,0,0,0,0,0,0,0,0
1777291275.377646,6240,1777291270.0181456,1777291270.0171447,1777291270.4952357,0,0,1.0008811950683594,-477.09012031555176,1,1,0.0,0.0,0.0,0.0,0.0,0.0,0.0,0.0,0.0,0.0,0.0,0.0,0.0,0.0,0.0,0.0,0.0,0.0,0.0,0.0,0.0,0.0,0.0,0.0,0.0,0.0,0.0,729.1467895507812,584.152099609375,1113.07080078125,979.4281616210938,611.5584106445312,1106.6875,777.1011962890625,403.00006103515625,1139.314697265625,939.2977294921875,401.00390625,1138.208984375,674.329345703125,527.5006713867188,854.2685546875,708.7269287109375,609.1488647460938,604.0725708007812,688.0944213867188,594.7211303710938,428.7967224121094,711.6725463867188,622.590576171875,232.36038208007812,773.8856811523438,530.4025268554688,156.21835327148438,738.3102416992188,796.646728515625,183.6881561279297,1035.103515625,512.7001953125,783.5343017578125,994.3480834960938,417.2171936035156,571.5093383789062,1008.5263671875,337.6667175292969,459.73321533203125,967.7064819335938,222.15628051757812,277.9632263183594,903.37548828125,124.32969665527344,225.49571228027344,961.311279296875,369.9008483886719,173.58074951171875,0.0,0.0,0.0,0.0,0.0,0.0,0.0,0.0,0.0,0.0,0.0,0.0,1.0,0.9044,9.6469,-0.7226,0.1221,-0.3662,-0.1831,94.2627,-5.3503,171.7657,0.0209,-0.7325,0.6754,0.0829,0.0,0.0,0.0,0.0,0.0,0.0,0.0,0.0,0.0,0.0,0.0,0.0,1.0,0.0,0.0,0.0,0.0,0.0,0.0,0.0,0.0,0.0,0.0,0.0,0.0,1.0,0.0,0.0,0.0,0.0,0.0,0.0,0.0,0.0,0.0,0.0,0.0,0.0,1.0,0.0,0.0,0.0,0.0,0.0,0.0,0.0,0.0,0.0,0.0,0.0,0.0,1.0,0.0,0.0,0.0,0.0,0.0,0.0,0.0,0.0,0.0,0.0,0.0,0.0,1.0,0,0,55568,31763,0,0,0,0,51476,22,30468,0,0,0,0,0,0,0,0,0,0,0,0,0,0,0,0,0,0,0,0,0,0,0,0,0
1777291275.377646,6241,1777291270.0206602,1777291270.0171447,1777291270.4952357,0,0,3.515481948852539,-474.5755195617676,1,1,0.0,0.0,0.0,0.0,0.0,0.0,0.0,0.0,0.0,0.0,0.0,0.0,0.0,0.0,0.0,0.0,0.0,0.0,0.0,0.0,0.0,0.0,0.0,0.0,0.0,0.0,0.0,727.2040405273438,585.1026000976562,1113.8204345703125,977.50830078125,611.6782836914062,1107.5025634765625,774.9773559570312,403.7957458496094,1139.77099609375,937.1339111328125,401.2449645996094,1138.3900146484375,672.8297729492188,527.9324340820312,854.7698364257812,707.97216796875,607.8120727539062,604.0536499023438,687.3665161132812,591.5791625976562,428.9808654785156,711.61279296875,616.3251342773438,232.38661193847656,773.9400634765625,523.0447998046875,156.32276916503906,738.6493530273438,789.2905883789062,183.43643188476562,1034.09423828125,516.1895751953125,783.7911987304688,994.2874755859375,424.294677734375,571.9866333007812,1008.9428100585938,341.9382019042969,462.7096252441406,968.9114990234375,221.78675842285156,284.013916015625,904.0462646484375,122.63926696777344,235.81063842773438,961.9708251953125,364.03900146484375,172.87396240234375,0.0,0.0,0.0,0.0,0.0,0.0,0.0,0.0,0.0,0.0,0.0,0.0,1.0,0.9044,9.6469,-0.7226,0.1221,-0.3662,-0.1831,94.2627,-5.3503,171.7657,0.0209,-0.7325,0.6754,0.0829,0.0,0.0,0.0,0.0,0.0,0.0,0.0,0.0,0.0,0.0,0.0,0.0,1.0,0.0,0.0,0.0,0.0,0.0,0.0,0.0,0.0,0.0,0.0,0.0,0.0,1.0,0.0,0.0,0.0,0.0,0.0,0.0,0.0,0.0,0.0,0.0,0.0,0.0,1.0,0.0,0.0,0.0,0.0,0.0,0.0,0.0,0.0,0.0,0.0,0.0,0.0,1.0,0.0,0.0,0.0,0.0,0.0,0.0,0.0,0.0,0.0,0.0,0.0,0.0,1.0,0,0,55568,31763,0,0,0,0,51476,22,30468,0,0,0,0,0,0,0,0,0,0,0,0,0,0,0,0,0,0,0,0,0,0,0,0,0
1777291275.377646,6242,1777291270.0341647,1777291270.0171447,1777291270.4952357,0,0,17.019987106323242,-461.0710144042969,1,1,0.0,0.0,0.0,0.0,0.0,0.0,0.0,0.0,0.0,0.0,0.0,0.0,0.0,0.0,0.0,0.0,0.0,0.0,0.0,0.0,0.0,0.0,0.0,0.0,0.0,0.0,0.0,725.3224487304688,585.9457397460938,1114.6199951171875,975.6591796875,611.6397094726562,1108.3575439453125,772.8731689453125,404.4930419921875,1140.318359375,934.9840698242188,401.3685607910156,1138.663818359375,671.2323608398438,528.0429077148438,855.3082885742188,707.1707763671875,605.9970092773438,604.016845703125,686.7537841796875,587.9461059570312,429.1576232910156,711.6068725585938,609.84814453125,232.45022583007812,774.0140991210938,515.6618041992188,156.40357971191406,738.9863891601562,781.9220581054688,183.3025360107422,1033.2037353515625,519.8427124023438,784.1387939453125,994.3463134765625,432.0967102050781,572.556884765625,1009.461669921875,347.0901794433594,465.8547668457031,970.1442260742188,222.3408660888672,290.4596862792969,904.73388671875,122.28480529785156,247.37081909179688,962.7625732421875,358.6176452636719,171.9671630859375,0.0,0.0,0.0,0.0,0.0,0.0,0.0,0.0,0.0,0.0,0.0,0.0,1.0,0.9044,9.6469,-0.7226,0.1221,-0.3662,-0.1831,94.2627,-5.3503,171.7657,0.0209,-0.7325,0.6754,0.0829,0.0,0.0,0.0,0.0,0.0,0.0,0.0,0.0,0.0,0.0,0.0,0.0,1.0,0.0,0.0,0.0,0.0,0.0,0.0,0.0,0.0,0.0,0.0,0.0,0.0,1.0,0.0,0.0,0.0,0.0,0.0,0.0,0.0,0.0,0.0,0.0,0.0,0.0,1.0,0.0,0.0,0.0,0.0,0.0,0.0,0.0,0.0,0.0,0.0,0.0,0.0,1.0,0.0,0.0,0.0,0.0,0.0,0.0,0.0,0.0,0.0,0.0,0.0,0.0,1.0,0,0,55568,31763,0,0,0,0,51476,22,30468,0,0,0,0,0,0,0,0,0,0,0,0,0,0,0,0,0,0,0,0,0,0,0,0,0
1777291275.377646,6243,1777291270.0377243,1777291270.0171447,1777291270.4952357,0,0,20.57957649230957,-457.51142501831055,1,1,0.0,0.0,0.0,0.0,0.0,0.0,0.0,0.0,0.0,0.0,0.0,0.0,0.0,0.0,0.0,0.0,0.0,0.0,0.0,0.0,0.0,0.0,0.0,0.0,0.0,0.0,0.0,723.5116577148438,586.6671142578125,1115.44970703125,973.8898315429688,611.4417724609375,1109.2376708984375,770.798583984375,405.0787658691406,1140.9422607421875,932.85888671875,401.3694152832031,1139.021728515625,669.5499267578125,527.8272705078125,855.8631591796875,706.3192749023438,603.707275390625,603.9526977539062,686.2466430664062,583.8167114257812,429.30517578125,711.6454467773438,603.1731567382812,232.52444458007812,774.1035766601562,508.2647705078125,156.47496032714844,739.298095703125,774.5532836914062,183.2154083251953,1032.4285888671875,523.5975952148438,784.5853881835938,994.5032958984375,440.5057067871094,573.2533569335938,1010.0491943359375,353.0345764160156,469.1643371582031,971.3441162109375,223.7904815673828,297.25091552734375,905.4075927734375,123.36127471923828,260.081787109375,963.6771240234375,353.67755126953125,170.8944091796875,0.0,0.0,0.0,0.0,0.0,0.0,0.0,0.0,0.0,0.0,0.0,0.0,1.0,0.9044,9.6469,-0.7226,0.1221,-0.3662,-0.1831,94.2627,-5.3503,171.7657,0.0209,-0.7325,0.6754,0.0829,0.0,0.0,0.0,0.0,0.0,0.0,0.0,0.0,0.0,0.0,0.0,0.0,1.0,0.0,0.0,0.0,0.0,0.0,0.0,0.0,0.0,0.0,0.0,0.0,0.0,1.0,0.0,0.0,0.0,0.0,0.0,0.0,0.0,0.0,0.0,0.0,0.0,0.0,1.0,0.0,0.0,0.0,0.0,0.0,0.0,0.0,0.0,0.0,0.0,0.0,0.0,1.0,0.0,0.0,0.0,0.0,0.0,0.0,0.0,0.0,0.0,0.0,0.0,0.0,1.0,0,0,55568,31763,0,0,0,0,51476,22,30468,0,0,0,0,0,0,0,0,0,0,0,0,0,0,0,0,0,0,0,0,0,0,0,0,0
1777291275.3786566,6244,1777291270.050967,1777291270.0171447,1777291270.4952357,0,0,33.82229804992676,-444.26870346069336,1,1,0.0,0.0,0.0,0.0,0.0,0.0,0.0,0.0,0.0,0.0,0.0,0.0,0.0,0.0,0.0,0.0,0.0,0.0,0.0,0.0,0.0,0.0,0.0,0.0,0.0,0.0,0.0,721.7793579101562,587.2539672851562,1116.2906494140625,972.2066040039062,611.08837890625,1110.1295166015625,768.763671875,405.5414123535156,1141.6275634765625,930.76953125,401.2447814941406,1139.45458984375,667.7988891601562,527.2875366210938,856.4149780273438,705.4176635742188,600.9635620117188,603.8558959960938,685.8233032226562,579.2149658203125,429.4100341796875,711.715576171875,596.3221435546875,232.5904541015625,774.2050170898438,500.8639221191406,156.54562377929688,739.5691528320312,767.1904296875,183.1307373046875,1031.7601318359375,527.3909301757812,785.1400756835938,994.7316284179688,449.3922119140625,574.1090698242188,1010.6641235351562,359.6616516113281,472.6333923339844,972.4453735351562,226.08375549316406,304.3242492675781,906.0127563476562,125.90186309814453,273.7498474121094,964.695556640625,349.2614440917969,169.7301483154297,0.0,0.0,0.0,0.0,0.0,0.0,0.0,0.0,0.0,0.0,0.0,0.0,1.0,0.9044,9.6469,-0.7226,0.1221,-0.3662,-0.1831,94.2627,-5.3503,171.7657,0.0209,-0.7325,0.6754,0.0829,0.0,0.0,0.0,0.0,0.0,0.0,0.0,0.0,0.0,0.0,0.0,0.0,1.0,0.0,0.0,0.0,0.0,0.0,0.0,0.0,0.0,0.0,0.0,0.0,0.0,1.0,0.0,0.0,0.0,0.0,0.0,0.0,0.0,0.0,0.0,0.0,0.0,0.0,1.0,0.0,0.0,0.0,0.0,0.0,0.0,0.0,0.0,0.0,0.0,0.0,0.0,1.0,0.0,0.0,0.0,0.0,0.0,0.0,0.0,0.0,0.0,0.0,0.0,0.0,1.0,0,0,55568,31763,0,0,0,0,51476,22,30468,0,0,0,0,0,0,0,0,0,0,0,0,0,0,0,0,0,0,0,0,0,0,0,0,0
1777291275.3786566,6245,1777291270.0558512,1777291270.0171447,1777291270.4952357,0,0,38.70654106140137,-439.38446044921875,1,1,0.0,0.0,0.0,0.0,0.0,0.0,0.0,0.0,0.0,0.0,0.0,0.0,0.0,0.0,0.0,0.0,0.0,0.0,0.0,0.0,0.0,0.0,0.0,0.0,0.0,0.0,0.0,720.1309204101562,587.6953735351562,1117.12548828125,970.6126708984375,610.587646484375,1111.02197265625,766.7785034179688,405.8714294433594,1142.3592529296875,928.7269897460938,400.9944763183594,1139.9537353515625,665.9989624023438,526.4325561523438,856.9465942382812,704.4706420898438,597.8015747070312,603.7252197265625,685.4563598632812,574.19140625,429.46722412109375,711.803466796875,589.3234252929688,232.63795471191406,774.31591796875,493.4664306640625,156.62069702148438,739.79248046875,759.834716796875,183.0265350341797,1031.185546875,531.1622314453125,785.812744140625,995.0009155273438,458.62091064453125,575.154296875,1011.2600708007812,366.8465881347656,476.255126953125,973.3816528320312,229.1510009765625,311.60174560546875,906.4702758789062,129.86553955078125,288.0771484375,965.7948608398438,345.4259033203125,168.59002685546875,0.0,0.0,0.0,0.0,0.0,0.0,0.0,0.0,0.0,0.0,0.0,0.0,1.0,0.9044,9.6469,-0.7226,0.1221,-0.3662,-0.1831,94.2627,-5.3503,171.7657,0.0209,-0.7325,0.6754,0.0829,0.0,0.0,0.0,0.0,0.0,0.0,0.0,0.0,0.0,0.0,0.0,0.0,1.0,0.0,0.0,0.0,0.0,0.0,0.0,0.0,0.0,0.0,0.0,0.0,0.0,1.0,0.0,0.0,0.0,0.0,0.0,0.0,0.0,0.0,0.0,0.0,0.0,0.0,1.0,0.0,0.0,0.0,0.0,0.0,0.0,0.0,0.0,0.0,0.0,0.0,0.0,1.0,0.0,0.0,0.0,0.0,0.0,0.0,0.0,0.0,0.0,0.0,0.0,0.0,1.0,0,0,55568,31763,0,0,0,0,51476,22,30468,0,0,0,0,0,0,0,0,0,0,0,0,0,0,0,0,0,0,0,0,0,0,0,0,0
1777291275.3786566,6246,1777291270.0693393,1777291270.0171447,1777291270.4952357,0,0,52.19459533691406,-425.89640617370605,1,1,0.0,0.0,0.0,0.0,0.0,0.0,0.0,0.0,0.0,0.0,0.0,0.0,0.0,0.0,0.0,0.0,0.0,0.0,0.0,0.0,0.0,0.0,0.0,0.0,0.0,0.0,0.0,718.5693359375,587.9823608398438,1117.9390869140625,969.1085815429688,609.9513549804688,1111.906005859375,764.85302734375,406.06158447265625,1143.122802734375,926.741943359375,400.62066650390625,1140.510498046875,664.1730346679688,525.2778930664062,857.444091796875,703.4882202148438,594.2694702148438,603.5631713867188,685.1193237304688,568.8164672851562,429.47979736328125,711.8967895507812,582.2080688476562,232.6644287109375,774.4341430664062,486.07464599609375,156.703369140625,739.968505859375,752.483154296875,182.89723205566406,1030.68798828125,534.8570556640625,786.6134033203125,995.2796630859375,468.0564880371094,576.4135131835938,1011.7884521484375,374.4572448730469,480.0186767578125,974.0911254882812,232.91213989257812,318.9901123046875,906.6817016601562,135.13230895996094,302.6697692871094,966.9556274414062,342.25408935546875,167.62635803222656,0.0,0.0,0.0,0.0,0.0,0.0,0.0,0.0,0.0,0.0,0.0,0.0,1.0,0.9044,9.6469,-0.7226,0.1221,-0.3662,-0.1831,94.2627,-5.3503,171.7657,0.0209,-0.7325,0.6754,0.0829,0.0,0.0,0.0,0.0,0.0,0.0,0.0,0.0,0.0,0.0,0.0,0.0,1.0,0.0,0.0,0.0,0.0,0.0,0.0,0.0,0.0,0.0,0.0,0.0,0.0,1.0,0.0,0.0,0.0,0.0,0.0,0.0,0.0,0.0,0.0,0.0,0.0,0.0,1.0,0.0,0.0,0.0,0.0,0.0,0.0,0.0,0.0,0.0,0.0,0.0,0.0,1.0,0.0,0.0,0.0,0.0,0.0,0.0,0.0,0.0,0.0,0.0,0.0,0.0,1.0,0,0,55568,31763,0,0,0,0,51476,22,30468,0,0,0,0,0,0,0,0,0,0,0,0,0,0,0,0,0,0,0,0,0,0,0,0,0
1777291275.3786566,6247,1777291270.071549,1777291270.0171447,1777291270.4952357,0,0,54.404258728027344,-423.6867427825928,1,1,0.0,0.0,0.0,0.0,0.0,0.0,0.0,0.0,0.0,0.0,0.0,0.0,0.0,0.0,0.0,0.0,0.0,0.0,0.0,0.0,0.0,0.0,0.0,0.0,0.0,0.0,0.0,717.0953979492188,588.1082763671875,1118.718994140625,967.6918334960938,609.1937866210938,1112.775634765625,762.996337890625,406.10699462890625,1143.90478515625,924.8245239257812,400.12738037109375,1141.117431640625,662.3461303710938,523.8456420898438,857.8973999023438,702.4856567382812,590.42333984375,603.3753662109375,684.7913208007812,563.1715698242188,429.4573669433594,711.9865112304688,575.0068359375,232.67367553710938,774.5580444335938,478.68603515625,156.7962188720703,740.1030883789062,745.1301879882812,182.74755859375,1030.2486572265625,538.430419921875,787.5523071289062,995.5374145507812,477.56903076171875,577.9026489257812,1012.2015991210938,382.3619384765625,483.9059143066406,974.5211181640625,237.28436279296875,326.3808898925781,906.5399780273438,141.5070037841797,317.0587463378906,968.1681518554688,339.8659973144531,167.01779174804688,0.0,0.0,0.0,0.0,0.0,0.0,0.0,0.0,0.0,0.0,0.0,0.0,1.0,0.9044,9.6469,-0.7226,0.1221,-0.3662,-0.1831,94.2627,-5.3503,171.7657,0.0209,-0.7325,0.6754,0.0829,0.0,0.0,0.0,0.0,0.0,0.0,0.0,0.0,0.0,0.0,0.0,0.0,1.0,0.0,0.0,0.0,0.0,0.0,0.0,0.0,0.0,0.0,0.0,0.0,0.0,1.0,0.0,0.0,0.0,0.0,0.0,0.0,0.0,0.0,0.0,0.0,0.0,0.0,1.0,0.0,0.0,0.0,0.0,0.0,0.0,0.0,0.0,0.0,0.0,0.0,0.0,1.0,0.0,0.0,0.0,0.0,0.0,0.0,0.0,0.0,0.0,0.0,0.0,0.0,1.0,0,0,55568,31763,0,0,0,0,51476,22,30468,0,0,0,0,0,0,0,0,0,0,0,0,0,0,0,0,0,0,0,0,0,0,0,0,0
1777291275.3786566,6248,1777291270.0881526,1777291270.0881526,1777291270.4952357,0,0,0.0,-407.08303451538086,1,1,0.0,0.0,0.0,0.0,0.0,0.0,0.0,0.0,0.0,0.0,0.0,0.0,0.0,0.0,0.0,0.0,0.0,0.0,0.0,0.0,0.0,0.0,0.0,0.0,0.0,0.0,0.0,715.7075805664062,588.0689697265625,1119.4559326171875,966.3580322265625,608.330810546875,1113.627685546875,761.2171020507812,406.0053405761719,1144.69287109375,922.9839477539062,399.52032470703125,1141.767333984375,660.5448608398438,522.1633911132812,858.3004150390625,701.4822998046875,586.3228149414062,603.169677734375,684.4601440429688,557.3397216796875,429.4136657714844,712.068115234375,567.7470703125,232.673828125,774.68701171875,471.2942810058594,156.90200805664062,740.2060546875,737.7689208984375,182.5871124267578,1029.8486328125,541.8489990234375,788.6394653320312,995.7471313476562,487.0382080078125,579.6273193359375,1012.4559936523438,390.4366760253906,487.8885192871094,974.6314697265625,242.18905639648438,333.6512145996094,905.9434204101562,148.73321533203125,330.7340393066406,969.4367065429688,338.421630859375,166.95204162597656,0.0,0.0,0.0,0.0,0.0,0.0,0.0,0.0,0.0,0.0,0.0,0.0,1.0,0.9092,9.6517,-0.7226,0.1221,-0.3662,-0.1831,94.2627,-5.3503,171.7493,0.021,-0.7325,0.6754,0.083,0.0,0.0,0.0,0.0,0.0,0.0,0.0,0.0,0.0,0.0,0.0,0.0,1.0,0.0,0.0,0.0,0.0,0.0,0.0,0.0,0.0,0.0,0.0,0.0,0.0,1.0,0.0,0.0,0.0,0.0,0.0,0.0,0.0,0.0,0.0,0.0,0.0,0.0,1.0,0.0,0.0,0.0,0.0,0.0,0.0,0.0,0.0,0.0,0.0,0.0,0.0,1.0,0.0,0.0,0.0,0.0,0.0,0.0,0.0,0.0,0.0,0.0,0.0,0.0,1.0,0,0,55568,31763,0,0,0,0,51476,22,30468,0,0,0,0,0,0,0,0,0,0,0,0,0,0,0,0,0,0,0,0,0,0,0,0,0
1777291275.3786566,6249,1777291270.1043067,1777291270.0881526,1777291270.4952357,0,0,16.154050827026367,-390.9289836883545,1,1,0.0,0.0,0.0,0.0,0.0,0.0,0.0,0.0,0.0,0.0,0.0,0.0,0.0,0.0,0.0,0.0,0.0,0.0,0.0,0.0,0.0,0.0,0.0,0.0,0.0,0.0,0.0,714.4022827148438,587.8628540039062,1120.143798828125,965.1007080078125,607.3787841796875,1114.4613037109375,759.5227661132812,405.7568054199219,1145.4765625,921.228271484375,398.806396484375,1142.4542236328125,658.7960815429688,520.2627563476562,858.650634765625,700.5001220703125,582.0265502929688,602.9552612304688,684.1236572265625,551.396484375,429.364501953125,712.1419677734375,560.451171875,232.67532348632812,774.8218383789062,463.89117431640625,157.02407836914062,740.288818359375,730.3926391601562,182.42630004882812,1029.470703125,545.0925903320312,789.884521484375,995.8865966796875,496.3565673828125,581.5814208984375,1012.515625,398.5705871582031,491.9256591796875,974.3971557617188,247.55728149414062,340.6665954589844,904.81201171875,156.5196533203125,343.18988037109375,970.7786865234375,338.1138916015625,167.60162353515625,0.0,0.0,0.0,0.0,0.0,0.0,0.0,0.0,0.0,0.0,0.0,0.0,1.0,0.9092,9.6517,-0.7226,0.1221,-0.3662,-0.1831,94.2627,-5.3503,171.7493,0.021,-0.7325,0.6754,0.083,0.0,0.0,0.0,0.0,0.0,0.0,0.0,0.0,0.0,0.0,0.0,0.0,1.0,0.0,0.0,0.0,0.0,0.0,0.0,0.0,0.0,0.0,0.0,0.0,0.0,1.0,0.0,0.0,0.0,0.0,0.0,0.0,0.0,0.0,0.0,0.0,0.0,0.0,1.0,0.0,0.0,0.0,0.0,0.0,0.0,0.0,0.0,0.0,0.0,0.0,0.0,1.0,0.0,0.0,0.0,0.0,0.0,0.0,0.0,0.0,0.0,0.0,0.0,0.0,1.0,0,0,55568,31763,0,0,0,0,51476,22,30468,0,0,0,0,0,0,0,0,0,0,0,0,0,0,0,0,0,0,0,0,0,0,0,0,0
1777291275.3786566,6250,1777291270.1078029,1777291270.0881526,1777291270.4952357,0,0,19.65022087097168,-387.4328136444092,1,1,0.0,0.0,0.0,0.0,0.0,0.0,0.0,0.0,0.0,0.0,0.0,0.0,0.0,0.0,0.0,0.0,0.0,0.0,0.0,0.0,0.0,0.0,0.0,0.0,0.0,0.0,0.0,713.1744384765625,587.4910278320312,1120.779052734375,963.9125366210938,606.3536987304688,1115.2781982421875,757.9196166992188,405.3640441894531,1146.2469482421875,919.564208984375,397.99322509765625,1143.1728515625,657.1259155273438,518.1779174804688,858.948974609375,699.5618896484375,577.5885620117188,602.7413330078125,683.788818359375,545.4035034179688,429.32525634765625,712.213134765625,553.1353149414062,232.68902587890625,774.9652099609375,456.4684753417969,157.16607666015625,740.3631591796875,722.9956665039062,182.27357482910156,1029.1004638671875,548.1536865234375,791.2965087890625,995.9398803710938,505.43170166015625,583.747314453125,1012.3544921875,406.6698913574219,495.9629211425781,973.8090209960938,253.3338623046875,347.2847900390625,903.101806640625,164.57858276367188,353.9772644042969,972.2191772460938,339.1485290527344,169.09365844726562,0.0,0.0,0.0,0.0,0.0,0.0,0.0,0.0,0.0,0.0,0.0,0.0,1.0,0.9092,9.6517,-0.7226,0.1221,-0.3662,-0.1831,94.2627,-5.3503,171.7493,0.021,-0.7325,0.6754,0.083,0.0,0.0,0.0,0.0,0.0,0.0,0.0,0.0,0.0,0.0,0.0,0.0,1.0,0.0,0.0,0.0,0.0,0.0,0.0,0.0,0.0,0.0,0.0,0.0,0.0,1.0,0.0,0.0,0.0,0.0,0.0,0.0,0.0,0.0,0.0,0.0,0.0,0.0,1.0,0.0,0.0,0.0,0.0,0.0,0.0,0.0,0.0,0.0,0.0,0.0,0.0,1.0,0.0,0.0,0.0,0.0,0.0,0.0,0.0,0.0,0.0,0.0,0.0,0.0,1.0,0,0,55568,31763,0,0,0,0,51476,22,30468,0,0,0,0,0,0,0,0,0,0,0,0,0,0,0,0,0,0,0,0,0,0,0,0,0
1777291275.3786566,6251,1777291270.1208816,1777291270.0881526,1777291270.4952357,0,0,32.72891044616699,-374.35412406921387,1,1,0.0,0.0,0.0,0.0,0.0,0.0,0.0,0.0,0.0,0.0,0.0,0.0,0.0,0.0,0.0,0.0,0.0,0.0,0.0,0.0,0.0,0.0,0.0,0.0,0.0,0.0,0.0,712.01806640625,586.9576416015625,1121.361083984375,962.7858276367188,605.2700805664062,1116.0811767578125,756.41259765625,404.83203125,1146.9964599609375,917.9971923828125,397.08892822265625,1143.918212890625,655.5584716796875,515.943359375,859.1983032226562,698.689453125,573.0554809570312,602.5364379882812,683.4702758789062,539.404541015625,429.3096923828125,712.2899780273438,545.8095703125,232.7246551513672,775.1210327148438,449.01922607421875,157.33131408691406,740.4393310546875,715.57373046875,182.1342315673828,1028.7269287109375,551.036376953125,792.8832397460938,995.8971557617188,514.1874389648438,586.0967407226562,1011.9593505859375,414.65997314453125,499.93328857421875,972.8735961914062,259.4801025390625,353.3612060546875,900.8151245117188,172.6696014404297,362.7525634765625,973.7813720703125,341.71380615234375,171.4773712158203,0.0,0.0,0.0,0.0,0.0,0.0,0.0,0.0,0.0,0.0,0.0,0.0,1.0,0.9092,9.6517,-0.7226,0.1221,-0.3662,-0.1831,94.2627,-5.3503,171.7493,0.021,-0.7325,0.6754,0.083,0.0,0.0,0.0,0.0,0.0,0.0,0.0,0.0,0.0,0.0,0.0,0.0,1.0,0.0,0.0,0.0,0.0,0.0,0.0,0.0,0.0,0.0,0.0,0.0,0.0,1.0,0.0,0.0,0.0,0.0,0.0,0.0,0.0,0.0,0.0,0.0,0.0,0.0,1.0,0.0,0.0,0.0,0.0,0.0,0.0,0.0,0.0,0.0,0.0,0.0,0.0,1.0,0.0,0.0,0.0,0.0,0.0,0.0,0.0,0.0,0.0,0.0,0.0,0.0,1.0,0,0,55568,31763,0,0,0,0,51476,22,30468,0,0,0,0,0,0,0,0,0,0,0,0,0,0,0,0,0,0,0,0,0,0,0,0,0
1777291275.3786566,6252,1777291270.1270328,1777291270.0881526,1777291270.4952357,0,0,38.880109786987305,-368.20292472839355,1,1,0.0,0.0,0.0,0.0,0.0,0.0,0.0,0.0,0.0,0.0,0.0,0.0,0.0,0.0,0.0,0.0,0.0,0.0,0.0,0.0,0.0,0.0,0.0,0.0,0.0,0.0,0.0,710.9266357421875,586.2694702148438,1121.890625,961.71337890625,604.1405639648438,1116.873779296875,755.005126953125,404.16790771484375,1147.7193603515625,916.5308227539062,396.101806640625,1144.68603515625,654.1146850585938,513.5916137695312,859.40283203125,697.9021606445312,568.4655151367188,602.3475341796875,683.1865234375,533.4252319335938,429.3287658691406,712.3828125,538.4788818359375,232.78981018066406,775.2935791015625,441.5390930175781,157.5220184326172,740.5252685546875,708.1241455078125,182.01026916503906,1028.3428955078125,553.7532348632812,794.6500854492188,995.7550048828125,522.5641479492188,588.592529296875,1011.330322265625,422.4858703613281,503.7594299316406,971.6126098632812,265.9749755859375,358.7547912597656,898.0032958984375,180.6384735107422,369.310546875,975.4755249023438,345.94635009765625,174.69908142089844,0.0,0.0,0.0,0.0,0.0,0.0,0.0,0.0,0.0,0.0,0.0,0.0,1.0,0.9092,9.6517,-0.7226,0.1221,-0.3662,-0.1831,94.2627,-5.3503,171.7493,0.021,-0.7325,0.6754,0.083,0.0,0.0,0.0,0.0,0.0,0.0,0.0,0.0,0.0,0.0,0.0,0.0,1.0,0.0,0.0,0.0,0.0,0.0,0.0,0.0,0.0,0.0,0.0,0.0,0.0,1.0,0.0,0.0,0.0,0.0,0.0,0.0,0.0,0.0,0.0,0.0,0.0,0.0,1.0,0.0,0.0,0.0,0.0,0.0,0.0,0.0,0.0,0.0,0.0,0.0,0.0,1.0,0.0,0.0,0.0,0.0,0.0,0.0,0.0,0.0,0.0,0.0,0.0,0.0,1.0,0,0,55568,31763,0,0,0,0,51476,22,30468,0,0,0,0,0,0,0,0,0,0,0,0,0,0,0,0,0,0,0,0,0,0,0,0,0
1777291275.3786566,6253,1777291270.1408045,1777291270.0881526,1777291270.4952357,0,0,52.65188217163086,-354.43115234375,1,1,0.0,0.0,0.0,0.0,0.0,0.0,0.0,0.0,0.0,0.0,0.0,0.0,0.0,0.0,0.0,0.0,0.0,0.0,0.0,0.0,0.0,0.0,0.0,0.0,0.0,0.0,0.0,709.893798828125,585.43603515625,1122.3697509765625,960.6890869140625,602.9754028320312,1117.65966796875,753.6990966796875,403.38067626953125,1148.4114990234375,915.1672973632812,395.0400695800781,1145.471923828125,652.8113403320312,511.1518859863281,859.5670776367188,697.2154541015625,563.84814453125,602.1793823242188,682.9569702148438,527.4757690429688,429.3901672363281,712.5018310546875,531.144287109375,232.88955688476562,775.4859008789062,434.0270690917969,157.73886108398438,740.6261596679688,700.6458740234375,181.9012451171875,1027.9432373046875,556.322265625,796.5988159179688,995.5148315429688,530.5186767578125,591.1909790039062,1010.4811401367188,430.1121520996094,507.35784912109375,970.0606689453125,272.8146667480469,363.3346862792969,894.7618408203125,188.43763732910156,373.5923156738281,977.2902221679688,351.9046630859375,178.59632873535156,0.0,0.0,0.0,0.0,0.0,0.0,0.0,0.0,0.0,0.0,0.0,0.0,1.0,0.9092,9.6517,-0.7226,0.1221,-0.3662,-0.1831,94.2627,-5.3503,171.7493,0.021,-0.7325,0.6754,0.083,0.0,0.0,0.0,0.0,0.0,0.0,0.0,0.0,0.0,0.0,0.0,0.0,1.0,0.0,0.0,0.0,0.0,0.0,0.0,0.0,0.0,0.0,0.0,0.0,0.0,1.0,0.0,0.0,0.0,0.0,0.0,0.0,0.0,0.0,0.0,0.0,0.0,0.0,1.0,0.0,0.0,0.0,0.0,0.0,0.0,0.0,0.0,0.0,0.0,0.0,0.0,1.0,0.0,0.0,0.0,0.0,0.0,0.0,0.0,0.0,0.0,0.0,0.0,0.0,1.0,0,0,55568,31763,0,0,0,0,51476,22,30468,0,0,0,0,0,0,0,0,0,0,0,0,0,0,0,0,0,0,0,0,0,0,0,0,0
1777291275.3786566,6254,1777291270.1709642,1777291270.0881526,1777291270.4952357,0,0,82.81159400939941,-324.27144050598145,1,1,0.0,0.0,0.0,0.0,0.0,0.0,0.0,0.0,0.0,0.0,0.0,0.0,0.0,0.0,0.0,0.0,0.0,0.0,0.0,0.0,0.0,0.0,0.0,0.0,0.0,0.0,0.0,708.9140014648438,584.4690551757812,1122.80126953125,959.7085571289062,601.7822875976562,1118.4410400390625,752.4949340820312,402.4808044433594,1149.0697021484375,913.9072265625,393.9117431640625,1146.2713623046875,651.6605834960938,508.6487121582031,859.6948852539062,696.6403198242188,559.22509765625,602.0343017578125,682.7982177734375,521.5559692382812,429.4978332519531,712.655517578125,523.8050537109375,233.0264129638672,775.6988525390625,426.486083984375,157.98085021972656,740.7439575195312,693.1396484375,181.80506896972656,1027.5247802734375,558.7627563476562,798.7263793945312,995.1825561523438,538.023193359375,593.84423828125,1009.4375610351562,437.52142333984375,510.6432800292969,968.2634887695312,280.0099182128906,366.9866638183594,891.21826171875,196.1211395263672,375.6678771972656,979.1900634765625,359.5600891113281,182.9171905517578,0.0,0.0,0.0,0.0,0.0,0.0,0.0,0.0,0.0,0.0,0.0,0.0,1.0,0.9092,9.6517,-0.7226,0.1221,-0.3662,-0.1831,94.2627,-5.3503,171.7493,0.021,-0.7325,0.6754,0.083,0.0,0.0,0.0,0.0,0.0,0.0,0.0,0.0,0.0,0.0,0.0,0.0,1.0,0.0,0.0,0.0,0.0,0.0,0.0,0.0,0.0,0.0,0.0,0.0,0.0,1.0,0.0,0.0,0.0,0.0,0.0,0.0,0.0,0.0,0.0,0.0,0.0,0.0,1.0,0.0,0.0,0.0,0.0,0.0,0.0,0.0,0.0,0.0,0.0,0.0,0.0,1.0,0.0,0.0,0.0,0.0,0.0,0.0,0.0,0.0,0.0,0.0,0.0,0.0,1.0,0,0,55568,31763,0,0,0,0,51476,22,30468,0,0,0,0,0,0,0,0,0,0,0,0,0,0,0,0,0,0,0,0,0,0,0,0,0
1777291275.3786566,6257,1777291270.1819997,1777291270.0881526,1777291270.4952357,1,2,93.84703636169434,-313.2359981536865,1,1,0.0,0.0,0.0,0.0,0.0,0.0,0.0,0.0,0.0,0.0,0.0,0.0,0.0,0.0,0.0,0.0,0.0,0.0,0.0,0.0,0.0,0.0,0.0,0.0,0.0,0.0,0.0,706.258056640625,580.9102172851562,1123.826416015625,957.0147094726562,598.079345703125,1120.7559814453125,749.4774780273438,399.22625732421875,1150.8245849609375,910.7348022460938,390.2038879394531,1148.7010498046875,649.1673583984375,500.9251708984375,859.8809814453125,695.6232299804688,545.4561767578125,601.7196655273438,682.8316650390625,503.9293212890625,430.081787109375,713.3652954101562,501.7599182128906,233.6501007080078,776.4329833984375,403.7706298828125,158.82098388671875,741.1773071289062,670.4866943359375,181.56008911132812,1026.1412353515625,565.457763671875,806.0516357421875,993.7328491210938,557.7545776367188,601.6358642578125,1005.5277709960938,458.5003356933594,517.8453979492188,961.9539184570312,303.968017578125,371.5859069824219,880.185546875,219.93487548828125,370.505615234375,984.8145141601562,391.44085693359375,195.4243621826172,0.0,0.0,0.0,0.0,0.0,0.0,0.0,0.0,0.0,0.0,0.0,0.0,1.0,0.9092,9.6517,-0.7226,0.1221,-0.3662,-0.1831,94.2627,-5.3503,171.7493,0.021,-0.7325,0.6754,0.083,0.0,0.0,0.0,0.0,0.0,0.0,0.0,0.0,0.0,0.0,0.0,0.0,1.0,0.0,0.0,0.0,0.0,0.0,0.0,0.0,0.0,0.0,0.0,0.0,0.0,1.0,0.0,0.0,0.0,0.0,0.0,0.0,0.0,0.0,0.0,0.0,0.0,0.0,1.0,0.0,0.0,0.0,0.0,0.0,0.0,0.0,0.0,0.0,0.0,0.0,0.0,1.0,0.0,0.0,0.0,0.0,0.0,0.0,0.0,0.0,0.0,0.0,0.0,0.0,1.0,0,0,55568,31763,0,0,0,0,51476,22,30468,0,0,0,0,0,0,0,0,0,0,0,0,0,0,0,0,0,0,0,0,0,0,0,0,0
1777291275.3786566,6259,1777291270.1934419,1777291270.0881526,1777291270.4952357,1,1,105.28922080993652,-301.79381370544434,1,1,0.0,0.0,0.0,0.0,0.0,0.0,0.0,0.0,0.0,0.0,0.0,0.0,0.0,0.0,0.0,0.0,0.0,0.0,0.0,0.0,0.0,0.0,0.0,0.0,0.0,0.0,0.0,704.7166137695312,578.1473999023438,1124.282470703125,955.4442749023438,595.5238037109375,1122.229248046875,747.9298095703125,396.7229309082031,1151.80517578125,909.0973510742188,387.5371398925781,1150.289306640625,648.2743530273438,495.68408203125,859.8359375,695.5046997070312,536.4345703125,601.5505981445312,683.2667236328125,492.28765869140625,430.61407470703125,714.0368041992188,487.0716857910156,234.2022705078125,776.9528198242188,388.6630554199219,159.4159393310547,741.4925537109375,655.3265380859375,181.39671325683594,1025.132080078125,569.4287719726562,811.4650268554688,992.5167846679688,568.6638793945312,606.2194213867188,1002.7200317382812,471.668701171875,519.8629760742188,957.553955078125,322.18817138671875,369.0489501953125,873.6434326171875,238.0588836669922,359.67681884765625,987.9136352539062,418.4786682128906,200.97352600097656,0.0,0.0,0.0,0.0,0.0,0.0,0.0,0.0,0.0,0.0,0.0,0.0,1.0,0.9092,9.6517,-0.7226,0.1221,-0.3662,-0.1831,94.2627,-5.3503,171.7493,0.021,-0.7325,0.6754,0.083,0.0,0.0,0.0,0.0,0.0,0.0,0.0,0.0,0.0,0.0,0.0,0.0,1.0,0.0,0.0,0.0,0.0,0.0,0.0,0.0,0.0,0.0,0.0,0.0,0.0,1.0,0.0,0.0,0.0,0.0,0.0,0.0,0.0,0.0,0.0,0.0,0.0,0.0,1.0,0.0,0.0,0.0,0.0,0.0,0.0,0.0,0.0,0.0,0.0,0.0,0.0,1.0,0.0,0.0,0.0,0.0,0.0,0.0,0.0,0.0,0.0,0.0,0.0,0.0,1.0,0,0,55568,31763,0,0,0,0,51476,22,30468,0,0,0,0,0,0,0,0,0,0,0,0,0,0,0,0,0,0,0,0,0,0,0,0,0
1777291275.3786566,6260,1777291270.2103457,1777291270.2103457,1777291270.4952357,0,0,0.0,-284.88993644714355,1,1,0.0,0.0,0.0,0.0,0.0,0.0,0.0,0.0,0.0,0.0,0.0,0.0,0.0,0.0,0.0,0.0,0.0,0.0,0.0,0.0,0.0,0.0,0.0,0.0,0.0,0.0,0.0,704.0203247070312,576.6964111328125,1124.433837890625,954.7394409179688,594.221435546875,1122.9185791015625,747.2832641601562,395.40960693359375,1152.2381591796875,908.4109497070312,386.167724609375,1151.0545654296875,648.0346069335938,493.0451965332031,859.7549438476562,695.5899658203125,531.9824829101562,601.4512329101562,683.5859985351562,486.51702880859375,430.88873291015625,714.4215087890625,479.7464904785156,234.50111389160156,777.2113037109375,381.1492919921875,159.706298828125,741.65185546875,647.7476806640625,181.30567932128906,1024.6219482421875,571.236083984375,814.2197875976562,991.875,573.4896240234375,608.2044677734375,1001.3801879882812,478.0947570800781,519.94775390625,955.4482421875,332.0398254394531,366.15130615234375,870.8135375976562,248.1497039794922,352.54876708984375,989.1549072265625,433.31439208984375,202.56182861328125,0.0,0.0,0.0,0.0,0.0,0.0,0.0,0.0,0.0,0.0,0.0,0.0,1.0,0.9092,9.6517,-0.7226,0.1831,-0.4272,-0.1221,94.2627,-5.3503,171.7328,0.0211,-0.7325,0.6753,0.0831,0.0,0.0,0.0,0.0,0.0,0.0,0.0,0.0,0.0,0.0,0.0,0.0,1.0,0.0,0.0,0.0,0.0,0.0,0.0,0.0,0.0,0.0,0.0,0.0,0.0,1.0,0.0,0.0,0.0,0.0,0.0,0.0,0.0,0.0,0.0,0.0,0.0,0.0,1.0,0.0,0.0,0.0,0.0,0.0,0.0,0.0,0.0,0.0,0.0,0.0,0.0,1.0,0.0,0.0,0.0,0.0,0.0,0.0,0.0,0.0,0.0,0.0,0.0,0.0,1.0,0,0,55568,31763,0,0,0,0,51476,22,30468,0,0,0,0,0,0,0,0,0,0,0,0,0,0,0,0,0,0,0,0,0,0,0,0,0
1777291275.3786566,6262,1777291270.2333326,1777291270.2103457,1777291270.4952357,1,1,22.986888885498047,-261.9030475616455,1,1,0.0,0.0,0.0,0.0,0.0,0.0,0.0,0.0,0.0,0.0,0.0,0.0,0.0,0.0,0.0,0.0,0.0,0.0,0.0,0.0,0.0,0.0,0.0,0.0,0.0,0.0,0.0,702.7955322265625,573.7265625,1124.55810546875,953.5164184570312,591.573974609375,1124.1414794921875,746.2261962890625,392.71881103515625,1152.9888916015625,907.2859497070312,383.3965148925781,1152.4921875,647.9168701171875,487.732421875,859.4586181640625,695.9983520507812,523.1982421875,601.1719970703125,684.38232421875,475.1134033203125,431.390625,715.2708740234375,465.1590576171875,235.11175537109375,777.7286376953125,366.2047424316406,160.2671356201172,741.9852294921875,632.6198120117188,181.09584045410156,1023.6515502929688,574.3848266601562,819.5980224609375,990.5859985351562,581.9558715820312,611.4028930664062,998.9705200195312,490.7612609863281,518.2879638671875,951.6123657226562,353.2958068847656,357.4142761230469,866.0867919921875,270.6560974121094,335.4079895019531,990.9971923828125,465.2035217285156,203.494873046875,0.0,0.0,0.0,0.0,0.0,0.0,0.0,0.0,0.0,0.0,0.0,0.0,1.0,0.9092,9.6517,-0.7226,0.1831,-0.4272,-0.1221,94.2627,-5.3503,171.7328,0.0211,-0.7325,0.6753,0.0831,0.0,0.0,0.0,0.0,0.0,0.0,0.0,0.0,0.0,0.0,0.0,0.0,1.0,0.0,0.0,0.0,0.0,0.0,0.0,0.0,0.0,0.0,0.0,0.0,0.0,1.0,0.0,0.0,0.0,0.0,0.0,0.0,0.0,0.0,0.0,0.0,0.0,0.0,1.0,0.0,0.0,0.0,0.0,0.0,0.0,0.0,0.0,0.0,0.0,0.0,0.0,1.0,0.0,0.0,0.0,0.0,0.0,0.0,0.0,0.0,0.0,0.0,0.0,0.0,1.0,0,0,55568,31763,0,0,0,0,51476,22,30468,0,0,0,0,0,0,0,0,0,0,0,0,0,0,0,0,0,0,0,0,0,0,0,0,0
1777291275.3786566,6263,1777291270.2437155,1777291270.2103457,1777291270.4952357,0,0,33.36977958679199,-251.52015686035156,1,1,0.0,0.0,0.0,0.0,0.0,0.0,0.0,0.0,0.0,0.0,0.0,0.0,0.0,0.0,0.0,0.0,0.0,0.0,0.0,0.0,0.0,0.0,0.0,0.0,0.0,0.0,0.0,702.275146484375,572.2326049804688,1124.51953125,953.0072631835938,590.2350463867188,1124.6490478515625,745.8102416992188,391.3629150390625,1153.3057861328125,906.8422241210938,382.0117492675781,1153.15087890625,648.0177001953125,485.0592041015625,859.2376098632812,696.3004760742188,518.861572265625,600.9744262695312,684.8430786132812,469.4886474609375,431.5950927734375,715.7291870117188,457.90155029296875,235.41241455078125,777.992431640625,358.754150390625,160.54647827148438,742.1661987304688,625.0775146484375,180.97525024414062,1023.2201538085938,575.6751098632812,822.1284790039062,989.9586181640625,585.6168823242188,612.569580078125,997.9319458007812,497.0408020019531,516.59423828125,949.935302734375,364.7171325683594,351.7524108886719,864.1561279296875,283.11004638671875,325.5866394042969,991.6306762695312,482.1487121582031,203.0267791748047,0.0,0.0,0.0,0.0,0.0,0.0,0.0,0.0,0.0,0.0,0.0,0.0,1.0,0.9092,9.6517,-0.7226,0.1831,-0.4272,-0.1221,94.2627,-5.3503,171.7328,0.0211,-0.7325,0.6753,0.0831,0.0,0.0,0.0,0.0,0.0,0.0,0.0,0.0,0.0,0.0,0.0,0.0,1.0,0.0,0.0,0.0,0.0,0.0,0.0,0.0,0.0,0.0,0.0,0.0,0.0,1.0,0.0,0.0,0.0,0.0,0.0,0.0,0.0,0.0,0.0,0.0,0.0,0.0,1.0,0.0,0.0,0.0,0.0,0.0,0.0,0.0,0.0,0.0,0.0,0.0,0.0,1.0,0.0,0.0,0.0,0.0,0.0,0.0,0.0,0.0,0.0,0.0,0.0,0.0,1.0,0,0,55568,31763,0,0,0,0,51476,22,30468,0,0,0,0,0,0,0,0,0,0,0,0,0,0,0,0,0,0,0,0,0,0,0,0,0
1777291275.3786566,6264,1777291270.2575712,1777291270.2103457,1777291270.4952357,0,0,47.2254753112793,-237.66446113586426,1,1,0.0,0.0,0.0,0.0,0.0,0.0,0.0,0.0,0.0,0.0,0.0,0.0,0.0,0.0,0.0,0.0,0.0,0.0,0.0,0.0,0.0,0.0,0.0,0.0,0.0,0.0,0.0,701.8207397460938,570.7468872070312,1124.4068603515625,952.5706176757812,588.8927612304688,1125.0709228515625,745.4671020507812,390.0130615234375,1153.5828857421875,906.4756469726562,380.6396484375,1153.7601318359375,648.2109985351562,482.37603759765625,858.9663696289062,696.6538696289062,514.5557861328125,600.7296752929688,685.3356323242188,463.91455078125,431.7572326660156,716.2052001953125,450.6673889160156,235.704345703125,778.2620239257812,351.29693603515625,160.8346710205078,742.3600463867188,617.5509643554688,180.8441619873047,1022.8442993164062,576.7428588867188,824.4947509765625,989.3524780273438,588.9041748046875,613.4263916015625,997.0123291015625,503.30242919921875,514.3771362304688,948.4434814453125,376.6736755371094,345.3675537109375,862.4777221679688,296.36676025390625,315.0754699707031,992.1106567382812,499.6991271972656,202.0967559814453,0.0,0.0,0.0,0.0,0.0,0.0,0.0,0.0,0.0,0.0,0.0,0.0,1.0,0.9092,9.6517,-0.7226,0.1831,-0.4272,-0.1221,94.2627,-5.3503,171.7328,0.0211,-0.7325,0.6753,0.0831,0.0,0.0,0.0,0.0,0.0,0.0,0.0,0.0,0.0,0.0,0.0,0.0,1.0,0.0,0.0,0.0,0.0,0.0,0.0,0.0,0.0,0.0,0.0,0.0,0.0,1.0,0.0,0.0,0.0,0.0,0.0,0.0,0.0,0.0,0.0,0.0,0.0,0.0,1.0,0.0,0.0,0.0,0.0,0.0,0.0,0.0,0.0,0.0,0.0,0.0,0.0,1.0,0.0,0.0,0.0,0.0,0.0,0.0,0.0,0.0,0.0,0.0,0.0,0.0,1.0,0,0,55568,31763,0,0,0,0,51476,22,30468,0,0,0,0,0,0,0,0,0,0,0,0,0,0,0,0,0,0,0,0,0,0,0,0,0
