Timestamp,Vicon_Frame_Num,Vicon_Recv_Timestamp,IMU_Recv_Timestamp,Planter_Recv_Timestamp,Vicon_Gap_Flag,Vicon_Gap_Size,IMU_Stale_ms,Planter_Stale_ms,IMU_Matched_Flag,Planter_Matched_Flag,Vicon_Root_X,Vicon_Root_Y,Vicon_Root_Z,Vicon_L_Femur_X,Vicon_L_Femur_Y,Vicon_L_Femur_Z,Vicon_L_Tibia_X,Vicon_L_Tibia_Y,Vicon_L_Tibia_Z,Vicon_L_Foot_X,Vicon_L_Foot_Y,Vicon_L_Foot_Z,Vicon_L_Toe_X,Vicon_L_Toe_Y,Vicon_L_Toe_Z,Vicon_R_Femur_X,Vicon_R_Femur_Y,Vicon_R_Femur_Z,Vicon_R_Tibia_X,Vicon_R_Tibia_Y,Vicon_R_Tibia_Z,Vicon_R_Foot_X,Vicon_R_Foot_Y,Vicon_R_Foot_Z,Vicon_R_Toe_X,Vicon_R_Toe_Y,Vicon_R_Toe_Z,Vicon_LASI_X,Vicon_LASI_Y,Vicon_LASI_Z,Vicon_RASI_X,Vicon_RASI_Y,Vicon_RASI_Z,Vicon_LPSI_X,Vicon_LPSI_Y,Vicon_LPSI_Z,Vicon_RPSI_X,Vicon_RPSI_Y,Vicon_RPSI_Z,Vicon_LTHI_X,Vicon_LTHI_Y,Vicon_LTHI_Z,Vicon_LKNE_X,Vicon_LKNE_Y,Vicon_LKNE_Z,Vicon_LTIB_X,Vicon_LTIB_Y,Vicon_LTIB_Z,Vicon_LANK_X,Vicon_LANK_Y,Vicon_LANK_Z,Vicon_LHEE_X,Vicon_LHEE_Y,Vicon_LHEE_Z,Vicon_LTOE_X,Vicon_LTOE_Y,Vicon_LTOE_Z,Vicon_RTHI_X,Vicon_RTHI_Y,Vicon_RTHI_Z,Vicon_RKNE_X,Vicon_RKNE_Y,Vicon_RKNE_Z,Vicon_RTIB_X,Vicon_RTIB_Y,Vicon_RTIB_Z,Vicon_RANK_X,Vicon_RANK_Y,Vicon_RANK_Z,Vicon_RHEE_X,Vicon_RHEE_Y,Vicon_RHEE_Z,Vicon_RTOE_X,Vicon_RTOE_Y,Vicon_RTOE_Z,IMU_Trunk_Acc_X,IMU_Trunk_Acc_Y,IMU_Trunk_Acc_Z,IMU_Trunk_Gyro_X,IMU_Trunk_Gyro_Y,IMU_Trunk_Gyro_Z,IMU_Trunk_Roll,IMU_Trunk_Pitch,IMU_Trunk_Yaw,IMU_Trunk_Quat_x,IMU_Trunk_Quat_y,IMU_Trunk_Quat_z,IMU_Trunk_Quat_w,IMU_L_Femur_Acc_X,IMU_L_Femur_Acc_Y,IMU_L_Femur_Acc_Z,IMU_L_Femur_Gyro_X,IMU_L_Femur_Gyro_Y,IMU_L_Femur_Gyro_Z,IMU_L_Femur_Roll,IMU_L_Femur_Pitch,IMU_L_Femur_Yaw,IMU_L_Femur_Quat_x,IMU_L_Femur_Quat_y,IMU_L_Femur_Quat_z,IMU_L_Femur_Quat_w,IMU_L_Tibia_Acc_X,IMU_L_Tibia_Acc_Y,IMU_L_Tibia_Acc_Z,IMU_L_Tibia_Gyro_X,IMU_L_Tibia_Gyro_Y,IMU_L_Tibia_Gyro_Z,IMU_L_Tibia_Roll,IMU_L_Tibia_Pitch,IMU_L_Tibia_Yaw,IMU_L_Tibia_Quat_x,IMU_L_Tibia_Quat_y,IMU_L_Tibia_Quat_z,IMU_L_Tibia_Quat_w,IMU_L_Foot_Acc_X,IMU_L_Foot_Acc_Y,IMU_L_Foot_Acc_Z,IMU_L_Foot_Gyro_X,IMU_L_Foot_Gyro_Y,IMU_L_Foot_Gyro_Z,IMU_L_Foot_Roll,IMU_L_Foot_Pitch,IMU_L_Foot_Yaw,IMU_L_Foot_Quat_x,IMU_L_Foot_Quat_y,IMU_L_Foot_Quat_z,IMU_L_Foot_Quat_w,IMU_R_Femur_Acc_X,IMU_R_Femur_Acc_Y,IMU_R_Femur_Acc_Z,IMU_R_Femur_Gyro_X,IMU_R_Femur_Gyro_Y,IMU_R_Femur_Gyro_Z,IMU_R_Femur_Roll,IMU_R_Femur_Pitch,IMU_R_Femur_Yaw,IMU_R_Femur_Quat_x,IMU_R_Femur_Quat_y,IMU_R_Femur_Quat_z,IMU_R_Femur_Quat_w,IMU_R_Tibia_Acc_X,IMU_R_Tibia_Acc_Y,IMU_R_Tibia_Acc_Z,IMU_R_Tibia_Gyro_X,IMU_R_Tibia_Gyro_Y,IMU_R_Tibia_Gyro_Z,IMU_R_Tibia_Roll,IMU_R_Tibia_Pitch,IMU_R_Tibia_Yaw,IMU_R_Tibia_Quat_x,IMU_R_Tibia_Quat_y,IMU_R_Tibia_Quat_z,IMU_R_Tibia_Quat_w,IMU_R_Foot_Acc_X,IMU_R_Foot_Acc_Y,IMU_R_Foot_Acc_Z,IMU_R_Foot_Gyro_X,IMU_R_Foot_Gyro_Y,IMU_R_Foot_Gyro_Z,IMU_R_Foot_Roll,IMU_R_Foot_Pitch,IMU_R_Foot_Yaw,IMU_R_Foot_Quat_x,IMU_R_Foot_Quat_y,IMU_R_Foot_Quat_z,IMU_R_Foot_Quat_w,Planter_Left_0,Planter_Left_1,Planter_Left_2,Planter_Left_3,Planter_Left_4,Planter_Left_5,Planter_Left_6,Planter_Left_7,Planter_Left_8,Planter_Left_9,Planter_Left_10,Planter_Left_11,Planter_Left_12,Planter_Left_13,Planter_Left_14,Planter_Left_15,Planter_Left_16,Planter_Left_17,Planter_Right_0,Planter_Right_1,Planter_Right_2,Planter_Right_3,Planter_Right_4,Planter_Right_5,Planter_Right_6,Planter_Right_7,Planter_Right_8,Planter_Right_9,Planter_Right_10,Planter_Right_11,Planter_Right_12,Planter_Right_13,Planter_Right_14,Planter_Right_15,Planter_Right_16,Planter_Right_17
1777291189.6493077,9729,1777291184.800742,1777291184.9506068,1777291185.6969376,0,0,-149.86491203308105,-896.195650100708,1,1,0.0,0.0,0.0,0.0,0.0,0.0,0.0,0.0,0.0,0.0,0.0,0.0,0.0,0.0,0.0,0.0,0.0,0.0,0.0,0.0,0.0,0.0,0.0,0.0,0.0,0.0,0.0,0.0,0.0,0.0,0.0,0.0,0.0,0.0,0.0,0.0,0.0,0.0,0.0,0.0,0.0,0.0,0.0,0.0,0.0,0.0,0.0,0.0,0.0,0.0,0.0,0.0,0.0,0.0,0.0,0.0,0.0,0.0,0.0,0.0,0.0,0.0,0.0,0.0,0.0,0.0,0.0,0.0,0.0,0.0,0.0,0.0,0.0,0.0,0.0,0.0,0.0,0.0,0.0,0.0,0.0,0.0,0.0,0.0,0.0,0.0,0.0,1.0,0.8996,9.6564,-0.7178,0.1221,-0.3662,-0.1831,94.2737,-5.3009,-174.8639,0.0642,0.7301,-0.6804,-0.0034,0.0,0.0,0.0,0.0,0.0,0.0,0.0,0.0,0.0,0.0,0.0,0.0,1.0,0.0,0.0,0.0,0.0,0.0,0.0,0.0,0.0,0.0,0.0,0.0,0.0,1.0,0.0,0.0,0.0,0.0,0.0,0.0,0.0,0.0,0.0,0.0,0.0,0.0,1.0,0.0,0.0,0.0,0.0,0.0,0.0,0.0,0.0,0.0,0.0,0.0,0.0,1.0,0.0,0.0,0.0,0.0,0.0,0.0,0.0,0.0,0.0,0.0,0.0,0.0,1.0,0,0,0,0,0,0,0,0,0,0,0,0,0,0,0,0,0,0,0,0,0,0,0,0,0,0,0,0,0,0,0,0,0,0,0,0
1777291189.6493077,9833,1777291184.8107405,1777291184.9506068,1777291185.6969376,1,103,-139.86635208129883,-886.1970901489258,1,1,0.0,0.0,0.0,0.0,0.0,0.0,0.0,0.0,0.0,0.0,0.0,0.0,0.0,0.0,0.0,0.0,0.0,0.0,0.0,0.0,0.0,0.0,0.0,0.0,0.0,0.0,0.0,734.4244995117188,598.7452392578125,1110.595458984375,985.552001953125,613.9060668945312,1115.84228515625,769.666748046875,416.8227844238281,1135.1097412109375,930.6753540039062,406.9602355957031,1138.3865966796875,670.529296875,511.4920959472656,843.482666015625,705.2744140625,522.7025756835938,588.6618041992188,684.7379150390625,392.6795959472656,478.64202880859375,700.25439453125,269.64044189453125,316.986328125,762.895751953125,138.04916381835938,298.3871154785156,732.433837890625,362.5419616699219,172.51824951171875,1040.0430908203125,592.2528686523438,805.4967651367188,993.451416015625,597.6293334960938,570.527587890625,1006.3807373046875,596.40625,434.0129699707031,961.578369140625,597.0253295898438,220.6388397216797,892.4987182617188,525.0621337890625,163.80201721191406,935.6478271484375,787.1943359375,180.41343688964844,0.0,0.0,0.0,0.0,0.0,0.0,0.0,0.0,0.0,0.0,0.0,0.0,1.0,0.8996,9.6564,-0.7178,0.1221,-0.3662,-0.1831,94.2737,-5.3009,-174.8639,0.0642,0.7301,-0.6804,-0.0034,0.0,0.0,0.0,0.0,0.0,0.0,0.0,0.0,0.0,0.0,0.0,0.0,1.0,0.0,0.0,0.0,0.0,0.0,0.0,0.0,0.0,0.0,0.0,0.0,0.0,1.0,0.0,0.0,0.0,0.0,0.0,0.0,0.0,0.0,0.0,0.0,0.0,0.0,1.0,0.0,0.0,0.0,0.0,0.0,0.0,0.0,0.0,0.0,0.0,0.0,0.0,1.0,0.0,0.0,0.0,0.0,0.0,0.0,0.0,0.0,0.0,0.0,0.0,0.0,1.0,0,0,0,0,0,0,0,0,0,0,0,0,0,0,0,0,0,0,0,0,0,0,0,0,0,0,0,0,0,0,0,0,0,0,0,0
1777291189.6493077,9834,1777291184.8127363,1777291184.9506068,1777291185.6969376,0,0,-137.87055015563965,-884.2012882232666,1,1,0.0,0.0,0.0,0.0,0.0,0.0,0.0,0.0,0.0,0.0,0.0,0.0,0.0,0.0,0.0,0.0,0.0,0.0,0.0,0.0,0.0,0.0,0.0,0.0,0.0,0.0,0.0,736.0162963867188,598.2965087890625,1111.4464111328125,987.0465087890625,614.4442749023438,1116.806640625,771.6975708007812,416.489990234375,1135.6142578125,932.7156372070312,407.27886962890625,1139.07373046875,672.1446533203125,514.9033203125,844.2880859375,704.642333984375,531.5996704101562,589.8969116210938,684.6655883789062,400.3501892089844,483.1217041015625,700.40283203125,274.1805114746094,324.17095947265625,764.451171875,145.1476287841797,314.837158203125,731.4548950195312,359.9447021484375,171.77545166015625,1041.5911865234375,591.5331420898438,805.522216796875,994.2401123046875,594.8807983398438,570.5676879882812,1006.9293212890625,592.2738037109375,434.00640869140625,961.689208984375,590.3851318359375,220.76333618164062,892.7494506835938,517.7264404296875,163.820068359375,935.6534423828125,779.9004516601562,180.31556701660156,0.0,0.0,0.0,0.0,0.0,0.0,0.0,0.0,0.0,0.0,0.0,0.0,1.0,0.8996,9.6564,-0.7178,0.1221,-0.3662,-0.1831,94.2737,-5.3009,-174.8639,0.0642,0.7301,-0.6804,-0.0034,0.0,0.0,0.0,0.0,0.0,0.0,0.0,0.0,0.0,0.0,0.0,0.0,1.0,0.0,0.0,0.0,0.0,0.0,0.0,0.0,0.0,0.0,0.0,0.0,0.0,1.0,0.0,0.0,0.0,0.0,0.0,0.0,0.0,0.0,0.0,0.0,0.0,0.0,1.0,0.0,0.0,0.0,0.0,0.0,0.0,0.0,0.0,0.0,0.0,0.0,0.0,1.0,0.0,0.0,0.0,0.0,0.0,0.0,0.0,0.0,0.0,0.0,0.0,0.0,1.0,0,0,0,0,0,0,0,0,0,0,0,0,0,0,0,0,0,0,0,0,0,0,0,0,0,0,0,0,0,0,0,0,0,0,0,0
1777291189.6496685,9835,1777291184.8455923,1777291184.9506068,1777291185.6969376,0,0,-105.01456260681152,-851.3453006744385,1,1,0.0,0.0,0.0,0.0,0.0,0.0,0.0,0.0,0.0,0.0,0.0,0.0,0.0,0.0,0.0,0.0,0.0,0.0,0.0,0.0,0.0,0.0,0.0,0.0,0.0,0.0,0.0,737.5051879882812,597.6697998046875,1112.3031005859375,988.439697265625,614.8545532226562,1117.738525390625,773.7080078125,415.998291015625,1136.1915283203125,934.7329711914062,407.468994140625,1139.8062744140625,673.50634765625,518.2637939453125,845.33154296875,703.8694458007812,540.3963623046875,591.440673828125,684.6524047851562,408.1471252441406,487.6885681152344,700.7989501953125,279.24285888671875,331.3146667480469,766.2595825195312,153.4847869873047,330.83734130859375,730.44580078125,358.25738525390625,171.49264526367188,1043.1199951171875,590.5409545898438,805.4371337890625,994.9655151367188,591.7317504882812,570.5068359375,1007.3821411132812,587.8184814453125,433.9090270996094,961.7134399414062,583.6427612304688,220.8573760986328,892.9628295898438,510.362548828125,163.85305786132812,935.6715087890625,772.60546875,180.14295959472656,0.0,0.0,0.0,0.0,0.0,0.0,0.0,0.0,0.0,0.0,0.0,0.0,1.0,0.8996,9.6564,-0.7178,0.1221,-0.3662,-0.1831,94.2737,-5.3009,-174.8639,0.0642,0.7301,-0.6804,-0.0034,0.0,0.0,0.0,0.0,0.0,0.0,0.0,0.0,0.0,0.0,0.0,0.0,1.0,0.0,0.0,0.0,0.0,0.0,0.0,0.0,0.0,0.0,0.0,0.0,0.0,1.0,0.0,0.0,0.0,0.0,0.0,0.0,0.0,0.0,0.0,0.0,0.0,0.0,1.0,0.0,0.0,0.0,0.0,0.0,0.0,0.0,0.0,0.0,0.0,0.0,0.0,1.0,0.0,0.0,0.0,0.0,0.0,0.0,0.0,0.0,0.0,0.0,0.0,0.0,1.0,0,0,0,0,0,0,0,0,0,0,0,0,0,0,0,0,0,0,0,0,0,0,0,0,0,0,0,0,0,0,0,0,0,0,0,0
1777291189.6496685,9837,1777291184.8485904,1777291184.9506068,1777291185.6969376,1,1,-102.01644897460938,-848.3471870422363,1,1,0.0,0.0,0.0,0.0,0.0,0.0,0.0,0.0,0.0,0.0,0.0,0.0,0.0,0.0,0.0,0.0,0.0,0.0,0.0,0.0,0.0,0.0,0.0,0.0,0.0,0.0,0.0,740.2070922851562,595.9549560546875,1114.009521484375,990.9532470703125,615.2774658203125,1119.4625244140625,777.6241455078125,414.58160400390625,1137.5333251953125,938.6587524414062,407.4656066894531,1141.3638916015625,675.4276123046875,524.7625122070312,848.1209716796875,702.024658203125,557.3792724609375,595.427978515625,684.9065551757812,423.7200927734375,496.8544921875,702.3924560546875,290.6464538574219,344.9301452636719,770.8453369140625,172.2246551513672,358.8109130859375,728.2689819335938,358.60418701171875,173.0179443359375,1046.0194091796875,587.8057861328125,805.0040283203125,996.2406616210938,584.41650390625,570.166259765625,1008.0650634765625,578.1244506835938,433.5318908691406,961.5671997070312,569.8922119140625,220.9953155517578,893.2991333007812,495.5603332519531,163.97792053222656,935.7511596679688,757.9776611328125,179.63568115234375,0.0,0.0,0.0,0.0,0.0,0.0,0.0,0.0,0.0,0.0,0.0,0.0,1.0,0.8996,9.6564,-0.7178,0.1221,-0.3662,-0.1831,94.2737,-5.3009,-174.8639,0.0642,0.7301,-0.6804,-0.0034,0.0,0.0,0.0,0.0,0.0,0.0,0.0,0.0,0.0,0.0,0.0,0.0,1.0,0.0,0.0,0.0,0.0,0.0,0.0,0.0,0.0,0.0,0.0,0.0,0.0,1.0,0.0,0.0,0.0,0.0,0.0,0.0,0.0,0.0,0.0,0.0,0.0,0.0,1.0,0.0,0.0,0.0,0.0,0.0,0.0,0.0,0.0,0.0,0.0,0.0,0.0,1.0,0.0,0.0,0.0,0.0,0.0,0.0,0.0,0.0,0.0,0.0,0.0,0.0,1.0,0,0,0,0,0,0,0,0,0,0,0,0,0,0,0,0,0,0,0,0,0,0,0,0,0,0,0,0,0,0,0,0,0,0,0,0
1777291189.6496685,9838,1777291184.8628404,1777291184.9506068,1777291185.6969376,0,0,-87.76640892028809,-834.097146987915,1,1,0.0,0.0,0.0,0.0,0.0,0.0,0.0,0.0,0.0,0.0,0.0,0.0,0.0,0.0,0.0,0.0,0.0,0.0,0.0,0.0,0.0,0.0,0.0,0.0,0.0,0.0,0.0,741.439453125,594.9056396484375,1114.8533935546875,992.0921020507812,615.2860107421875,1120.24462890625,779.5076904296875,413.68115234375,1138.285400390625,940.546630859375,407.2757873535156,1142.17041015625,676.00537109375,527.8489379882812,849.8446044921875,701.0135498046875,565.447265625,597.8365478515625,685.2034912109375,431.34942626953125,501.3153991699219,703.575927734375,296.8905334472656,351.1073913574219,773.693603515625,181.74021911621094,369.5610656738281,727.026123046875,361.16973876953125,175.05226135253906,1047.3455810546875,586.1041870117188,804.6994018554688,996.7970581054688,580.3465576171875,569.9334106445312,1008.32568359375,572.9790649414062,433.3009033203125,961.4342041015625,562.906005859375,221.06271362304688,893.4337768554688,488.12298583984375,164.0685577392578,935.808837890625,750.6279296875,179.34767150878906,0.0,0.0,0.0,0.0,0.0,0.0,0.0,0.0,0.0,0.0,0.0,0.0,1.0,0.8996,9.6564,-0.7178,0.1221,-0.3662,-0.1831,94.2737,-5.3009,-174.8639,0.0642,0.7301,-0.6804,-0.0034,0.0,0.0,0.0,0.0,0.0,0.0,0.0,0.0,0.0,0.0,0.0,0.0,1.0,0.0,0.0,0.0,0.0,0.0,0.0,0.0,0.0,0.0,0.0,0.0,0.0,1.0,0.0,0.0,0.0,0.0,0.0,0.0,0.0,0.0,0.0,0.0,0.0,0.0,1.0,0.0,0.0,0.0,0.0,0.0,0.0,0.0,0.0,0.0,0.0,0.0,0.0,1.0,0.0,0.0,0.0,0.0,0.0,0.0,0.0,0.0,0.0,0.0,0.0,0.0,1.0,0,0,0,0,0,0,0,0,0,0,0,0,0,0,0,0,0,0,0,0,0,0,0,0,0,0,0,0,0,0,0,0,0,0,0,0
1777291189.6496685,9839,1777291184.866986,1777291184.9506068,1777291185.6969376,0,0,-83.62078666687012,-829.9515247344971,1,1,0.0,0.0,0.0,0.0,0.0,0.0,0.0,0.0,0.0,0.0,0.0,0.0,0.0,0.0,0.0,0.0,0.0,0.0,0.0,0.0,0.0,0.0,0.0,0.0,0.0,0.0,0.0,742.60546875,593.7538452148438,1115.69091796875,993.1648559570312,615.1586303710938,1120.97265625,781.327392578125,412.6697082519531,1139.0845947265625,942.3713989257812,406.96478271484375,1142.9847412109375,676.3633422851562,530.7805786132812,851.7611694335938,699.9815063476562,573.1759033203125,600.4852294921875,685.61572265625,438.8124084472656,505.5892333984375,704.979248046875,303.4654235839844,356.6653137207031,776.9082641601562,190.8781280517578,377.57379150390625,725.6185302734375,365.61822509765625,177.9342498779297,1048.565673828125,584.2113037109375,804.3666381835938,997.303955078125,576.0620727539062,569.689453125,1008.5503540039062,567.6890869140625,433.072021484375,961.2864990234375,555.858642578125,221.14381408691406,893.5543212890625,480.6602478027344,164.17529296875,935.8746948242188,743.24560546875,179.06825256347656,0.0,0.0,0.0,0.0,0.0,0.0,0.0,0.0,0.0,0.0,0.0,0.0,1.0,0.8996,9.6564,-0.7178,0.1221,-0.3662,-0.1831,94.2737,-5.3009,-174.8639,0.0642,0.7301,-0.6804,-0.0034,0.0,0.0,0.0,0.0,0.0,0.0,0.0,0.0,0.0,0.0,0.0,0.0,1.0,0.0,0.0,0.0,0.0,0.0,0.0,0.0,0.0,0.0,0.0,0.0,0.0,1.0,0.0,0.0,0.0,0.0,0.0,0.0,0.0,0.0,0.0,0.0,0.0,0.0,1.0,0.0,0.0,0.0,0.0,0.0,0.0,0.0,0.0,0.0,0.0,0.0,0.0,1.0,0.0,0.0,0.0,0.0,0.0,0.0,0.0,0.0,0.0,0.0,0.0,0.0,1.0,0,0,0,0,0,0,0,0,0,0,0,0,0,0,0,0,0,0,0,0,0,0,0,0,0,0,0,0,0,0,0,0,0,0,0,0
1777291189.6496685,9840,1777291184.8799644,1777291184.9506068,1777291185.6969376,0,0,-70.64247131347656,-816.9732093811035,1,1,0.0,0.0,0.0,0.0,0.0,0.0,0.0,0.0,0.0,0.0,0.0,0.0,0.0,0.0,0.0,0.0,0.0,0.0,0.0,0.0,0.0,0.0,0.0,0.0,0.0,0.0,0.0,743.713134765625,592.5171508789062,1116.523681640625,994.1796875,614.8968505859375,1121.6494140625,783.0739135742188,411.56005859375,1139.92626953125,944.1241455078125,406.53704833984375,1143.8006591796875,676.54150390625,533.515869140625,853.8430786132812,698.9551391601562,580.5358276367188,603.3384399414062,686.1314086914062,446.0873718261719,509.5899963378906,706.5550537109375,310.37237548828125,361.4613342285156,780.4313354492188,199.485107421875,382.68389892578125,724.0079956054688,372.04742431640625,181.52066040039062,1049.6678466796875,582.1519775390625,804.0271606445312,997.7649536132812,571.6021728515625,569.454345703125,1008.7505493164062,562.2855224609375,432.86444091796875,961.1412963867188,548.75732421875,221.2476043701172,893.6674194335938,473.1708068847656,164.2969970703125,935.9471435546875,735.8272094726562,178.81617736816406,0.0,0.0,0.0,0.0,0.0,0.0,0.0,0.0,0.0,0.0,0.0,0.0,1.0,0.8996,9.6564,-0.7178,0.1221,-0.3662,-0.1831,94.2737,-5.3009,-174.8639,0.0642,0.7301,-0.6804,-0.0034,0.0,0.0,0.0,0.0,0.0,0.0,0.0,0.0,0.0,0.0,0.0,0.0,1.0,0.0,0.0,0.0,0.0,0.0,0.0,0.0,0.0,0.0,0.0,0.0,0.0,1.0,0.0,0.0,0.0,0.0,0.0,0.0,0.0,0.0,0.0,0.0,0.0,0.0,1.0,0.0,0.0,0.0,0.0,0.0,0.0,0.0,0.0,0.0,0.0,0.0,0.0,1.0,0.0,0.0,0.0,0.0,0.0,0.0,0.0,0.0,0.0,0.0,0.0,0.0,1.0,0,0,0,0,0,0,0,0,0,0,0,0,0,0,0,0,0,0,0,0,0,0,0,0,0,0,0,0,0,0,0,0,0,0,0,0
1777291189.6496685,9841,1777291184.8839622,1777291184.9506068,1777291185.6969376,0,0,-66.64466857910156,-812.9754066467285,1,1,0.0,0.0,0.0,0.0,0.0,0.0,0.0,0.0,0.0,0.0,0.0,0.0,0.0,0.0,0.0,0.0,0.0,0.0,0.0,0.0,0.0,0.0,0.0,0.0,0.0,0.0,0.0,744.7683715820312,591.2113037109375,1117.3538818359375,995.1433715820312,614.50390625,1122.27880859375,784.7391967773438,410.364501953125,1140.80615234375,945.797119140625,405.998046875,1144.6124267578125,676.586669921875,536.0098266601562,856.0574340820312,697.9589233398438,587.5057373046875,606.3558959960938,686.7293701171875,453.1684875488281,513.2306518554688,708.2434692382812,317.62890625,365.365478515625,784.1600341796875,207.60740661621094,384.95745849609375,722.1756591796875,380.4297790527344,185.5621795654297,1050.6458740234375,579.9501342773438,803.6993408203125,998.1839599609375,566.9996337890625,569.2446899414062,1008.9359741210938,556.7904052734375,432.693359375,961.0131225585938,541.6071166992188,221.38088989257812,893.7801513671875,465.6537780761719,164.4341583251953,936.0264892578125,728.3714599609375,178.6039276123047,0.0,0.0,0.0,0.0,0.0,0.0,0.0,0.0,0.0,0.0,0.0,0.0,1.0,0.8996,9.6564,-0.7178,0.1221,-0.3662,-0.1831,94.2737,-5.3009,-174.8639,0.0642,0.7301,-0.6804,-0.0034,0.0,0.0,0.0,0.0,0.0,0.0,0.0,0.0,0.0,0.0,0.0,0.0,1.0,0.0,0.0,0.0,0.0,0.0,0.0,0.0,0.0,0.0,0.0,0.0,0.0,1.0,0.0,0.0,0.0,0.0,0.0,0.0,0.0,0.0,0.0,0.0,0.0,0.0,1.0,0.0,0.0,0.0,0.0,0.0,0.0,0.0,0.0,0.0,0.0,0.0,0.0,1.0,0.0,0.0,0.0,0.0,0.0,0.0,0.0,0.0,0.0,0.0,0.0,0.0,1.0,0,0,0,0,0,0,0,0,0,0,0,0,0,0,0,0,0,0,0,0,0,0,0,0,0,0,0,0,0,0,0,0,0,0,0,0
1777291189.6496685,9842,1777291184.8971596,1777291184.9506068,1777291185.6969376,0,0,-53.44724655151367,-799.7779846191406,1,1,0.0,0.0,0.0,0.0,0.0,0.0,0.0,0.0,0.0,0.0,0.0,0.0,0.0,0.0,0.0,0.0,0.0,0.0,0.0,0.0,0.0,0.0,0.0,0.0,0.0,0.0,0.0,745.7747192382812,589.8499755859375,1118.183349609375,996.0607299804688,613.9849243164062,1122.86474609375,786.316650390625,409.0948486328125,1141.7191162109375,947.3837280273438,405.3541259765625,1145.415283203125,676.5492553710938,538.2164306640625,858.3670654296875,697.0155029296875,594.070068359375,609.4935913085938,687.38134765625,460.06231689453125,516.4271240234375,709.9755859375,325.2638854980469,368.2666015625,787.957275390625,215.45335388183594,384.64697265625,720.126708984375,390.62225341796875,189.74093627929688,1051.4986572265625,577.6275634765625,803.3970947265625,998.564697265625,562.2811279296875,569.07275390625,1009.11474609375,551.2181396484375,432.569580078125,960.9122924804688,534.4119262695312,221.54788208007812,893.8994750976562,458.109375,164.58880615234375,936.1144409179688,720.879638671875,178.43728637695312,0.0,0.0,0.0,0.0,0.0,0.0,0.0,0.0,0.0,0.0,0.0,0.0,1.0,0.8996,9.6564,-0.7178,0.1221,-0.3662,-0.1831,94.2737,-5.3009,-174.8639,0.0642,0.7301,-0.6804,-0.0034,0.0,0.0,0.0,0.0,0.0,0.0,0.0,0.0,0.0,0.0,0.0,0.0,1.0,0.0,0.0,0.0,0.0,0.0,0.0,0.0,0.0,0.0,0.0,0.0,0.0,1.0,0.0,0.0,0.0,0.0,0.0,0.0,0.0,0.0,0.0,0.0,0.0,0.0,1.0,0.0,0.0,0.0,0.0,0.0,0.0,0.0,0.0,0.0,0.0,0.0,0.0,1.0,0.0,0.0,0.0,0.0,0.0,0.0,0.0,0.0,0.0,0.0,0.0,0.0,1.0,0,0,0,0,0,0,0,0,0,0,0,0,0,0,0,0,0,0,0,0,0,0,0,0,0,0,0,0,0,0,0,0,0,0,0,0
1777291189.6496685,9843,1777291184.8991647,1777291184.9506068,1777291185.6969376,0,0,-51.44214630126953,-797.7728843688965,1,1,0.0,0.0,0.0,0.0,0.0,0.0,0.0,0.0,0.0,0.0,0.0,0.0,0.0,0.0,0.0,0.0,0.0,0.0,0.0,0.0,0.0,0.0,0.0,0.0,0.0,0.0,0.0,746.7333374023438,588.4446411132812,1119.013427734375,996.9344482421875,613.3464965820312,1123.410400390625,787.8014526367188,407.76226806640625,1142.659912109375,948.87890625,404.61236572265625,1146.2052001953125,676.4796142578125,540.0912475585938,860.7317504882812,696.1454467773438,600.2174072265625,612.7053833007812,688.05419921875,466.7840576171875,519.1023559570312,711.6773681640625,333.3119201660156,370.078857421875,791.6669921875,223.31834411621094,382.114501953125,717.8901977539062,402.4037170410156,193.7241668701172,1052.2296142578125,575.202880859375,803.12939453125,998.9105224609375,557.4678955078125,568.946044921875,1009.2925415039062,545.5775756835938,432.4988708496094,960.8443603515625,527.1752319335938,221.75006103515625,894.0314331054688,450.5390625,164.76368713378906,936.2134399414062,713.3551635742188,178.31588745117188,0.0,0.0,0.0,0.0,0.0,0.0,0.0,0.0,0.0,0.0,0.0,0.0,1.0,0.8996,9.6564,-0.7178,0.1221,-0.3662,-0.1831,94.2737,-5.3009,-174.8639,0.0642,0.7301,-0.6804,-0.0034,0.0,0.0,0.0,0.0,0.0,0.0,0.0,0.0,0.0,0.0,0.0,0.0,1.0,0.0,0.0,0.0,0.0,0.0,0.0,0.0,0.0,0.0,0.0,0.0,0.0,1.0,0.0,0.0,0.0,0.0,0.0,0.0,0.0,0.0,0.0,0.0,0.0,0.0,1.0,0.0,0.0,0.0,0.0,0.0,0.0,0.0,0.0,0.0,0.0,0.0,0.0,1.0,0.0,0.0,0.0,0.0,0.0,0.0,0.0,0.0,0.0,0.0,0.0,0.0,1.0,0,0,0,0,0,0,0,0,0,0,0,0,0,0,0,0,0,0,0,0,0,0,0,0,0,0,0,0,0,0,0,0,0,0,0,0
1777291189.6496685,9844,1777291184.915367,1777291184.9506068,1777291185.6969376,0,0,-35.23993492126465,-781.5706729888916,1,1,0.0,0.0,0.0,0.0,0.0,0.0,0.0,0.0,0.0,0.0,0.0,0.0,0.0,0.0,0.0,0.0,0.0,0.0,0.0,0.0,0.0,0.0,0.0,0.0,0.0,0.0,0.0,747.6431884765625,587.0050048828125,1119.843505859375,997.7650146484375,612.5968627929688,1123.91748046875,789.1901245117188,406.3774108886719,1143.62255859375,950.27880859375,403.78070068359375,1146.978515625,676.4254150390625,541.5936889648438,863.109375,695.3670654296875,605.9385986328125,615.943603515625,688.7130737304688,473.3536071777344,521.1903686523438,713.2745971679688,341.8075256347656,370.7464294433594,795.1304931640625,231.5048828125,377.7475891113281,715.5126342773438,415.5249938964844,197.2186279296875,1052.8455810546875,572.6908569335938,802.8997192382812,999.2236328125,552.576904296875,568.8670654296875,1009.4722290039062,539.8742065429688,432.48199462890625,960.8096313476562,519.9009399414062,221.98619079589844,894.1799926757812,442.9458923339844,164.96112060546875,936.3256225585938,705.8035278320312,178.234130859375,0.0,0.0,0.0,0.0,0.0,0.0,0.0,0.0,0.0,0.0,0.0,0.0,1.0,0.8996,9.6564,-0.7178,0.1221,-0.3662,-0.1831,94.2737,-5.3009,-174.8639,0.0642,0.7301,-0.6804,-0.0034,0.0,0.0,0.0,0.0,0.0,0.0,0.0,0.0,0.0,0.0,0.0,0.0,1.0,0.0,0.0,0.0,0.0,0.0,0.0,0.0,0.0,0.0,0.0,0.0,0.0,1.0,0.0,0.0,0.0,0.0,0.0,0.0,0.0,0.0,0.0,0.0,0.0,0.0,1.0,0.0,0.0,0.0,0.0,0.0,0.0,0.0,0.0,0.0,0.0,0.0,0.0,1.0,0.0,0.0,0.0,0.0,0.0,0.0,0.0,0.0,0.0,0.0,0.0,0.0,1.0,0,0,0,0,0,0,0,0,0,0,0,0,0,0,0,0,0,0,0,0,0,0,0,0,0,0,0,0,0,0,0,0,0,0,0,0
1777291189.6496685,9845,1777291184.9320393,1777291184.9506068,1777291185.6969376,0,0,-18.567562103271484,-764.8983001708984,1,1,0.0,0.0,0.0,0.0,0.0,0.0,0.0,0.0,0.0,0.0,0.0,0.0,0.0,0.0,0.0,0.0,0.0,0.0,0.0,0.0,0.0,0.0,0.0,0.0,0.0,0.0,0.0,748.5016479492188,585.5388793945312,1120.6712646484375,998.5513305664062,611.7456665039062,1124.3857421875,790.4806518554688,404.95037841796875,1144.5999755859375,951.5809326171875,402.86761474609375,1147.7318115234375,676.4286499023438,542.6895141601562,865.4573364257812,694.6962890625,611.2255249023438,619.1604614257812,689.3235473632812,479.792236328125,522.639892578125,714.6979370117188,350.7810363769531,370.2462158203125,798.2014770507812,240.2616729736328,371.8881530761719,713.0498657226562,429.75555419921875,200.01190185546875,1053.3553466796875,570.102294921875,802.7062377929688,999.5046997070312,547.6222534179688,568.83349609375,1009.6532592773438,534.1129150390625,432.5148620605469,960.803466796875,512.5939331054688,222.2525177001953,894.3463745117188,435.334228515625,165.18153381347656,936.4515380859375,698.2310180664062,178.18276977539062,0.0,0.0,0.0,0.0,0.0,0.0,0.0,0.0,0.0,0.0,0.0,0.0,1.0,0.8996,9.6564,-0.7178,0.1221,-0.3662,-0.1831,94.2737,-5.3009,-174.8639,0.0642,0.7301,-0.6804,-0.0034,0.0,0.0,0.0,0.0,0.0,0.0,0.0,0.0,0.0,0.0,0.0,0.0,1.0,0.0,0.0,0.0,0.0,0.0,0.0,0.0,0.0,0.0,0.0,0.0,0.0,1.0,0.0,0.0,0.0,0.0,0.0,0.0,0.0,0.0,0.0,0.0,0.0,0.0,1.0,0.0,0.0,0.0,0.0,0.0,0.0,0.0,0.0,0.0,0.0,0.0,0.0,1.0,0.0,0.0,0.0,0.0,0.0,0.0,0.0,0.0,0.0,0.0,0.0,0.0,1.0,0,0,0,0,0,0,0,0,0,0,0,0,0,0,0,0,0,0,0,0,0,0,0,0,0,0,0,0,0,0,0,0,0,0,0,0
1777291189.6496685,9846,1777291184.9343922,1777291184.9506068,1777291185.6969376,0,0,-16.214609146118164,-762.5453472137451,1,1,0.0,0.0,0.0,0.0,0.0,0.0,0.0,0.0,0.0,0.0,0.0,0.0,0.0,0.0,0.0,0.0,0.0,0.0,0.0,0.0,0.0,0.0,0.0,0.0,0.0,0.0,0.0,749.304931640625,584.0531616210938,1121.4921875,999.2908935546875,610.8034057617188,1124.8128662109375,791.6722412109375,403.4908752441406,1145.584228515625,952.78369140625,401.8822021484375,1148.4615478515625,676.5236206054688,543.3526611328125,867.7337646484375,694.146240234375,616.0701293945312,622.3082885742188,689.8541870117188,486.1197509765625,523.4166870117188,715.8876953125,360.25640869140625,368.5876770019531,800.75830078125,249.7537841796875,364.7901306152344,710.557373046875,444.9142761230469,201.9918670654297,1053.7684326171875,567.4445190429688,802.54248046875,999.7528686523438,542.616455078125,568.8390502929688,1009.8316040039062,528.2991333007812,432.5894470214844,960.8176879882812,505.2598876953125,222.5432891845703,894.52880859375,427.7093200683594,165.42254638671875,936.5895385742188,690.6441040039062,178.15045166015625,0.0,0.0,0.0,0.0,0.0,0.0,0.0,0.0,0.0,0.0,0.0,0.0,1.0,0.8996,9.6564,-0.7178,0.1221,-0.3662,-0.1831,94.2737,-5.3009,-174.8639,0.0642,0.7301,-0.6804,-0.0034,0.0,0.0,0.0,0.0,0.0,0.0,0.0,0.0,0.0,0.0,0.0,0.0,1.0,0.0,0.0,0.0,0.0,0.0,0.0,0.0,0.0,0.0,0.0,0.0,0.0,1.0,0.0,0.0,0.0,0.0,0.0,0.0,0.0,0.0,0.0,0.0,0.0,0.0,1.0,0.0,0.0,0.0,0.0,0.0,0.0,0.0,0.0,0.0,0.0,0.0,0.0,1.0,0.0,0.0,0.0,0.0,0.0,0.0,0.0,0.0,0.0,0.0,0.0,0.0,1.0,0,0,0,0,0,0,0,0,0,0,0,0,0,0,0,0,0,0,0,0,0,0,0,0,0,0,0,0,0,0,0,0,0,0,0,0
1777291189.6496685,9847,1777291184.95708,1777291184.9566047,1777291185.6969376,0,0,0.47516822814941406,-739.8576736450195,1,1,0.0,0.0,0.0,0.0,0.0,0.0,0.0,0.0,0.0,0.0,0.0,0.0,0.0,0.0,0.0,0.0,0.0,0.0,0.0,0.0,0.0,0.0,0.0,0.0,0.0,0.0,0.0,750.0491333007812,582.5537109375,1122.29931640625,999.9805297851562,609.7813720703125,1125.1944580078125,792.7648315429688,402.00836181640625,1146.56640625,953.8866577148438,400.83392333984375,1149.1641845703125,676.7353515625,543.56689453125,869.8985595703125,693.7266235351562,620.463623046875,625.3402709960938,690.2791748046875,492.35284423828125,523.5049438476562,716.7966918945312,370.2509765625,365.8110656738281,802.7124633789062,260.06427001953125,356.610595703125,708.0813598632812,460.879638671875,203.1444091796875,1054.0938720703125,564.722412109375,802.3981323242188,999.9658203125,537.5713500976562,568.8740844726562,1010.0004272460938,522.4396362304688,432.69512939453125,960.8418579101562,497.9050598144531,222.85145568847656,894.722900390625,420.07672119140625,165.67892456054688,936.736328125,683.04833984375,178.1255340576172,0.0,0.0,0.0,0.0,0.0,0.0,0.0,0.0,0.0,0.0,0.0,0.0,1.0,0.8996,9.6564,104.1729,-1025.3296,-484.375,1687.9272,-1.4117,-121.6461,-2.4005,0.0123,-0.873,0.0005,0.4876,0.0,0.0,0.0,0.0,0.0,0.0,0.0,0.0,0.0,0.0,0.0,0.0,1.0,0.0,0.0,0.0,0.0,0.0,0.0,0.0,0.0,0.0,0.0,0.0,0.0,1.0,0.0,0.0,0.0,0.0,0.0,0.0,0.0,0.0,0.0,0.0,0.0,0.0,1.0,0.0,0.0,0.0,0.0,0.0,0.0,0.0,0.0,0.0,0.0,0.0,0.0,1.0,0.0,0.0,0.0,0.0,0.0,0.0,0.0,0.0,0.0,0.0,0.0,0.0,1.0,0,0,0,0,0,0,0,0,0,0,0,0,0,0,0,0,0,0,0,0,0,0,0,0,0,0,0,0,0,0,0,0,0,0,0,0
1777291189.6496685,9848,1777291184.9600892,1777291184.9566047,1777291185.6969376,0,0,3.484487533569336,-736.8483543395996,1,1,0.0,0.0,0.0,0.0,0.0,0.0,0.0,0.0,0.0,0.0,0.0,0.0,0.0,0.0,0.0,0.0,0.0,0.0,0.0,0.0,0.0,0.0,0.0,0.0,0.0,0.0,0.0,750.7302856445312,581.0463256835938,1123.083984375,1000.6166381835938,608.6914672851562,1125.5244140625,793.75927734375,400.5120849609375,1147.536865234375,954.889892578125,399.7326965332031,1149.8359375,677.0783081054688,543.3273315429688,871.9149169921875,693.4436645507812,624.396484375,628.21142578125,690.5799560546875,498.5048828125,522.906494140625,717.3916625976562,380.7763977050781,361.98388671875,804.0144653320312,271.2175598144531,347.4304504394531,705.6527709960938,477.5816650390625,203.5346221923828,1054.33984375,561.9393920898438,802.2603759765625,1000.140380859375,532.4984741210938,568.9273071289062,1010.1509399414062,516.5423583984375,432.820068359375,960.865234375,490.5353088378906,223.1696319580078,894.923095703125,412.4414367675781,165.94322204589844,936.8871459960938,675.447509765625,178.09762573242188,0.0,0.0,0.0,0.0,0.0,0.0,0.0,0.0,0.0,0.0,0.0,0.0,1.0,0.8996,9.6564,104.1729,-1025.3296,-484.375,1687.9272,-1.4117,-121.6461,-2.4005,0.0123,-0.873,0.0005,0.4876,0.0,0.0,0.0,0.0,0.0,0.0,0.0,0.0,0.0,0.0,0.0,0.0,1.0,0.0,0.0,0.0,0.0,0.0,0.0,0.0,0.0,0.0,0.0,0.0,0.0,1.0,0.0,0.0,0.0,0.0,0.0,0.0,0.0,0.0,0.0,0.0,0.0,0.0,1.0,0.0,0.0,0.0,0.0,0.0,0.0,0.0,0.0,0.0,0.0,0.0,0.0,1.0,0.0,0.0,0.0,0.0,0.0,0.0,0.0,0.0,0.0,0.0,0.0,0.0,1.0,0,0,0,0,0,0,0,0,0,0,0,0,0,0,0,0,0,0,0,0,0,0,0,0,0,0,0,0,0,0,0,0,0,0,0,0
1777291189.6496685,9849,1777291184.9840558,1777291184.9566047,1777291185.6969376,0,0,27.451038360595703,-712.8818035125732,1,1,0.0,0.0,0.0,0.0,0.0,0.0,0.0,0.0,0.0,0.0,0.0,0.0,0.0,0.0,0.0,0.0,0.0,0.0,0.0,0.0,0.0,0.0,0.0,0.0,0.0,0.0,0.0,751.3451538085938,579.5366821289062,1123.8349609375,1001.19580078125,607.5455932617188,1125.7952880859375,794.6566162109375,399.0112609863281,1148.485107421875,955.7940673828125,398.58868408203125,1150.4725341796875,677.5559692382812,542.640869140625,873.7501220703125,693.2993774414062,627.8583374023438,630.8790283203125,690.746337890625,504.5865173339844,521.6389770507812,717.65380859375,391.8405456542969,357.1968994140625,804.6576538085938,283.2099609375,337.29144287109375,703.2838745117188,494.9825439453125,203.28025817871094,1054.5128173828125,559.0986328125,802.115478515625,1000.2732543945312,527.4093627929688,568.9866943359375,1010.2739868164062,510.615966796875,432.9527587890625,960.8785400390625,483.15576171875,223.4909210205078,895.12353515625,404.8070983886719,166.20726013183594,937.0372924804688,667.8433837890625,178.05899047851562,0.0,0.0,0.0,0.0,0.0,0.0,0.0,0.0,0.0,0.0,0.0,0.0,1.0,0.8996,9.6564,104.1729,-1025.3296,-484.375,1687.9272,-1.4117,-121.6461,-2.4005,0.0123,-0.873,0.0005,0.4876,0.0,0.0,0.0,0.0,0.0,0.0,0.0,0.0,0.0,0.0,0.0,0.0,1.0,0.0,0.0,0.0,0.0,0.0,0.0,0.0,0.0,0.0,0.0,0.0,0.0,1.0,0.0,0.0,0.0,0.0,0.0,0.0,0.0,0.0,0.0,0.0,0.0,0.0,1.0,0.0,0.0,0.0,0.0,0.0,0.0,0.0,0.0,0.0,0.0,0.0,0.0,1.0,0.0,0.0,0.0,0.0,0.0,0.0,0.0,0.0,0.0,0.0,0.0,0.0,1.0,0,0,0,0,0,0,0,0,0,0,0,0,0,0,0,0,0,0,0,0,0,0,0,0,0,0,0,0,0,0,0,0,0,0,0,0
1777291189.6496685,9851,1777291184.9870641,1777291184.9566047,1777291185.6969376,1,1,30.45940399169922,-709.8734378814697,1,1,0.0,0.0,0.0,0.0,0.0,0.0,0.0,0.0,0.0,0.0,0.0,0.0,0.0,0.0,0.0,0.0,0.0,0.0,0.0,0.0,0.0,0.0,0.0,0.0,0.0,0.0,0.0,752.3678588867188,576.5365600585938,1125.186279296875,1002.1736450195312,605.13427734375,1126.1273193359375,796.1648559570312,396.0332946777344,1150.2706298828125,957.3087768554688,396.2138977050781,1151.622314453125,678.875,540.016845703125,876.7737426757812,693.41357421875,633.3265380859375,635.449951171875,690.674560546875,516.575439453125,517.2330322265625,717.1715087890625,415.60809326171875,345.19677734375,804.15576171875,309.6959228515625,314.3323974609375,698.6865234375,531.7569580078125,201.41722106933594,1054.65869140625,553.2614135742188,801.7516479492188,1000.4047241210938,517.22705078125,569.0805053710938,1010.4081420898438,498.71044921875,433.20269775390625,960.8525390625,468.3809814453125,224.122314453125,895.5072631835938,389.5484619140625,166.7056884765625,937.3240966796875,652.6237182617188,177.93626403808594,0.0,0.0,0.0,0.0,0.0,0.0,0.0,0.0,0.0,0.0,0.0,0.0,1.0,0.8996,9.6564,104.1729,-1025.3296,-484.375,1687.9272,-1.4117,-121.6461,-2.4005,0.0123,-0.873,0.0005,0.4876,0.0,0.0,0.0,0.0,0.0,0.0,0.0,0.0,0.0,0.0,0.0,0.0,1.0,0.0,0.0,0.0,0.0,0.0,0.0,0.0,0.0,0.0,0.0,0.0,0.0,1.0,0.0,0.0,0.0,0.0,0.0,0.0,0.0,0.0,0.0,0.0,0.0,0.0,1.0,0.0,0.0,0.0,0.0,0.0,0.0,0.0,0.0,0.0,0.0,0.0,0.0,1.0,0.0,0.0,0.0,0.0,0.0,0.0,0.0,0.0,0.0,0.0,0.0,0.0,1.0,0,0,0,0,0,0,0,0,0,0,0,0,0,0,0,0,0,0,0,0,0,0,0,0,0,0,0,0,0,0,0,0,0,0,0,0
1777291189.6496685,9852,1777291185.0013726,1777291184.9566047,1777291185.6969376,0,0,44.76785659790039,-695.5649852752686,1,1,0.0,0.0,0.0,0.0,0.0,0.0,0.0,0.0,0.0,0.0,0.0,0.0,0.0,0.0,0.0,0.0,0.0,0.0,0.0,0.0,0.0,0.0,0.0,0.0,0.0,0.0,0.0,752.7741088867188,575.0608520507812,1125.7598876953125,1002.5693359375,603.8925170898438,1126.1724853515625,796.7781372070312,394.5750732421875,1151.0853271484375,957.92138671875,395.0043640136719,1152.12548828125,679.6712036132812,538.1528930664062,877.926025390625,693.654296875,635.3135375976562,637.28759765625,690.4505615234375,522.5012817382812,514.1871337890625,716.4529418945312,428.3210754394531,338.2440185546875,803.1959228515625,324.20501708984375,301.7028503417969,696.4066772460938,551.034912109375,200.09934997558594,1054.637939453125,550.2776489257812,801.5110473632812,1000.4027099609375,512.155029296875,569.0972290039062,1010.4116821289062,492.7480163574219,433.30633544921875,960.8112182617188,460.98980712890625,224.42694091796875,895.6848754882812,381.92498779296875,166.93016052246094,937.4613037109375,645.0054931640625,177.85426330566406,0.0,0.0,0.0,0.0,0.0,0.0,0.0,0.0,0.0,0.0,0.0,0.0,1.0,0.8996,9.6564,104.1729,-1025.3296,-484.375,1687.9272,-1.4117,-121.6461,-2.4005,0.0123,-0.873,0.0005,0.4876,0.0,0.0,0.0,0.0,0.0,0.0,0.0,0.0,0.0,0.0,0.0,0.0,1.0,0.0,0.0,0.0,0.0,0.0,0.0,0.0,0.0,0.0,0.0,0.0,0.0,1.0,0.0,0.0,0.0,0.0,0.0,0.0,0.0,0.0,0.0,0.0,0.0,0.0,1.0,0.0,0.0,0.0,0.0,0.0,0.0,0.0,0.0,0.0,0.0,0.0,0.0,1.0,0.0,0.0,0.0,0.0,0.0,0.0,0.0,0.0,0.0,0.0,0.0,0.0,1.0,0,0,0,0,0,0,0,0,0,0,0,0,0,0,0,0,0,0,0,0,0,0,0,0,0,0,0,0,0,0,0,0,0,0,0,0
1777291189.6496685,9853,1777291185.0036128,1777291184.9566047,1777291185.6969376,0,0,47.00803756713867,-693.3248043060303,1,1,0.0,0.0,0.0,0.0,0.0,0.0,0.0,0.0,0.0,0.0,0.0,0.0,0.0,0.0,0.0,0.0,0.0,0.0,0.0,0.0,0.0,0.0,0.0,0.0,0.0,0.0,0.0,753.1107177734375,573.6126098632812,1126.247802734375,1002.9024047851562,602.642333984375,1126.1275634765625,797.2986450195312,393.15032958984375,1151.8331298828125,958.43896484375,393.79437255859375,1152.5738525390625,680.5147094726562,535.9866943359375,878.82568359375,693.99853515625,636.7928466796875,638.7920532226562,690.115966796875,528.39453125,510.65386962890625,715.4508056640625,441.5909118652344,330.8456115722656,801.9236450195312,339.5750427246094,288.517822265625,694.0973510742188,570.8091430664062,198.7026824951172,1054.557861328125,547.2619018554688,801.22119140625,1000.3583374023438,507.1082458496094,569.085693359375,1010.3737182617188,486.78973388671875,433.390625,960.7546997070312,453.5978698730469,224.7235565185547,895.8511352539062,374.30517578125,167.13516235351562,937.5985107421875,637.3807373046875,177.764404296875,0.0,0.0,0.0,0.0,0.0,0.0,0.0,0.0,0.0,0.0,0.0,0.0,1.0,0.8996,9.6564,104.1729,-1025.3296,-484.375,1687.9272,-1.4117,-121.6461,-2.4005,0.0123,-0.873,0.0005,0.4876,0.0,0.0,0.0,0.0,0.0,0.0,0.0,0.0,0.0,0.0,0.0,0.0,1.0,0.0,0.0,0.0,0.0,0.0,0.0,0.0,0.0,0.0,0.0,0.0,0.0,1.0,0.0,0.0,0.0,0.0,0.0,0.0,0.0,0.0,0.0,0.0,0.0,0.0,1.0,0.0,0.0,0.0,0.0,0.0,0.0,0.0,0.0,0.0,0.0,0.0,0.0,1.0,0.0,0.0,0.0,0.0,0.0,0.0,0.0,0.0,0.0,0.0,0.0,0.0,1.0,0,0,0,0,0,0,0,0,0,0,0,0,0,0,0,0,0,0,0,0,0,0,0,0,0,0,0,0,0,0,0,0,0,0,0,0
1777291189.6496685,9854,1777291185.0182815,1777291184.9566047,1777291185.6969376,0,0,61.676740646362305,-678.6561012268066,1,1,0.0,0.0,0.0,0.0,0.0,0.0,0.0,0.0,0.0,0.0,0.0,0.0,0.0,0.0,0.0,0.0,0.0,0.0,0.0,0.0,0.0,0.0,0.0,0.0,0.0,0.0,0.0,753.37890625,572.201416015625,1126.6380615234375,1003.1732788085938,601.39501953125,1125.9873046875,797.72705078125,391.7688903808594,1152.5032958984375,958.8621826171875,392.5946044921875,1152.962158203125,681.3651733398438,533.57666015625,879.4713745117188,694.4279174804688,637.7615356445312,639.9454956054688,689.6829833984375,534.2648315429688,506.6972351074219,714.2015380859375,455.416015625,323.1514892578125,800.4614868164062,355.8064880371094,274.9938049316406,691.736328125,590.9855346679688,197.34959411621094,1054.420654296875,544.2246704101562,800.8781127929688,1000.2758178710938,502.0948486328125,569.0423583984375,1010.298583984375,480.8434143066406,433.4540100097656,960.6879272460938,446.20660400390625,225.01332092285156,896.0055541992188,366.6884765625,167.32122802734375,937.7402954101562,629.7500610351562,177.6727752685547,0.0,0.0,0.0,0.0,0.0,0.0,0.0,0.0,0.0,0.0,0.0,0.0,1.0,0.8996,9.6564,104.1729,-1025.3296,-484.375,1687.9272,-1.4117,-121.6461,-2.4005,0.0123,-0.873,0.0005,0.4876,0.0,0.0,0.0,0.0,0.0,0.0,0.0,0.0,0.0,0.0,0.0,0.0,1.0,0.0,0.0,0.0,0.0,0.0,0.0,0.0,0.0,0.0,0.0,0.0,0.0,1.0,0.0,0.0,0.0,0.0,0.0,0.0,0.0,0.0,0.0,0.0,0.0,0.0,1.0,0.0,0.0,0.0,0.0,0.0,0.0,0.0,0.0,0.0,0.0,0.0,0.0,1.0,0.0,0.0,0.0,0.0,0.0,0.0,0.0,0.0,0.0,0.0,0.0,0.0,1.0,0,0,0,0,0,0,0,0,0,0,0,0,0,0,0,0,0,0,0,0,0,0,0,0,0,0,0,0,0,0,0,0,0,0,0,0
1777291189.6496685,9855,1777291185.0203795,1777291184.9566047,1777291185.6969376,0,0,63.774824142456055,-676.5580177307129,1,1,0.0,0.0,0.0,0.0,0.0,0.0,0.0,0.0,0.0,0.0,0.0,0.0,0.0,0.0,0.0,0.0,0.0,0.0,0.0,0.0,0.0,0.0,0.0,0.0,0.0,0.0,0.0,753.5802612304688,570.8374633789062,1126.919921875,1003.3828735351562,600.1618041992188,1125.7481689453125,798.0635986328125,390.4407958984375,1153.0860595703125,959.1918334960938,391.4158020019531,1153.28515625,682.179931640625,530.985107421875,879.8673706054688,694.9215698242188,638.2218017578125,640.737060546875,689.162841796875,540.1201782226562,502.3874206542969,712.748046875,469.787353515625,315.3145751953125,798.910888671875,372.8772277832031,261.3752136230469,689.3233642578125,611.4623413085938,196.1582489013672,1054.2288818359375,541.1773071289062,800.4803466796875,1000.1604614257812,497.1213684082031,568.9652099609375,1010.1922607421875,474.9166564941406,433.4961242675781,960.6160278320312,438.8177490234375,225.29806518554688,896.1489868164062,359.0743713378906,167.4910430908203,937.8906860351562,622.11572265625,177.58531188964844,0.0,0.0,0.0,0.0,0.0,0.0,0.0,0.0,0.0,0.0,0.0,0.0,1.0,0.8996,9.6564,104.1729,-1025.3296,-484.375,1687.9272,-1.4117,-121.6461,-2.4005,0.0123,-0.873,0.0005,0.4876,0.0,0.0,0.0,0.0,0.0,0.0,0.0,0.0,0.0,0.0,0.0,0.0,1.0,0.0,0.0,0.0,0.0,0.0,0.0,0.0,0.0,0.0,0.0,0.0,0.0,1.0,0.0,0.0,0.0,0.0,0.0,0.0,0.0,0.0,0.0,0.0,0.0,0.0,1.0,0.0,0.0,0.0,0.0,0.0,0.0,0.0,0.0,0.0,0.0,0.0,0.0,1.0,0.0,0.0,0.0,0.0,0.0,0.0,0.0,0.0,0.0,0.0,0.0,0.0,1.0,0,0,0,0,0,0,0,0,0,0,0,0,0,0,0,0,0,0,0,0,0,0,0,0,0,0,0,0,0,0,0,0,0,0,0,0
1777291189.6496685,9856,1777291185.0374303,1777291185.0374303,1777291185.6969376,0,0,0.0,-659.5072746276855,1,1,0.0,0.0,0.0,0.0,0.0,0.0,0.0,0.0,0.0,0.0,0.0,0.0,0.0,0.0,0.0,0.0,0.0,0.0,0.0,0.0,0.0,0.0,0.0,0.0,0.0,0.0,0.0,753.7163696289062,569.5316772460938,1127.0850830078125,1003.5323486328125,598.9537963867188,1125.40869140625,798.308349609375,389.1759948730469,1153.5723876953125,959.428466796875,390.2686462402344,1153.537841796875,682.916259765625,528.2749633789062,880.02294921875,695.4575805664062,638.182373046875,641.1634521484375,688.5654907226562,545.96533203125,497.8006286621094,711.1368408203125,484.6840515136719,307.4880065917969,797.3380126953125,390.7350769042969,247.91189575195312,686.8909301757812,632.1386108398438,195.2481689453125,1053.985595703125,538.1316528320312,800.0286254882812,1000.0177001953125,492.1929626464844,568.853515625,1010.0614624023438,469.01666259765625,433.5169372558594,960.5431518554688,431.433349609375,225.5797119140625,896.283447265625,351.4621887207031,167.64927673339844,938.05224609375,614.4805297851562,177.50685119628906,0.0,0.0,0.0,0.0,0.0,0.0,0.0,0.0,0.0,0.0,0.0,0.0,1.0,0.8996,9.6564,-0.7082,0.1221,-0.3662,-0.1221,94.1748,-5.3339,-175.9515,0.0575,0.73,-0.6809,-0.01,0.0,0.0,0.0,0.0,0.0,0.0,0.0,0.0,0.0,0.0,0.0,0.0,1.0,0.0,0.0,0.0,0.0,0.0,0.0,0.0,0.0,0.0,0.0,0.0,0.0,1.0,0.0,0.0,0.0,0.0,0.0,0.0,0.0,0.0,0.0,0.0,0.0,0.0,1.0,0.0,0.0,0.0,0.0,0.0,0.0,0.0,0.0,0.0,0.0,0.0,0.0,1.0,0.0,0.0,0.0,0.0,0.0,0.0,0.0,0.0,0.0,0.0,0.0,0.0,1.0,0,0,0,0,0,0,0,0,0,0,0,0,0,0,0,0,0,0,0,0,0,0,0,0,0,0,0,0,0,0,0,0,0,0,0,0
1777291189.6496685,9857,1777291185.0405593,1777291185.0374303,1777291185.6969376,0,0,3.1290054321289062,-656.3782691955566,1,1,0.0,0.0,0.0,0.0,0.0,0.0,0.0,0.0,0.0,0.0,0.0,0.0,0.0,0.0,0.0,0.0,0.0,0.0,0.0,0.0,0.0,0.0,0.0,0.0,0.0,0.0,0.0,753.7888793945312,568.2949829101562,1127.127197265625,1003.6227416992188,597.7818603515625,1124.969482421875,798.4612426757812,387.9842529296875,1153.954345703125,959.572509765625,389.1636657714844,1153.71533203125,683.5350341796875,525.5062255859375,879.9509887695312,696.0142211914062,637.6598510742188,641.2289428710938,687.899169921875,551.800537109375,493.0187072753906,709.416015625,500.0680236816406,299.8219909667969,795.7646484375,409.29449462890625,234.83741760253906,684.5106811523438,652.9196166992188,194.74375915527344,1053.6939697265625,535.0994873046875,799.525146484375,999.8529052734375,487.3133850097656,568.7073364257812,1009.9119873046875,463.14996337890625,433.5166015625,960.4722290039062,424.0553894042969,225.85992431640625,896.4124755859375,343.8508605957031,167.8018798828125,938.2256469726562,606.84716796875,177.4403076171875,0.0,0.0,0.0,0.0,0.0,0.0,0.0,0.0,0.0,0.0,0.0,0.0,1.0,0.8996,9.6564,-0.7082,0.1221,-0.3662,-0.1221,94.1748,-5.3339,-175.9515,0.0575,0.73,-0.6809,-0.01,0.0,0.0,0.0,0.0,0.0,0.0,0.0,0.0,0.0,0.0,0.0,0.0,1.0,0.0,0.0,0.0,0.0,0.0,0.0,0.0,0.0,0.0,0.0,0.0,0.0,1.0,0.0,0.0,0.0,0.0,0.0,0.0,0.0,0.0,0.0,0.0,0.0,0.0,1.0,0.0,0.0,0.0,0.0,0.0,0.0,0.0,0.0,0.0,0.0,0.0,0.0,1.0,0.0,0.0,0.0,0.0,0.0,0.0,0.0,0.0,0.0,0.0,0.0,0.0,1.0,0,0,0,0,0,0,0,0,0,0,0,0,0,0,0,0,0,0,0,0,0,0,0,0,0,0,0,0,0,0,0,0,0,0,0,0
1777291189.6496685,9858,1777291185.0546484,1777291185.0374303,1777291185.6969376,0,0,17.21811294555664,-642.2891616821289,1,1,0.0,0.0,0.0,0.0,0.0,0.0,0.0,0.0,0.0,0.0,0.0,0.0,0.0,0.0,0.0,0.0,0.0,0.0,0.0,0.0,0.0,0.0,0.0,0.0,0.0,0.0,0.0,753.799072265625,567.1385498046875,1127.04248046875,1003.6548461914062,596.65673828125,1124.432861328125,798.5220336914062,386.8750915527344,1154.2252197265625,959.624267578125,388.1111145019531,1153.813232421875,684.0030517578125,522.733154296875,879.6664428710938,696.5713500976562,636.6796875,640.9450073242188,687.1707153320312,557.6199340820312,488.1283264160156,707.6326293945312,515.8784790039062,292.4601745605469,794.1682739257812,428.4365539550781,222.35191345214844,682.29345703125,673.7172241210938,194.77415466308594,1053.3577880859375,532.0924682617188,798.97314453125,999.67041015625,482.4850158691406,568.5274047851562,1009.7487182617188,457.3218994140625,433.4952697753906,960.4046630859375,416.68548583984375,226.13999938964844,896.5404663085938,336.2388610839844,167.9551239013672,938.4094848632812,599.2175903320312,177.38607788085938,0.0,0.0,0.0,0.0,0.0,0.0,0.0,0.0,0.0,0.0,0.0,0.0,1.0,0.8996,9.6564,-0.7082,0.1221,-0.3662,-0.1221,94.1748,-5.3339,-175.9515,0.0575,0.73,-0.6809,-0.01,0.0,0.0,0.0,0.0,0.0,0.0,0.0,0.0,0.0,0.0,0.0,0.0,1.0,0.0,0.0,0.0,0.0,0.0,0.0,0.0,0.0,0.0,0.0,0.0,0.0,1.0,0.0,0.0,0.0,0.0,0.0,0.0,0.0,0.0,0.0,0.0,0.0,0.0,1.0,0.0,0.0,0.0,0.0,0.0,0.0,0.0,0.0,0.0,0.0,0.0,0.0,1.0,0.0,0.0,0.0,0.0,0.0,0.0,0.0,0.0,0.0,0.0,0.0,0.0,1.0,0,0,0,0,0,0,0,0,0,0,0,0,0,0,0,0,0,0,0,0,0,0,0,0,0,0,0,0,0,0,0,0,0,0,0,0
1777291189.6496685,9859,1777291185.088083,1777291185.0374303,1777291185.6969376,0,0,50.65274238586426,-608.8545322418213,1,1,0.0,0.0,0.0,0.0,0.0,0.0,0.0,0.0,0.0,0.0,0.0,0.0,0.0,0.0,0.0,0.0,0.0,0.0,0.0,0.0,0.0,0.0,0.0,0.0,0.0,0.0,0.0,753.747802734375,566.0733642578125,1126.829833984375,1003.629150390625,595.5889282226562,1123.803466796875,798.4903564453125,385.8575439453125,1154.3797607421875,959.5841064453125,387.1211242675781,1153.8275146484375,684.2951049804688,520.00244140625,879.1854858398438,697.1116943359375,635.2772827148438,640.329833984375,686.3858642578125,563.410400390625,483.2188720703125,705.8306884765625,532.026611328125,285.53509521484375,792.4913940429688,448.01226806640625,210.61181640625,680.3817138671875,694.444580078125,195.46751403808594,1052.98046875,529.121826171875,798.37646484375,999.4732666015625,477.7092590332031,568.3150634765625,1009.5751342773438,451.53662109375,433.4532470703125,960.3409423828125,409.3249206542969,226.42111206054688,896.6719970703125,328.62457275390625,168.1144561767578,938.6006469726562,591.5924682617188,177.34156799316406,0.0,0.0,0.0,0.0,0.0,0.0,0.0,0.0,0.0,0.0,0.0,0.0,1.0,0.8996,9.6564,-0.7082,0.1221,-0.3662,-0.1221,94.1748,-5.3339,-175.9515,0.0575,0.73,-0.6809,-0.01,0.0,0.0,0.0,0.0,0.0,0.0,0.0,0.0,0.0,0.0,0.0,0.0,1.0,0.0,0.0,0.0,0.0,0.0,0.0,0.0,0.0,0.0,0.0,0.0,0.0,1.0,0.0,0.0,0.0,0.0,0.0,0.0,0.0,0.0,0.0,0.0,0.0,0.0,1.0,0.0,0.0,0.0,0.0,0.0,0.0,0.0,0.0,0.0,0.0,0.0,0.0,1.0,0.0,0.0,0.0,0.0,0.0,0.0,0.0,0.0,0.0,0.0,0.0,0.0,1.0,0,0,0,0,0,0,0,0,0,0,0,0,0,0,0,0,0,0,0,0,0,0,0,0,0,0,0,0,0,0,0,0,0,0,0,0
1777291189.6496685,9862,1777291185.1038892,1777291185.0374303,1777291185.6969376,1,2,66.45894050598145,-593.0483341217041,1,1,0.0,0.0,0.0,0.0,0.0,0.0,0.0,0.0,0.0,0.0,0.0,0.0,0.0,0.0,0.0,0.0,0.0,0.0,0.0,0.0,0.0,0.0,0.0,0.0,0.0,0.0,0.0,753.2276000976562,563.525390625,1125.4501953125,1003.2030639648438,592.8282470703125,1121.4239501953125,797.8381958007812,383.4348449707031,1154.1162109375,958.914306640625,384.62060546875,1153.33984375,684.0033569335938,512.4237060546875,876.7279663085938,698.5186157226562,629.03759765625,636.7626953125,683.7659301757812,580.3487548828125,469.2434387207031,700.6912841796875,581.1201782226562,268.4288024902344,786.267333984375,507.4650573730469,180.801513671875,678.048828125,755.1198120117188,202.49957275390625,1051.6298828125,520.5386352539062,796.359130859375,998.8060913085938,463.7042541503906,567.5088500976562,1009.0081787109375,434.4633483886719,433.2181091308594,960.1707153320312,387.3063049316406,227.2885284423828,897.1162109375,305.75390625,168.6609344482422,939.1753540039062,568.7384643554688,177.21209716796875,0.0,0.0,0.0,0.0,0.0,0.0,0.0,0.0,0.0,0.0,0.0,0.0,1.0,0.8996,9.6564,-0.7082,0.1221,-0.3662,-0.1221,94.1748,-5.3339,-175.9515,0.0575,0.73,-0.6809,-0.01,0.0,0.0,0.0,0.0,0.0,0.0,0.0,0.0,0.0,0.0,0.0,0.0,1.0,0.0,0.0,0.0,0.0,0.0,0.0,0.0,0.0,0.0,0.0,0.0,0.0,1.0,0.0,0.0,0.0,0.0,0.0,0.0,0.0,0.0,0.0,0.0,0.0,0.0,1.0,0.0,0.0,0.0,0.0,0.0,0.0,0.0,0.0,0.0,0.0,0.0,0.0,1.0,0.0,0.0,0.0,0.0,0.0,0.0,0.0,0.0,0.0,0.0,0.0,0.0,1.0,0,0,0,0,0,0,0,0,0,0,0,0,0,0,0,0,0,0,0,0,0,0,0,0,0,0,0,0,0,0,0,0,0,0,0,0
1777291189.6496685,9863,1777291185.1103225,1777291185.0374303,1777291185.6969376,0,0,72.8921890258789,-586.6150856018066,1,1,0.0,0.0,0.0,0.0,0.0,0.0,0.0,0.0,0.0,0.0,0.0,0.0,0.0,0.0,0.0,0.0,0.0,0.0,0.0,0.0,0.0,0.0,0.0,0.0,0.0,0.0,0.0,752.9304809570312,562.9212646484375,1124.763671875,1002.9417114257812,592.0863037109375,1120.495361328125,797.4345703125,382.8600158691406,1153.784423828125,958.5089111328125,383.97216796875,1152.994873046875,683.5256958007812,510.19744873046875,875.6254272460938,698.900634765625,626.4920043945312,635.1091918945312,682.84716796875,585.717529296875,465.0859680175781,699.1787719726562,597.0812377929688,264.1672058105469,783.6520385742188,526.7752075195312,172.84576416015625,678.8350830078125,774.3338012695312,206.58856201171875,1051.11083984375,517.8245849609375,795.6248168945312,998.5560913085938,459.1458740234375,567.1974487304688,1008.8042602539062,428.8724365234375,433.11474609375,960.1200561523438,379.9902038574219,227.59642028808594,897.2844848632812,298.1181945800781,168.8712921142578,939.3583984375,561.122802734375,177.15374755859375,0.0,0.0,0.0,0.0,0.0,0.0,0.0,0.0,0.0,0.0,0.0,0.0,1.0,0.8996,9.6564,-0.7082,0.1221,-0.3662,-0.1221,94.1748,-5.3339,-175.9515,0.0575,0.73,-0.6809,-0.01,0.0,0.0,0.0,0.0,0.0,0.0,0.0,0.0,0.0,0.0,0.0,0.0,1.0,0.0,0.0,0.0,0.0,0.0,0.0,0.0,0.0,0.0,0.0,0.0,0.0,1.0,0.0,0.0,0.0,0.0,0.0,0.0,0.0,0.0,0.0,0.0,0.0,0.0,1.0,0.0,0.0,0.0,0.0,0.0,0.0,0.0,0.0,0.0,0.0,0.0,0.0,1.0,0.0,0.0,0.0,0.0,0.0,0.0,0.0,0.0,0.0,0.0,0.0,0.0,1.0,0,0,0,0,0,0,0,0,0,0,0,0,0,0,0,0,0,0,0,0,0,0,0,0,0,0,0,0,0,0,0,0,0,0,0,0
1777291189.6496685,9864,1777291185.1234398,1777291185.1234398,1777291185.6969376,0,0,0.0,-573.4977722167969,1,1,0.0,0.0,0.0,0.0,0.0,0.0,0.0,0.0,0.0,0.0,0.0,0.0,0.0,0.0,0.0,0.0,0.0,0.0,0.0,0.0,0.0,0.0,0.0,0.0,0.0,0.0,0.0,752.5696411132812,562.4515991210938,1123.9791259765625,1002.6179809570312,591.4471435546875,1119.5155029296875,796.937744140625,382.4105224609375,1153.3341064453125,958.012939453125,383.42877197265625,1152.5584716796875,682.8829956054688,508.1636657714844,874.4087524414062,699.241943359375,623.836669921875,633.2847900390625,681.9417724609375,590.8588256835938,461.26904296875,697.8212890625,612.4642944335938,260.6524963378906,780.7924194335938,545.3936767578125,165.94049072265625,680.506103515625,792.6972045898438,211.42623901367188,1050.555908203125,515.2034912109375,794.8665771484375,998.2882080078125,454.6448669433594,566.8743896484375,1008.5910034179688,423.3340148925781,433.0086669921875,960.0723266601562,372.68768310546875,227.92225646972656,897.4635009765625,290.4761657714844,169.09776306152344,939.5369262695312,553.5057373046875,177.08384704589844,0.0,0.0,0.0,0.0,0.0,0.0,0.0,0.0,0.0,0.0,0.0,0.0,1.0,0.9044,9.6517,-0.7082,0.1831,-0.3662,-0.1221,94.1748,-5.3339,-175.9515,0.0575,0.73,-0.6809,-0.01,0.0,0.0,0.0,0.0,0.0,0.0,0.0,0.0,0.0,0.0,0.0,0.0,1.0,0.0,0.0,0.0,0.0,0.0,0.0,0.0,0.0,0.0,0.0,0.0,0.0,1.0,0.0,0.0,0.0,0.0,0.0,0.0,0.0,0.0,0.0,0.0,0.0,0.0,1.0,0.0,0.0,0.0,0.0,0.0,0.0,0.0,0.0,0.0,0.0,0.0,0.0,1.0,0.0,0.0,0.0,0.0,0.0,0.0,0.0,0.0,0.0,0.0,0.0,0.0,1.0,0,0,0,0,0,0,0,0,0,0,0,0,0,0,0,0,0,0,0,0,0,0,0,0,0,0,0,0,0,0,0,0,0,0,0,0
1777291189.6496685,9865,1777291185.126463,1777291185.1234398,1777291185.6969376,0,0,3.0231475830078125,-570.4746246337891,1,1,0.0,0.0,0.0,0.0,0.0,0.0,0.0,0.0,0.0,0.0,0.0,0.0,0.0,0.0,0.0,0.0,0.0,0.0,0.0,0.0,0.0,0.0,0.0,0.0,0.0,0.0,0.0,752.1433715820312,562.1217041015625,1123.108642578125,1002.2297973632812,590.9179077148438,1118.49560546875,796.3478393554688,382.0902099609375,1152.770263671875,957.4268798828125,382.9964599609375,1152.0323486328125,682.1005249023438,506.3478698730469,873.0950317382812,699.549072265625,621.151123046875,631.3279418945312,681.0797729492188,595.7086181640625,457.81829833984375,696.6537475585938,627.0195922851562,257.8463439941406,777.7733764648438,563.0202026367188,160.11001586914062,683.0336303710938,809.9560546875,216.8190460205078,1049.9617919921875,512.6875610351562,794.0886840820312,997.9985961914062,450.20367431640625,566.5470581054688,1008.3663940429688,417.8492126464844,432.9081115722656,960.0269165039062,365.4002380371094,228.27301025390625,897.65283203125,282.82843017578125,169.34092712402344,939.7125244140625,545.885986328125,177.00289916992188,0.0,0.0,0.0,0.0,0.0,0.0,0.0,0.0,0.0,0.0,0.0,0.0,1.0,0.9044,9.6517,-0.7082,0.1831,-0.3662,-0.1221,94.1748,-5.3339,-175.9515,0.0575,0.73,-0.6809,-0.01,0.0,0.0,0.0,0.0,0.0,0.0,0.0,0.0,0.0,0.0,0.0,0.0,1.0,0.0,0.0,0.0,0.0,0.0,0.0,0.0,0.0,0.0,0.0,0.0,0.0,1.0,0.0,0.0,0.0,0.0,0.0,0.0,0.0,0.0,0.0,0.0,0.0,0.0,1.0,0.0,0.0,0.0,0.0,0.0,0.0,0.0,0.0,0.0,0.0,0.0,0.0,1.0,0.0,0.0,0.0,0.0,0.0,0.0,0.0,0.0,0.0,0.0,0.0,0.0,1.0,0,0,0,0,0,0,0,0,0,0,0,0,0,0,0,0,0,0,0,0,0,0,0,0,0,0,0,0,0,0,0,0,0,0,0,0
1777291189.6496685,9866,1777291185.1424954,1777291185.1234398,1777291185.6969376,0,0,19.055604934692383,-554.4421672821045,1,1,0.0,0.0,0.0,0.0,0.0,0.0,0.0,0.0,0.0,0.0,0.0,0.0,0.0,0.0,0.0,0.0,0.0,0.0,0.0,0.0,0.0,0.0,0.0,0.0,0.0,0.0,0.0,751.6495971679688,561.9353637695312,1122.165283203125,1001.7747802734375,590.5048217773438,1117.447021484375,795.6650390625,381.90185546875,1152.099365234375,956.7510375976562,382.6802978515625,1151.41943359375,681.2078247070312,504.77642822265625,871.7015380859375,699.8306274414062,618.5146484375,629.2766723632812,680.2953491210938,600.1990966796875,454.7377014160156,695.7125244140625,640.4964599609375,255.67503356933594,774.71923828125,579.3356323242188,155.35787963867188,686.3302001953125,825.8424682617188,222.49871826171875,1049.3240966796875,510.28912353515625,793.2952270507812,997.6822509765625,445.8255920410156,566.223388671875,1008.1273803710938,412.418701171875,432.8224792480469,959.9825439453125,358.1294860839844,228.65638732910156,897.85107421875,275.1761169433594,169.60003662109375,939.8867797851562,538.2626953125,176.9126434326172,0.0,0.0,0.0,0.0,0.0,0.0,0.0,0.0,0.0,0.0,0.0,0.0,1.0,0.9044,9.6517,-0.7082,0.1831,-0.3662,-0.1221,94.1748,-5.3339,-175.9515,0.0575,0.73,-0.6809,-0.01,0.0,0.0,0.0,0.0,0.0,0.0,0.0,0.0,0.0,0.0,0.0,0.0,1.0,0.0,0.0,0.0,0.0,0.0,0.0,0.0,0.0,0.0,0.0,0.0,0.0,1.0,0.0,0.0,0.0,0.0,0.0,0.0,0.0,0.0,0.0,0.0,0.0,0.0,1.0,0.0,0.0,0.0,0.0,0.0,0.0,0.0,0.0,0.0,0.0,0.0,0.0,1.0,0.0,0.0,0.0,0.0,0.0,0.0,0.0,0.0,0.0,0.0,0.0,0.0,1.0,0,0,0,0,0,0,0,0,0,0,0,0,0,0,0,0,0,0,0,0,0,0,0,0,0,0,0,0,0,0,0,0,0,0,0,0
1777291189.6496685,9867,1777291185.1470098,1777291185.1234398,1777291185.6969376,0,0,23.57006072998047,-549.9277114868164,1,1,0.0,0.0,0.0,0.0,0.0,0.0,0.0,0.0,0.0,0.0,0.0,0.0,0.0,0.0,0.0,0.0,0.0,0.0,0.0,0.0,0.0,0.0,0.0,0.0,0.0,0.0,0.0,751.0858154296875,561.8952026367188,1121.1634521484375,1001.2501831054688,590.213134765625,1116.3819580078125,794.8897705078125,381.8470764160156,1151.329833984375,955.9860229492188,382.484130859375,1150.72412109375,680.2374267578125,503.47613525390625,870.2461547851562,700.095947265625,616.003173828125,627.1674194335938,679.6240844726562,604.2620849609375,452.0101013183594,695.0336303710938,652.656494140625,254.03421020507812,771.780029296875,594.0137329101562,151.65077209472656,690.2598266601562,840.0936889648438,228.13851928710938,1048.636962890625,508.02056884765625,792.4902954101562,997.3333740234375,441.5149230957031,565.9118041992188,1007.8699340820312,407.04278564453125,432.761962890625,959.936279296875,350.8769226074219,229.08050537109375,898.0550537109375,267.5209045410156,169.87246704101562,940.061279296875,530.6356201171875,176.81536865234375,0.0,0.0,0.0,0.0,0.0,0.0,0.0,0.0,0.0,0.0,0.0,0.0,1.0,0.9044,9.6517,-0.7082,0.1831,-0.3662,-0.1221,94.1748,-5.3339,-175.9515,0.0575,0.73,-0.6809,-0.01,0.0,0.0,0.0,0.0,0.0,0.0,0.0,0.0,0.0,0.0,0.0,0.0,1.0,0.0,0.0,0.0,0.0,0.0,0.0,0.0,0.0,0.0,0.0,0.0,0.0,1.0,0.0,0.0,0.0,0.0,0.0,0.0,0.0,0.0,0.0,0.0,0.0,0.0,1.0,0.0,0.0,0.0,0.0,0.0,0.0,0.0,0.0,0.0,0.0,0.0,0.0,1.0,0.0,0.0,0.0,0.0,0.0,0.0,0.0,0.0,0.0,0.0,0.0,0.0,1.0,0,0,0,0,0,0,0,0,0,0,0,0,0,0,0,0,0,0,0,0,0,0,0,0,0,0,0,0,0,0,0,0,0,0,0,0
1777291189.6496685,9868,1777291185.161623,1777291185.1234398,1777291185.6969376,0,0,38.18321228027344,-535.3145599365234,1,1,0.0,0.0,0.0,0.0,0.0,0.0,0.0,0.0,0.0,0.0,0.0,0.0,0.0,0.0,0.0,0.0,0.0,0.0,0.0,0.0,0.0,0.0,0.0,0.0,0.0,0.0,0.0,750.4493408203125,562.0022583007812,1120.118408203125,1000.6529541015625,590.0471801757812,1115.3123779296875,794.022705078125,381.92626953125,1150.471923828125,955.1326293945312,382.4104919433594,1149.9525146484375,679.2223510742188,502.4730529785156,868.7471313476562,700.3538818359375,613.6862182617188,625.0343017578125,679.10107421875,607.8336791992188,449.5996398925781,694.6487426757812,663.2876586914062,252.79661560058594,769.1131591796875,606.7396240234375,148.90768432617188,694.6541748046875,852.4730834960938,233.3777313232422,1047.893798828125,505.89398193359375,791.6776733398438,996.945068359375,437.2777404785156,565.62060546875,1007.5889892578125,401.72161865234375,432.737060546875,959.8839111328125,343.6437072753906,229.55357360839844,898.2594604492188,259.8648681640625,170.1540985107422,940.2376098632812,523.0059204101562,176.71295166015625,0.0,0.0,0.0,0.0,0.0,0.0,0.0,0.0,0.0,0.0,0.0,0.0,1.0,0.9044,9.6517,-0.7082,0.1831,-0.3662,-0.1221,94.1748,-5.3339,-175.9515,0.0575,0.73,-0.6809,-0.01,0.0,0.0,0.0,0.0,0.0,0.0,0.0,0.0,0.0,0.0,0.0,0.0,1.0,0.0,0.0,0.0,0.0,0.0,0.0,0.0,0.0,0.0,0.0,0.0,0.0,1.0,0.0,0.0,0.0,0.0,0.0,0.0,0.0,0.0,0.0,0.0,0.0,0.0,1.0,0.0,0.0,0.0,0.0,0.0,0.0,0.0,0.0,0.0,0.0,0.0,0.0,1.0,0.0,0.0,0.0,0.0,0.0,0.0,0.0,0.0,0.0,0.0,0.0,0.0,1.0,0,0,0,0,0,0,0,0,0,0,0,0,0,0,0,0,0,0,0,0,0,0,0,0,0,0,0,0,0,0,0,0,0,0,0,0
1777291189.6496685,9869,1777291185.1636329,1777291185.1234398,1777291185.6969376,0,0,40.19308090209961,-533.3046913146973,1,1,0.0,0.0,0.0,0.0,0.0,0.0,0.0,0.0,0.0,0.0,0.0,0.0,0.0,0.0,0.0,0.0,0.0,0.0,0.0,0.0,0.0,0.0,0.0,0.0,0.0,0.0,0.0,749.7369995117188,562.2562255859375,1119.0458984375,999.97998046875,590.0100708007812,1114.2508544921875,793.0648193359375,382.1387023925781,1149.5374755859375,954.191650390625,382.46051025390625,1149.1116943359375,678.1947631835938,501.790771484375,867.2232055664062,700.6118774414062,611.6235961914062,622.9080200195312,678.7579956054688,610.8591918945312,447.45635986328125,694.5806274414062,672.218994140625,251.8228759765625,766.862060546875,617.2333984375,147.0040283203125,699.3302612304688,862.7916259765625,237.8521728515625,1047.0880126953125,503.9210510253906,790.8609008789062,996.509521484375,433.1224060058594,565.3576049804688,1007.2783203125,396.4556884765625,432.7582092285156,959.819580078125,336.4306640625,230.08399963378906,898.4566040039062,252.21070861816406,170.44039916992188,940.4176635742188,515.3765869140625,176.60641479492188,0.0,0.0,0.0,0.0,0.0,0.0,0.0,0.0,0.0,0.0,0.0,0.0,1.0,0.9044,9.6517,-0.7082,0.1831,-0.3662,-0.1221,94.1748,-5.3339,-175.9515,0.0575,0.73,-0.6809,-0.01,0.0,0.0,0.0,0.0,0.0,0.0,0.0,0.0,0.0,0.0,0.0,0.0,1.0,0.0,0.0,0.0,0.0,0.0,0.0,0.0,0.0,0.0,0.0,0.0,0.0,1.0,0.0,0.0,0.0,0.0,0.0,0.0,0.0,0.0,0.0,0.0,0.0,0.0,1.0,0.0,0.0,0.0,0.0,0.0,0.0,0.0,0.0,0.0,0.0,0.0,0.0,1.0,0.0,0.0,0.0,0.0,0.0,0.0,0.0,0.0,0.0,0.0,0.0,0.0,1.0,0,0,0,0,0,0,0,0,0,0,0,0,0,0,0,0,0,0,0,0,0,0,0,0,0,0,0,0,0,0,0,0,0,0,0,0
1777291189.6496685,9870,1777291185.178858,1777291185.1234398,1777291185.6969376,0,0,55.41825294494629,-518.0795192718506,1,1,0.0,0.0,0.0,0.0,0.0,0.0,0.0,0.0,0.0,0.0,0.0,0.0,0.0,0.0,0.0,0.0,0.0,0.0,0.0,0.0,0.0,0.0,0.0,0.0,0.0,0.0,0.0,748.94580078125,562.6553955078125,1117.9620361328125,999.2278442382812,590.1036987304688,1113.209716796875,792.0173950195312,382.482421875,1148.5400390625,953.1644287109375,382.6339111328125,1148.21044921875,677.18359375,501.4483947753906,865.6932373046875,700.8750610351562,609.8634033203125,620.8156127929688,678.6207275390625,613.2982788085938,445.5224304199219,694.8378295898438,679.333740234375,250.97425842285156,765.135009765625,625.2749633789062,145.79257202148438,704.1064453125,870.9262084960938,241.22686767578125,1046.213134765625,502.113037109375,790.0431518554688,996.0185546875,429.0608825683594,565.1299438476562,1006.9306030273438,391.24664306640625,432.8357849121094,959.7361450195312,329.2382507324219,230.6805419921875,898.6366577148438,244.56192016601562,170.72860717773438,940.603271484375,507.75177001953125,176.49542236328125,0.0,0.0,0.0,0.0,0.0,0.0,0.0,0.0,0.0,0.0,0.0,0.0,1.0,0.9044,9.6517,-0.7082,0.1831,-0.3662,-0.1221,94.1748,-5.3339,-175.9515,0.0575,0.73,-0.6809,-0.01,0.0,0.0,0.0,0.0,0.0,0.0,0.0,0.0,0.0,0.0,0.0,0.0,1.0,0.0,0.0,0.0,0.0,0.0,0.0,0.0,0.0,0.0,0.0,0.0,0.0,1.0,0.0,0.0,0.0,0.0,0.0,0.0,0.0,0.0,0.0,0.0,0.0,0.0,1.0,0.0,0.0,0.0,0.0,0.0,0.0,0.0,0.0,0.0,0.0,0.0,0.0,1.0,0.0,0.0,0.0,0.0,0.0,0.0,0.0,0.0,0.0,0.0,0.0,0.0,1.0,0,0,0,0,0,0,0,0,0,0,0,0,0,0,0,0,0,0,0,0,0,0,0,0,0,0,0,0,0,0,0,0,0,0,0,0
1777291189.6496685,9871,1777291185.182857,1777291185.1234398,1777291185.6969376,0,0,59.4172477722168,-514.0805244445801,1,1,0.0,0.0,0.0,0.0,0.0,0.0,0.0,0.0,0.0,0.0,0.0,0.0,0.0,0.0,0.0,0.0,0.0,0.0,0.0,0.0,0.0,0.0,0.0,0.0,0.0,0.0,0.0,748.0723876953125,563.1964721679688,1116.883056640625,998.3931884765625,590.3285522460938,1112.2010498046875,790.8821411132812,382.9542236328125,1147.494384765625,952.0525512695312,382.92877197265625,1147.259033203125,676.2131958007812,501.45855712890625,864.1760864257812,701.1456298828125,608.4400024414062,618.7804565429688,678.7057495117188,615.1290283203125,443.7391357421875,695.4099731445312,684.580322265625,250.1259002685547,763.9864501953125,630.7304077148438,145.12913513183594,708.8135986328125,876.8346557617188,243.228515625,1045.2637939453125,500.4808044433594,789.2276611328125,995.4638671875,425.1097412109375,564.9439086914062,1006.5380249023438,386.098388671875,432.97998046875,959.6259765625,322.0671081542969,231.3528594970703,898.7886352539062,236.92274475097656,171.0208282470703,940.7962036132812,500.1366882324219,176.3782958984375,0.0,0.0,0.0,0.0,0.0,0.0,0.0,0.0,0.0,0.0,0.0,0.0,1.0,0.9044,9.6517,-0.7082,0.1831,-0.3662,-0.1221,94.1748,-5.3339,-175.9515,0.0575,0.73,-0.6809,-0.01,0.0,0.0,0.0,0.0,0.0,0.0,0.0,0.0,0.0,0.0,0.0,0.0,1.0,0.0,0.0,0.0,0.0,0.0,0.0,0.0,0.0,0.0,0.0,0.0,0.0,1.0,0.0,0.0,0.0,0.0,0.0,0.0,0.0,0.0,0.0,0.0,0.0,0.0,1.0,0.0,0.0,0.0,0.0,0.0,0.0,0.0,0.0,0.0,0.0,0.0,0.0,1.0,0.0,0.0,0.0,0.0,0.0,0.0,0.0,0.0,0.0,0.0,0.0,0.0,1.0,0,0,0,0,0,0,0,0,0,0,0,0,0,0,0,0,0,0,0,0,0,0,0,0,0,0,0,0,0,0,0,0,0,0,0,0
1777291189.650726,9872,1777291185.198258,1777291185.198258,1777291185.6969376,0,0,0.0,-498.67963790893555,1,1,0.0,0.0,0.0,0.0,0.0,0.0,0.0,0.0,0.0,0.0,0.0,0.0,0.0,0.0,0.0,0.0,0.0,0.0,0.0,0.0,0.0,0.0,0.0,0.0,0.0,0.0,0.0,747.1139526367188,563.8748168945312,1115.825439453125,997.4724731445312,590.6834716796875,1111.23681640625,789.661376953125,383.5495910644531,1146.416748046875,950.8579711914062,383.341552734375,1146.2685546875,675.3018188476562,501.82537841796875,862.6900024414062,701.4224243164062,607.373291015625,616.8226318359375,679.0178833007812,616.3516235351562,442.0540771484375,696.2647705078125,687.9785766601562,249.1786346435547,763.4072875976562,633.5770874023438,144.8914031982422,713.3024291992188,880.56298828125,243.67459106445312,1044.236083984375,499.0353088378906,788.417724609375,994.8378295898438,421.2917785644531,564.8046875,1006.093017578125,381.01824951171875,433.20111083984375,959.481689453125,314.91864013671875,232.11219787597656,898.902099609375,229.2980499267578,171.32757568359375,940.9974365234375,492.5365905761719,176.2521209716797,0.0,0.0,0.0,0.0,0.0,0.0,0.0,0.0,0.0,0.0,0.0,0.0,1.0,0.9092,9.6564,-0.7034,0.1221,-0.4272,-0.1221,94.1748,-5.3339,-175.957,0.0575,0.73,-0.6809,-0.0101,0.0,0.0,0.0,0.0,0.0,0.0,0.0,0.0,0.0,0.0,0.0,0.0,1.0,0.0,0.0,0.0,0.0,0.0,0.0,0.0,0.0,0.0,0.0,0.0,0.0,1.0,0.0,0.0,0.0,0.0,0.0,0.0,0.0,0.0,0.0,0.0,0.0,0.0,1.0,0.0,0.0,0.0,0.0,0.0,0.0,0.0,0.0,0.0,0.0,0.0,0.0,1.0,0.0,0.0,0.0,0.0,0.0,0.0,0.0,0.0,0.0,0.0,0.0,0.0,1.0,0,0,0,0,0,0,0,0,0,0,0,0,0,0,0,0,0,0,0,0,0,0,0,0,0,0,0,0,0,0,0,0,0,0,0,0
1777291189.650726,9873,1777291185.2012138,1777291185.198258,1777291185.6969376,0,0,2.955913543701172,-495.7237243652344,1,1,0.0,0.0,0.0,0.0,0.0,0.0,0.0,0.0,0.0,0.0,0.0,0.0,0.0,0.0,0.0,0.0,0.0,0.0,0.0,0.0,0.0,0.0,0.0,0.0,0.0,0.0,0.0,746.0678100585938,564.6841430664062,1114.804931640625,996.462646484375,591.16552734375,1110.3284912109375,788.3577880859375,384.26275634765625,1145.32421875,949.5831298828125,383.86700439453125,1145.2518310546875,674.4610595703125,502.5433654785156,861.252685546875,701.7008056640625,606.6689453125,614.9592895507812,679.5470581054688,616.9904174804688,440.4271545410156,697.34814453125,689.6212158203125,248.0675811767578,763.3267822265625,633.921142578125,144.9875946044922,717.4471435546875,882.2449951171875,242.4955291748047,1043.1278076171875,497.78814697265625,787.6172485351562,994.1340942382812,417.6370849609375,564.7163696289062,1005.5891723632812,376.018798828125,433.5098571777344,959.297607421875,307.7958984375,232.9720916748047,898.9696655273438,221.69334411621094,171.67117309570312,941.2071533203125,484.95556640625,176.113525390625,0.0,0.0,0.0,0.0,0.0,0.0,0.0,0.0,0.0,0.0,0.0,0.0,1.0,0.9092,9.6564,-0.7034,0.1221,-0.4272,-0.1221,94.1748,-5.3339,-175.957,0.0575,0.73,-0.6809,-0.0101,0.0,0.0,0.0,0.0,0.0,0.0,0.0,0.0,0.0,0.0,0.0,0.0,1.0,0.0,0.0,0.0,0.0,0.0,0.0,0.0,0.0,0.0,0.0,0.0,0.0,1.0,0.0,0.0,0.0,0.0,0.0,0.0,0.0,0.0,0.0,0.0,0.0,0.0,1.0,0.0,0.0,0.0,0.0,0.0,0.0,0.0,0.0,0.0,0.0,0.0,0.0,1.0,0.0,0.0,0.0,0.0,0.0,0.0,0.0,0.0,0.0,0.0,0.0,0.0,1.0,0,0,0,0,0,0,0,0,0,0,0,0,0,0,0,0,0,0,0,0,0,0,0,0,0,0,0,0,0,0,0,0,0,0,0,0
1777291189.650726,9874,1777291185.2135746,1777291185.198258,1777291185.6969376,0,0,15.31672477722168,-483.36291313171387,1,1,0.0,0.0,0.0,0.0,0.0,0.0,0.0,0.0,0.0,0.0,0.0,0.0,0.0,0.0,0.0,0.0,0.0,0.0,0.0,0.0,0.0,0.0,0.0,0.0,0.0,0.0,0.0,744.9320678710938,565.6166381835938,1113.83740234375,995.3607177734375,591.7695922851562,1109.4871826171875,786.974609375,385.086669921875,1144.2344970703125,948.2308349609375,384.4980163574219,1144.22216796875,673.6951293945312,503.59649658203125,859.8807373046875,701.972412109375,606.3195190429688,613.2059936523438,680.266845703125,617.0942993164062,438.8343505859375,698.58740234375,689.6685180664062,246.7661590576172,763.6275634765625,632.0014038085938,145.35545349121094,721.1483154296875,882.0916137695312,239.74681091308594,1041.939208984375,496.7520446777344,786.8309936523438,993.3489379882812,414.1846008300781,564.681640625,1005.0225219726562,371.119384765625,433.9175720214844,959.071044921875,300.7048645019531,233.9490966796875,898.98974609375,214.114990234375,172.0880889892578,941.4243774414062,477.3958740234375,175.9597625732422,0.0,0.0,0.0,0.0,0.0,0.0,0.0,0.0,0.0,0.0,0.0,0.0,1.0,0.9092,9.6564,-0.7034,0.1221,-0.4272,-0.1221,94.1748,-5.3339,-175.957,0.0575,0.73,-0.6809,-0.0101,0.0,0.0,0.0,0.0,0.0,0.0,0.0,0.0,0.0,0.0,0.0,0.0,1.0,0.0,0.0,0.0,0.0,0.0,0.0,0.0,0.0,0.0,0.0,0.0,0.0,1.0,0.0,0.0,0.0,0.0,0.0,0.0,0.0,0.0,0.0,0.0,0.0,0.0,1.0,0.0,0.0,0.0,0.0,0.0,0.0,0.0,0.0,0.0,0.0,0.0,0.0,1.0,0.0,0.0,0.0,0.0,0.0,0.0,0.0,0.0,0.0,0.0,0.0,0.0,1.0,0,0,0,0,0,0,0,0,0,0,0,0,0,0,0,0,0,0,0,0,0,0,0,0,0,0,0,0,0,0,0,0,0,0,0,0
1777291189.650726,9875,1777291185.2314649,1777291185.198258,1777291185.6969376,0,0,33.206939697265625,-465.4726982116699,1,1,0.0,0.0,0.0,0.0,0.0,0.0,0.0,0.0,0.0,0.0,0.0,0.0,0.0,0.0,0.0,0.0,0.0,0.0,0.0,0.0,0.0,0.0,0.0,0.0,0.0,0.0,0.0,743.70556640625,566.662841796875,1112.93798828125,994.1646728515625,592.48828125,1108.7235107421875,785.5155029296875,386.0128173828125,1143.165771484375,946.8042602539062,385.2256774902344,1143.19384765625,673.0014038085938,504.95855712890625,858.58984375,702.225830078125,606.3059692382812,611.5768432617188,681.13330078125,616.7349243164062,437.2696228027344,699.8978271484375,688.3362426757812,245.284912109375,764.1696166992188,628.171875,145.9544677734375,724.3355102539062,880.3698120117188,235.60751342773438,1040.6728515625,495.941650390625,786.064697265625,992.481689453125,410.9828796386719,564.701904296875,1004.3927001953125,366.34796142578125,434.4364318847656,958.8040161132812,293.6561584472656,235.06346130371094,898.9688720703125,206.57066345214844,172.6299285888672,941.647216796875,469.8569641113281,175.79013061523438,0.0,0.0,0.0,0.0,0.0,0.0,0.0,0.0,0.0,0.0,0.0,0.0,1.0,0.9092,9.6564,-0.7034,0.1221,-0.4272,-0.1221,94.1748,-5.3339,-175.957,0.0575,0.73,-0.6809,-0.0101,0.0,0.0,0.0,0.0,0.0,0.0,0.0,0.0,0.0,0.0,0.0,0.0,1.0,0.0,0.0,0.0,0.0,0.0,0.0,0.0,0.0,0.0,0.0,0.0,0.0,1.0,0.0,0.0,0.0,0.0,0.0,0.0,0.0,0.0,0.0,0.0,0.0,0.0,1.0,0.0,0.0,0.0,0.0,0.0,0.0,0.0,0.0,0.0,0.0,0.0,0.0,1.0,0.0,0.0,0.0,0.0,0.0,0.0,0.0,0.0,0.0,0.0,0.0,0.0,1.0,0,0,0,0,0,0,0,0,0,0,0,0,0,0,0,0,0,0,0,0,0,0,0,0,0,0,0,0,0,0,0,0,0,0,0,0
1777291189.650726,9876,1777291185.2345874,1777291185.198258,1777291185.6969376,0,0,36.32950782775879,-462.35013008117676,1,1,0.0,0.0,0.0,0.0,0.0,0.0,0.0,0.0,0.0,0.0,0.0,0.0,0.0,0.0,0.0,0.0,0.0,0.0,0.0,0.0,0.0,0.0,0.0,0.0,0.0,0.0,0.0,742.3883666992188,567.8116455078125,1112.1212158203125,992.873291015625,593.3116455078125,1108.04736328125,783.9846801757812,387.03143310546875,1142.1361083984375,945.30712890625,386.0390930175781,1142.181884765625,672.37109375,506.5937805175781,857.3946533203125,702.4471435546875,606.599365234375,610.0849609375,682.0856323242188,616.0023193359375,435.7437438964844,701.1911010742188,685.876708984375,243.66539001464844,764.8160400390625,622.8606567382812,146.75498962402344,726.9703979492188,877.3732299804688,230.36265563964844,1039.3333740234375,495.3739013671875,785.3251342773438,991.535888671875,408.0906677246094,564.777099609375,1003.7041015625,361.7429504394531,435.0794982910156,958.50439453125,286.6667785644531,236.3395538330078,898.9226684570312,199.06996154785156,173.3619384765625,941.8729248046875,462.3356018066406,175.60699462890625,0.0,0.0,0.0,0.0,0.0,0.0,0.0,0.0,0.0,0.0,0.0,0.0,1.0,0.9092,9.6564,-0.7034,0.1221,-0.4272,-0.1221,94.1748,-5.3339,-175.957,0.0575,0.73,-0.6809,-0.0101,0.0,0.0,0.0,0.0,0.0,0.0,0.0,0.0,0.0,0.0,0.0,0.0,1.0,0.0,0.0,0.0,0.0,0.0,0.0,0.0,0.0,0.0,0.0,0.0,0.0,1.0,0.0,0.0,0.0,0.0,0.0,0.0,0.0,0.0,0.0,0.0,0.0,0.0,1.0,0.0,0.0,0.0,0.0,0.0,0.0,0.0,0.0,0.0,0.0,0.0,0.0,1.0,0.0,0.0,0.0,0.0,0.0,0.0,0.0,0.0,0.0,0.0,0.0,0.0,1.0,0,0,0,0,0,0,0,0,0,0,0,0,0,0,0,0,0,0,0,0,0,0,0,0,0,0,0,0,0,0,0,0,0,0,0,0
1777291189.650726,9877,1777291185.2491665,1777291185.198258,1777291185.6969376,0,0,50.908565521240234,-447.7710723876953,1,1,0.0,0.0,0.0,0.0,0.0,0.0,0.0,0.0,0.0,0.0,0.0,0.0,0.0,0.0,0.0,0.0,0.0,0.0,0.0,0.0,0.0,0.0,0.0,0.0,0.0,0.0,0.0,740.9816284179688,569.050537109375,1111.400634765625,991.4867553710938,594.2268676757812,1107.468017578125,782.3867797851562,388.1314392089844,1141.1634521484375,943.7432861328125,386.9255065917969,1141.2010498046875,671.7903442382812,508.4582824707031,856.3087768554688,702.6215209960938,607.1630249023438,608.742431640625,683.0488891601562,614.9981689453125,434.2813415527344,702.3851928710938,682.5543823242188,241.9705810546875,765.453369140625,616.5123291015625,147.72744750976562,729.0501708984375,873.3885498046875,224.3698272705078,1037.92822265625,495.06829833984375,784.6201171875,990.5198974609375,405.5769348144531,564.9054565429688,1002.9664916992188,357.3543701171875,435.86053466796875,958.18701171875,279.7624206542969,237.80613708496094,898.8746337890625,191.62503051757812,174.35922241210938,942.097900390625,454.8262939453125,175.41641235351562,0.0,0.0,0.0,0.0,0.0,0.0,0.0,0.0,0.0,0.0,0.0,0.0,1.0,0.9092,9.6564,-0.7034,0.1221,-0.4272,-0.1221,94.1748,-5.3339,-175.957,0.0575,0.73,-0.6809,-0.0101,0.0,0.0,0.0,0.0,0.0,0.0,0.0,0.0,0.0,0.0,0.0,0.0,1.0,0.0,0.0,0.0,0.0,0.0,0.0,0.0,0.0,0.0,0.0,0.0,0.0,1.0,0.0,0.0,0.0,0.0,0.0,0.0,0.0,0.0,0.0,0.0,0.0,0.0,1.0,0.0,0.0,0.0,0.0,0.0,0.0,0.0,0.0,0.0,0.0,0.0,0.0,1.0,0.0,0.0,0.0,0.0,0.0,0.0,0.0,0.0,0.0,0.0,0.0,0.0,1.0,0,0,0,0,0,0,0,0,0,0,0,0,0,0,0,0,0,0,0,0,0,0,0,0,0,0,0,0,0,0,0,0,0,0,0,0
1777291189.650726,9878,1777291185.251677,1777291185.198258,1777291185.6969376,0,0,53.41911315917969,-445.26052474975586,1,1,0.0,0.0,0.0,0.0,0.0,0.0,0.0,0.0,0.0,0.0,0.0,0.0,0.0,0.0,0.0,0.0,0.0,0.0,0.0,0.0,0.0,0.0,0.0,0.0,0.0,0.0,0.0,739.4879760742188,570.3655395507812,1110.78857421875,990.0068969726562,595.2183837890625,1106.994140625,780.7267456054688,389.30047607421875,1140.264404296875,942.1171264648438,387.87030029296875,1140.266357421875,671.2415771484375,510.501953125,855.344970703125,702.7343139648438,607.95361328125,607.5597534179688,683.9395141601562,613.8260498046875,432.9161071777344,703.4127807617188,678.619384765625,240.27366638183594,766.0025634765625,609.5298461914062,148.83424377441406,730.60888671875,868.6658325195312,218.01629638671875,1036.46728515625,495.04669189453125,783.958251953125,989.4471435546875,403.5196838378906,565.0838012695312,1002.1952514648438,353.2449645996094,436.7935791015625,957.87353515625,272.9794616699219,239.4962158203125,898.8526000976562,184.25167846679688,175.70111083984375,942.31787109375,447.3228454589844,175.22760009765625,0.0,0.0,0.0,0.0,0.0,0.0,0.0,0.0,0.0,0.0,0.0,0.0,1.0,0.9092,9.6564,-0.7034,0.1221,-0.4272,-0.1221,94.1748,-5.3339,-175.957,0.0575,0.73,-0.6809,-0.0101,0.0,0.0,0.0,0.0,0.0,0.0,0.0,0.0,0.0,0.0,0.0,0.0,1.0,0.0,0.0,0.0,0.0,0.0,0.0,0.0,0.0,0.0,0.0,0.0,0.0,1.0,0.0,0.0,0.0,0.0,0.0,0.0,0.0,0.0,0.0,0.0,0.0,0.0,1.0,0.0,0.0,0.0,0.0,0.0,0.0,0.0,0.0,0.0,0.0,0.0,0.0,1.0,0.0,0.0,0.0,0.0,0.0,0.0,0.0,0.0,0.0,0.0,0.0,0.0,1.0,0,0,0,0,0,0,0,0,0,0,0,0,0,0,0,0,0,0,0,0,0,0,0,0,0,0,0,0,0,0,0,0,0,0,0,0
1777291189.650726,9879,1777291185.2677104,1777291185.198258,1777291185.6969376,0,0,69.45252418518066,-429.2271137237549,1,1,0.0,0.0,0.0,0.0,0.0,0.0,0.0,0.0,0.0,0.0,0.0,0.0,0.0,0.0,0.0,0.0,0.0,0.0,0.0,0.0,0.0,0.0,0.0,0.0,0.0,0.0,0.0,737.9114990234375,571.7412719726562,1110.296142578125,988.4373779296875,596.2676391601562,1106.633056640625,779.0098876953125,390.5251159667969,1139.454833984375,940.4329833984375,388.8572998046875,1139.3919677734375,670.7049560546875,512.67041015625,854.5147705078125,702.7735595703125,608.9222412109375,606.5444946289062,684.6734008789062,612.58056640625,431.6851806640625,704.227783203125,674.28369140625,238.64706420898438,766.420654296875,602.2332153320312,150.02609252929688,731.7140502929688,863.4007568359375,211.67596435546875,1034.9625244140625,495.33245849609375,783.3486328125,988.3361206054688,402.0042419433594,565.3074340820312,1001.4112548828125,349.4899597167969,437.89263916015625,957.5917358398438,266.3668518066406,241.44644165039062,898.8831176757812,176.97117614746094,177.46484375,942.5286865234375,439.8205871582031,175.05154418945312,0.0,0.0,0.0,0.0,0.0,0.0,0.0,0.0,0.0,0.0,0.0,0.0,1.0,0.9092,9.6564,-0.7034,0.1221,-0.4272,-0.1221,94.1748,-5.3339,-175.957,0.0575,0.73,-0.6809,-0.0101,0.0,0.0,0.0,0.0,0.0,0.0,0.0,0.0,0.0,0.0,0.0,0.0,1.0,0.0,0.0,0.0,0.0,0.0,0.0,0.0,0.0,0.0,0.0,0.0,0.0,1.0,0.0,0.0,0.0,0.0,0.0,0.0,0.0,0.0,0.0,0.0,0.0,0.0,1.0,0.0,0.0,0.0,0.0,0.0,0.0,0.0,0.0,0.0,0.0,0.0,0.0,1.0,0.0,0.0,0.0,0.0,0.0,0.0,0.0,0.0,0.0,0.0,0.0,0.0,1.0,0,0,0,0,0,0,0,0,0,0,0,0,0,0,0,0,0,0,0,0,0,0,0,0,0,0,0,0,0,0,0,0,0,0,0,0
1777291189.650726,9880,1777291185.2711103,1777291185.198258,1777291185.6969376,0,0,72.85237312316895,-425.8272647857666,1,1,0.0,0.0,0.0,0.0,0.0,0.0,0.0,0.0,0.0,0.0,0.0,0.0,0.0,0.0,0.0,0.0,0.0,0.0,0.0,0.0,0.0,0.0,0.0,0.0,0.0,0.0,0.0,736.2579345703125,573.1614379882812,1109.93212890625,986.783935546875,597.3536376953125,1106.390869140625,777.24169921875,391.7909240722656,1138.748291015625,938.6956176757812,389.8688659667969,1138.5911865234375,670.1597900390625,514.9071044921875,853.8277587890625,702.7313232421875,610.0147705078125,605.7003173828125,685.17578125,611.33642578125,430.6231689453125,704.8087768554688,669.7056274414062,237.15432739257812,766.6961059570312,594.8414306640625,151.24288940429688,732.4576416015625,857.7299194335938,205.67515563964844,1033.4283447265625,495.9493103027344,782.8003540039062,987.2098999023438,401.1201477050781,565.57080078125,1000.6395263671875,346.17578125,439.1709289550781,957.3736572265625,259.9872131347656,243.69601440429688,898.9855346679688,169.81304931640625,179.7216796875,942.7271728515625,432.3188781738281,174.8987579345703,0.0,0.0,0.0,0.0,0.0,0.0,0.0,0.0,0.0,0.0,0.0,0.0,1.0,0.9092,9.6564,-0.7034,0.1221,-0.4272,-0.1221,94.1748,-5.3339,-175.957,0.0575,0.73,-0.6809,-0.0101,0.0,0.0,0.0,0.0,0.0,0.0,0.0,0.0,0.0,0.0,0.0,0.0,1.0,0.0,0.0,0.0,0.0,0.0,0.0,0.0,0.0,0.0,0.0,0.0,0.0,1.0,0.0,0.0,0.0,0.0,0.0,0.0,0.0,0.0,0.0,0.0,0.0,0.0,1.0,0.0,0.0,0.0,0.0,0.0,0.0,0.0,0.0,0.0,0.0,0.0,0.0,1.0,0.0,0.0,0.0,0.0,0.0,0.0,0.0,0.0,0.0,0.0,0.0,0.0,1.0,0,0,0,0,0,0,0,0,0,0,0,0,0,0,0,0,0,0,0,0,0,0,0,0,0,0,0,0,0,0,0,0,0,0,0,0
1777291189.650726,9881,1777291185.285501,1777291185.198258,1777291185.6969376,0,0,87.24308013916016,-411.4365577697754,1,1,0.0,0.0,0.0,0.0,0.0,0.0,0.0,0.0,0.0,0.0,0.0,0.0,0.0,0.0,0.0,0.0,0.0,0.0,0.0,0.0,0.0,0.0,0.0,0.0,0.0,0.0,0.0,734.5344848632812,574.609130859375,1109.7034912109375,985.0546875,598.4527587890625,1106.2723388671875,775.427734375,393.08282470703125,1138.1566162109375,936.9097290039062,390.88629150390625,1137.8759765625,669.585693359375,517.1552734375,853.291259765625,702.6048583984375,611.171630859375,605.025390625,685.3922729492188,610.1393432617188,429.7571105957031,705.1591796875,664.9848022460938,235.844970703125,766.8412475585938,587.4765625,152.4195556640625,732.9419555664062,851.7373657226562,200.2699432373047,1031.8809814453125,496.9193420410156,782.3223876953125,986.0952758789062,400.95697021484375,565.86767578125,999.9080200195312,343.3974304199219,440.6405029296875,957.2528076171875,253.9168701171875,246.28530883789062,899.169189453125,162.8189239501953,182.53829956054688,942.9130249023438,424.8244934082031,174.7764434814453,0.0,0.0,0.0,0.0,0.0,0.0,0.0,0.0,0.0,0.0,0.0,0.0,1.0,0.9092,9.6564,-0.7034,0.1221,-0.4272,-0.1221,94.1748,-5.3339,-175.957,0.0575,0.73,-0.6809,-0.0101,0.0,0.0,0.0,0.0,0.0,0.0,0.0,0.0,0.0,0.0,0.0,0.0,1.0,0.0,0.0,0.0,0.0,0.0,0.0,0.0,0.0,0.0,0.0,0.0,0.0,1.0,0.0,0.0,0.0,0.0,0.0,0.0,0.0,0.0,0.0,0.0,0.0,0.0,1.0,0.0,0.0,0.0,0.0,0.0,0.0,0.0,0.0,0.0,0.0,0.0,0.0,1.0,0.0,0.0,0.0,0.0,0.0,0.0,0.0,0.0,0.0,0.0,0.0,0.0,1.0,0,0,0,0,0,0,0,0,0,0,0,0,0,0,0,0,0,0,0,0,0,0,0,0,0,0,0,0,0,0,0,0,0,0,0,0
1777291189.650726,9882,1777291185.3039813,1777291185.3039813,1777291185.6969376,0,0,0.0,-392.9562568664551,1,1,0.0,0.0,0.0,0.0,0.0,0.0,0.0,0.0,0.0,0.0,0.0,0.0,0.0,0.0,0.0,0.0,0.0,0.0,0.0,0.0,0.0,0.0,0.0,0.0,0.0,0.0,0.0,732.7499389648438,576.0669555664062,1109.614501953125,983.2597045898438,599.5399169921875,1106.2796630859375,773.5737915039062,394.38519287109375,1137.688720703125,935.0802001953125,391.8902587890625,1137.2564697265625,668.96337890625,519.3595581054688,852.9092407226562,702.39697265625,612.3275146484375,604.5117797851562,685.297607421875,609.00048828125,429.10247802734375,705.30419921875,660.1680297851562,234.7519073486328,766.8834838867188,580.1835327148438,153.49530029296875,733.2647094726562,845.4696655273438,195.63356018066406,1030.33837890625,498.2610168457031,781.923095703125,985.021240234375,401.5994873046875,566.1923828125,999.2454223632812,341.2544860839844,442.31170654296875,957.2611694335938,248.24476623535156,249.2539825439453,899.4334106445312,156.04733276367188,185.98326110839844,943.09033203125,417.3544921875,174.6853485107422,0.0,0.0,0.0,0.0,0.0,0.0,0.0,0.0,0.0,0.0,0.0,0.0,1.0,0.9044,9.6517,-0.7082,0.1831,-0.4272,-0.1221,94.1748,-5.3339,-175.9625,0.0574,0.73,-0.6809,-0.0101,0.0,0.0,0.0,0.0,0.0,0.0,0.0,0.0,0.0,0.0,0.0,0.0,1.0,0.0,0.0,0.0,0.0,0.0,0.0,0.0,0.0,0.0,0.0,0.0,0.0,1.0,0.0,0.0,0.0,0.0,0.0,0.0,0.0,0.0,0.0,0.0,0.0,0.0,1.0,0.0,0.0,0.0,0.0,0.0,0.0,0.0,0.0,0.0,0.0,0.0,0.0,1.0,0.0,0.0,0.0,0.0,0.0,0.0,0.0,0.0,0.0,0.0,0.0,0.0,1.0,0,0,0,0,0,0,0,0,0,0,0,0,0,0,0,0,0,0,0,0,0,0,0,0,0,0,0,0,0,0,0,0,0,0,0,0
1777291189.650726,9883,1777291185.3075,1777291185.3039813,1777291185.6969376,0,0,3.5185813903808594,-389.4376754760742,1,1,0.0,0.0,0.0,0.0,0.0,0.0,0.0,0.0,0.0,0.0,0.0,0.0,0.0,0.0,0.0,0.0,0.0,0.0,0.0,0.0,0.0,0.0,0.0,0.0,0.0,0.0,0.0,730.91455078125,577.5175170898438,1109.666259765625,981.4113159179688,600.5888671875,1106.4129638671875,771.685546875,395.68212890625,1137.3509521484375,933.2120361328125,392.86126708984375,1136.74072265625,668.2753295898438,521.4677734375,852.681884765625,702.1148071289062,613.4112548828125,604.1451416015625,684.9013671875,607.8959350585938,428.6612243652344,705.2854614257812,655.2605590820312,233.89035034179688,766.8571166992188,572.9564819335938,154.42373657226562,733.5068969726562,838.9537963867188,191.8512725830078,1028.8199462890625,499.9865417480469,781.6100463867188,984.0177612304688,403.1221008300781,566.54052734375,998.6793212890625,339.8458251953125,444.1929016113281,957.4253540039062,243.06971740722656,252.63900756835938,899.7696533203125,149.5788116455078,190.13475036621094,943.2688598632812,409.938232421875,174.61695861816406,0.0,0.0,0.0,0.0,0.0,0.0,0.0,0.0,0.0,0.0,0.0,0.0,1.0,0.9044,9.6517,-0.7082,0.1831,-0.4272,-0.1221,94.1748,-5.3339,-175.9625,0.0574,0.73,-0.6809,-0.0101,0.0,0.0,0.0,0.0,0.0,0.0,0.0,0.0,0.0,0.0,0.0,0.0,1.0,0.0,0.0,0.0,0.0,0.0,0.0,0.0,0.0,0.0,0.0,0.0,0.0,1.0,0.0,0.0,0.0,0.0,0.0,0.0,0.0,0.0,0.0,0.0,0.0,0.0,1.0,0.0,0.0,0.0,0.0,0.0,0.0,0.0,0.0,0.0,0.0,0.0,0.0,1.0,0.0,0.0,0.0,0.0,0.0,0.0,0.0,0.0,0.0,0.0,0.0,0.0,1.0,0,0,0,0,0,0,0,0,0,0,0,0,0,0,0,0,0,0,0,0,0,0,0,0,0,0,0,0,0,0,0,0,0,0,0,0
1777291189.650726,9884,1777291185.3201182,1777291185.3039813,1777291185.6969376,0,0,16.136884689331055,-376.819372177124,1,1,0.0,0.0,0.0,0.0,0.0,0.0,0.0,0.0,0.0,0.0,0.0,0.0,0.0,0.0,0.0,0.0,0.0,0.0,0.0,0.0,0.0,0.0,0.0,0.0,0.0,0.0,0.0,729.0398559570312,578.9437866210938,1109.8564453125,979.523681640625,601.5732421875,1106.669921875,769.7687377929688,396.9577941894531,1137.146484375,931.310302734375,393.7801513671875,1136.33447265625,667.505859375,523.4315185546875,852.60498046875,701.7678833007812,614.3468627929688,603.9053344726562,684.2471313476562,606.7694091796875,428.4211730957031,705.1532592773438,650.2406616210938,233.2582550048828,766.7963256835938,565.7650756835938,155.1799774169922,733.7274780273438,832.2130737304688,188.9234161376953,1027.3458251953125,502.09954833984375,781.3899536132812,983.1137084960938,405.58319091796875,566.9105224609375,998.2340087890625,339.2637023925781,446.2900695800781,957.7635498046875,238.4958953857422,256.4724426269531,900.1642456054688,143.52005004882812,195.08602905273438,943.4649047851562,402.6178894042969,174.55181884765625,0.0,0.0,0.0,0.0,0.0,0.0,0.0,0.0,0.0,0.0,0.0,0.0,1.0,0.9044,9.6517,-0.7082,0.1831,-0.4272,-0.1221,94.1748,-5.3339,-175.9625,0.0574,0.73,-0.6809,-0.0101,0.0,0.0,0.0,0.0,0.0,0.0,0.0,0.0,0.0,0.0,0.0,0.0,1.0,0.0,0.0,0.0,0.0,0.0,0.0,0.0,0.0,0.0,0.0,0.0,0.0,1.0,0.0,0.0,0.0,0.0,0.0,0.0,0.0,0.0,0.0,0.0,0.0,0.0,1.0,0.0,0.0,0.0,0.0,0.0,0.0,0.0,0.0,0.0,0.0,0.0,0.0,1.0,0.0,0.0,0.0,0.0,0.0,0.0,0.0,0.0,0.0,0.0,0.0,0.0,1.0,0,0,0,0,0,0,0,0,0,0,0,0,0,0,0,0,0,0,0,0,0,0,0,0,0,0,0,0,0,0,0,0,0,0,0,0
1777291189.650726,9885,1777291185.3349802,1777291185.3039813,1777291185.6969376,0,0,30.998945236206055,-361.957311630249,1,1,0.0,0.0,0.0,0.0,0.0,0.0,0.0,0.0,0.0,0.0,0.0,0.0,0.0,0.0,0.0,0.0,0.0,0.0,0.0,0.0,0.0,0.0,0.0,0.0,0.0,0.0,0.0,727.1384887695312,580.329345703125,1110.1796875,977.6123046875,602.4676513671875,1107.044921875,767.8292236328125,398.19659423828125,1137.07568359375,929.3803100585938,394.6286926269531,1136.041015625,666.6416625976562,525.2073364257812,852.669921875,701.3663330078125,615.0557861328125,603.7677001953125,683.4055786132812,605.5388793945312,428.3572082519531,704.9595947265625,645.0732421875,232.83798217773438,766.7303466796875,558.5746459960938,155.76158142089844,733.9635009765625,825.276123046875,186.77975463867188,1025.936767578125,504.593017578125,781.268798828125,982.33544921875,409.0199890136719,567.3046264648438,997.9285888671875,339.5870666503906,448.60675048828125,958.2825927734375,234.6268768310547,260.779052734375,900.6009521484375,138.00572204589844,200.9457244873047,943.700439453125,395.4471435546875,174.4593505859375,0.0,0.0,0.0,0.0,0.0,0.0,0.0,0.0,0.0,0.0,0.0,0.0,1.0,0.9044,9.6517,-0.7082,0.1831,-0.4272,-0.1221,94.1748,-5.3339,-175.9625,0.0574,0.73,-0.6809,-0.0101,0.0,0.0,0.0,0.0,0.0,0.0,0.0,0.0,0.0,0.0,0.0,0.0,1.0,0.0,0.0,0.0,0.0,0.0,0.0,0.0,0.0,0.0,0.0,0.0,0.0,1.0,0.0,0.0,0.0,0.0,0.0,0.0,0.0,0.0,0.0,0.0,0.0,0.0,1.0,0.0,0.0,0.0,0.0,0.0,0.0,0.0,0.0,0.0,0.0,0.0,0.0,1.0,0.0,0.0,0.0,0.0,0.0,0.0,0.0,0.0,0.0,0.0,0.0,0.0,1.0,0,0,0,0,0,0,0,0,0,0,0,0,0,0,0,0,0,0,0,0,0,0,0,0,0,0,0,0,0,0,0,0,0,0,0,0
1777291189.650726,9887,1777291185.3380864,1777291185.3039813,1777291185.6969376,1,1,34.10506248474121,-358.85119438171387,1,1,0.0,0.0,0.0,0.0,0.0,0.0,0.0,0.0,0.0,0.0,0.0,0.0,0.0,0.0,0.0,0.0,0.0,0.0,0.0,0.0,0.0,0.0,0.0,0.0,0.0,0.0,0.0,723.310791015625,582.9166870117188,1111.184814453125,973.7850952148438,603.8951416015625,1108.1138916015625,763.9061279296875,400.50347900390625,1137.321044921875,925.4581909179688,396.0492248535156,1135.7945556640625,664.5889892578125,528.0466918945312,853.16943359375,700.42919921875,615.4877319335938,603.6885375976562,681.5039672851562,602.3653564453125,428.608154296875,704.5661010742188,634.1510620117188,232.50497436523438,766.6588745117188,544.0986328125,156.47454833984375,734.5363159179688,810.9581298828125,184.3497772216797,1023.3936157226562,510.631591796875,781.3436279296875,981.2395629882812,418.8381652832031,568.1996459960938,997.779296875,343.1607360839844,453.8997802734375,959.8211669921875,229.37014770507812,270.8606872558594,901.5319213867188,129.27688598632812,215.86325073242188,944.3942260742188,381.80682373046875,174.026123046875,0.0,0.0,0.0,0.0,0.0,0.0,0.0,0.0,0.0,0.0,0.0,0.0,1.0,0.9044,9.6517,-0.7082,0.1831,-0.4272,-0.1221,94.1748,-5.3339,-175.9625,0.0574,0.73,-0.6809,-0.0101,0.0,0.0,0.0,0.0,0.0,0.0,0.0,0.0,0.0,0.0,0.0,0.0,1.0,0.0,0.0,0.0,0.0,0.0,0.0,0.0,0.0,0.0,0.0,0.0,0.0,1.0,0.0,0.0,0.0,0.0,0.0,0.0,0.0,0.0,0.0,0.0,0.0,0.0,1.0,0.0,0.0,0.0,0.0,0.0,0.0,0.0,0.0,0.0,0.0,0.0,0.0,1.0,0.0,0.0,0.0,0.0,0.0,0.0,0.0,0.0,0.0,0.0,0.0,0.0,1.0,0,0,0,0,0,0,0,0,0,0,0,0,0,0,0,0,0,0,0,0,0,0,0,0,0,0,0,0,0,0,0,0,0,0,0,0
1777291189.650726,9888,1777291185.3552277,1777291185.3039813,1777291185.6969376,0,0,51.24640464782715,-341.70985221862793,1,1,0.0,0.0,0.0,0.0,0.0,0.0,0.0,0.0,0.0,0.0,0.0,0.0,0.0,0.0,0.0,0.0,0.0,0.0,0.0,0.0,0.0,0.0,0.0,0.0,0.0,0.0,0.0,721.4131469726562,584.09033203125,1111.83935546875,971.9028930664062,604.390869140625,1108.783935546875,761.9353637695312,401.5433349609375,1137.6241455078125,923.478515625,396.59375,1135.8367919921875,663.3894653320312,529.0491943359375,853.5669555664062,699.9006958007812,615.0758056640625,603.6918334960938,680.6060180664062,600.2191162109375,428.83575439453125,704.4304809570312,628.3414916992188,232.51248168945312,766.6694946289062,536.7937622070312,156.66323852539062,734.865234375,803.6538696289062,183.77804565429688,1022.2947387695312,514.1001586914062,781.548583984375,980.9482421875,425.1551208496094,568.7326049804688,997.9352416992188,346.4464416503906,456.8709716796875,960.7822875976562,228.11993408203125,276.6290588378906,901.9902954101562,126.43775939941406,225.13705444335938,944.9024047851562,375.4698486328125,173.5941925048828,0.0,0.0,0.0,0.0,0.0,0.0,0.0,0.0,0.0,0.0,0.0,0.0,1.0,0.9044,9.6517,-0.7082,0.1831,-0.4272,-0.1221,94.1748,-5.3339,-175.9625,0.0574,0.73,-0.6809,-0.0101,0.0,0.0,0.0,0.0,0.0,0.0,0.0,0.0,0.0,0.0,0.0,0.0,1.0,0.0,0.0,0.0,0.0,0.0,0.0,0.0,0.0,0.0,0.0,0.0,0.0,1.0,0.0,0.0,0.0,0.0,0.0,0.0,0.0,0.0,0.0,0.0,0.0,0.0,1.0,0.0,0.0,0.0,0.0,0.0,0.0,0.0,0.0,0.0,0.0,0.0,0.0,1.0,0.0,0.0,0.0,0.0,0.0,0.0,0.0,0.0,0.0,0.0,0.0,0.0,1.0,0,0,0,0,0,0,0,0,0,0,0,0,0,0,0,0,0,0,0,0,0,0,0,0,0,0,0,0,0,0,0,0,0,0,0,0
1777291189.650726,9889,1777291185.3752277,1777291185.3039813,1777291185.6969376,0,0,71.24638557434082,-321.70987129211426,1,1,0.0,0.0,0.0,0.0,0.0,0.0,0.0,0.0,0.0,0.0,0.0,0.0,0.0,0.0,0.0,0.0,0.0,0.0,0.0,0.0,0.0,0.0,0.0,0.0,0.0,0.0,0.0,719.5453491210938,585.1669311523438,1112.57275390625,970.0628051757812,604.7232666015625,1109.5252685546875,759.9676513671875,402.4902038574219,1138.03515625,921.4956665039062,397.0135803222656,1135.9833984375,662.0743408203125,529.7418823242188,854.03369140625,699.33203125,614.1761474609375,603.6907348632812,679.8233032226562,597.58544921875,429.0740051269531,704.3594360351562,622.2817993164062,232.58139038085938,766.7101440429688,529.4482421875,156.7794952392578,735.2044067382812,796.299072265625,183.45718383789062,1021.3291015625,517.7978515625,781.8709716796875,980.8331298828125,432.3184509277344,569.353759765625,998.2293090820312,350.7010192871094,460.052001953125,961.8087768554688,227.837158203125,282.85479736328125,902.4161987304688,124.8671646118164,235.71273803710938,945.5423583984375,369.5386047363281,172.96881103515625,0.0,0.0,0.0,0.0,0.0,0.0,0.0,0.0,0.0,0.0,0.0,0.0,1.0,0.9044,9.6517,-0.7082,0.1831,-0.4272,-0.1221,94.1748,-5.3339,-175.9625,0.0574,0.73,-0.6809,-0.0101,0.0,0.0,0.0,0.0,0.0,0.0,0.0,0.0,0.0,0.0,0.0,0.0,1.0,0.0,0.0,0.0,0.0,0.0,0.0,0.0,0.0,0.0,0.0,0.0,0.0,1.0,0.0,0.0,0.0,0.0,0.0,0.0,0.0,0.0,0.0,0.0,0.0,0.0,1.0,0.0,0.0,0.0,0.0,0.0,0.0,0.0,0.0,0.0,0.0,0.0,0.0,1.0,0.0,0.0,0.0,0.0,0.0,0.0,0.0,0.0,0.0,0.0,0.0,0.0,1.0,0,0,0,0,0,0,0,0,0,0,0,0,0,0,0,0,0,0,0,0,0,0,0,0,0,0,0,0,0,0,0,0,0,0,0,0
1777291189.650726,9890,1777291185.377495,1777291185.3039813,1777291185.6969376,0,0,73.51374626159668,-319.4425106048584,1,1,0.0,0.0,0.0,0.0,0.0,0.0,0.0,0.0,0.0,0.0,0.0,0.0,0.0,0.0,0.0,0.0,0.0,0.0,0.0,0.0,0.0,0.0,0.0,0.0,0.0,0.0,0.0,717.7210083007812,586.1351318359375,1113.3663330078125,968.2791748046875,604.885009765625,1110.3226318359375,758.010498046875,403.3326110839844,1138.542724609375,919.517333984375,397.3016357421875,1136.2279052734375,660.6498413085938,530.1082763671875,854.5459594726562,698.7208862304688,612.758544921875,603.6659545898438,679.185791015625,594.4091796875,429.2872009277344,704.3577880859375,615.974609375,232.67579650878906,766.7752075195312,522.0723266601562,156.84848022460938,735.5379028320312,788.9205322265625,183.28114318847656,1020.5043334960938,521.6604614257812,782.3148803710938,980.8881225585938,440.2256774902344,570.0923461914062,998.6381225585938,355.86016845703125,463.436279296875,962.8391723632812,228.52059936523438,289.4991149902344,902.7803955078125,124.72637939453125,247.5855255126953,946.3202514648438,364.066650390625,172.13751220703125,0.0,0.0,0.0,0.0,0.0,0.0,0.0,0.0,0.0,0.0,0.0,0.0,1.0,0.9044,9.6517,-0.7082,0.1831,-0.4272,-0.1221,94.1748,-5.3339,-175.9625,0.0574,0.73,-0.6809,-0.0101,0.0,0.0,0.0,0.0,0.0,0.0,0.0,0.0,0.0,0.0,0.0,0.0,1.0,0.0,0.0,0.0,0.0,0.0,0.0,0.0,0.0,0.0,0.0,0.0,0.0,1.0,0.0,0.0,0.0,0.0,0.0,0.0,0.0,0.0,0.0,0.0,0.0,0.0,1.0,0.0,0.0,0.0,0.0,0.0,0.0,0.0,0.0,0.0,0.0,0.0,0.0,1.0,0.0,0.0,0.0,0.0,0.0,0.0,0.0,0.0,0.0,0.0,0.0,0.0,1.0,0,0,0,0,0,0,0,0,0,0,0,0,0,0,0,0,0,0,0,0,0,0,0,0,0,0,0,0,0,0,0,0,0,0,0,0
1777291189.650726,9891,1777291185.3938599,1777291185.3938599,1777291185.6969376,0,0,0.0,-303.07769775390625,1,1,0.0,0.0,0.0,0.0,0.0,0.0,0.0,0.0,0.0,0.0,0.0,0.0,0.0,0.0,0.0,0.0,0.0,0.0,0.0,0.0,0.0,0.0,0.0,0.0,0.0,0.0,0.0,715.9525756835938,586.9845581054688,1114.2008056640625,966.5639038085938,604.8740234375,1111.16015625,756.072021484375,404.06048583984375,1139.134521484375,917.5517578125,397.4535827636719,1136.5633544921875,659.12744140625,530.1380004882812,855.0802612304688,698.0650024414062,610.8129272460938,603.6036376953125,678.6992797851562,590.6679077148438,429.4494934082031,704.4217529296875,609.4346313476562,232.76759338378906,766.8594360351562,514.6786499023438,156.89015197753906,735.8519897460938,781.537353515625,183.17205810546875,1019.8223266601562,525.6183471679688,782.8846435546875,981.09912109375,448.75323486328125,570.9803466796875,999.1298217773438,361.8296813964844,467.0160827636719,963.8052368164062,230.13882446289062,296.5087585449219,903.0396728515625,126.12796020507812,260.6639099121094,947.2302856445312,359.09930419921875,171.12168884277344,0.0,0.0,0.0,0.0,0.0,0.0,0.0,0.0,0.0,0.0,0.0,0.0,1.0,0.9044,9.6517,-0.7034,0.1831,-0.4272,-0.1221,94.1748,-5.3339,-175.9625,0.0574,0.73,-0.6809,-0.0101,0.0,0.0,0.0,0.0,0.0,0.0,0.0,0.0,0.0,0.0,0.0,0.0,1.0,0.0,0.0,0.0,0.0,0.0,0.0,0.0,0.0,0.0,0.0,0.0,0.0,1.0,0.0,0.0,0.0,0.0,0.0,0.0,0.0,0.0,0.0,0.0,0.0,0.0,1.0,0.0,0.0,0.0,0.0,0.0,0.0,0.0,0.0,0.0,0.0,0.0,0.0,1.0,0.0,0.0,0.0,0.0,0.0,0.0,0.0,0.0,0.0,0.0,0.0,0.0,1.0,0,0,0,0,0,0,0,0,0,0,0,0,0,0,0,0,0,0,0,0,0,0,0,0,0,0,0,0,0,0,0,0,0,0,0,0
1777291189.650726,9892,1777291185.400369,1777291185.3938599,1777291185.6969376,0,0,6.509065628051758,-296.5686321258545,1,1,0.0,0.0,0.0,0.0,0.0,0.0,0.0,0.0,0.0,0.0,0.0,0.0,0.0,0.0,0.0,0.0,0.0,0.0,0.0,0.0,0.0,0.0,0.0,0.0,0.0,0.0,0.0,714.250732421875,587.7059936523438,1115.0572509765625,964.9263916015625,604.6931762695312,1112.023193359375,754.16064453125,404.665283203125,1139.7974853515625,915.6077880859375,397.468017578125,1136.982177734375,657.5237426757812,529.8276977539062,855.6146850585938,697.3638916015625,608.350341796875,603.4960327148438,678.3493041992188,586.3743286132812,429.54632568359375,704.5411376953125,602.6864624023438,232.83804321289062,766.9593505859375,507.2788391113281,156.9193572998047,736.1368408203125,774.1607666015625,183.07972717285156,1019.2786254882812,529.6006469726562,783.5848999023438,981.4452514648438,457.7632751464844,572.0496826171875,999.6655883789062,368.4913635253906,470.7821960449219,964.63671875,232.63388061523438,303.8160095214844,903.1317749023438,129.11517333984375,274.752685546875,948.2557373046875,354.67864990234375,169.98464965820312,0.0,0.0,0.0,0.0,0.0,0.0,0.0,0.0,0.0,0.0,0.0,0.0,1.0,0.9044,9.6517,-0.7034,0.1831,-0.4272,-0.1221,94.1748,-5.3339,-175.9625,0.0574,0.73,-0.6809,-0.0101,0.0,0.0,0.0,0.0,0.0,0.0,0.0,0.0,0.0,0.0,0.0,0.0,1.0,0.0,0.0,0.0,0.0,0.0,0.0,0.0,0.0,0.0,0.0,0.0,0.0,1.0,0.0,0.0,0.0,0.0,0.0,0.0,0.0,0.0,0.0,0.0,0.0,0.0,1.0,0.0,0.0,0.0,0.0,0.0,0.0,0.0,0.0,0.0,0.0,0.0,0.0,1.0,0.0,0.0,0.0,0.0,0.0,0.0,0.0,0.0,0.0,0.0,0.0,0.0,1.0,0,0,0,0,0,0,0,0,0,0,0,0,0,0,0,0,0,0,0,0,0,0,0,0,0,0,0,0,0,0,0,0,0,0,0,0
1777291189.650726,9893,1777291185.411773,1777291185.3938599,1777291185.6969376,0,0,17.913103103637695,-285.16459465026855,1,1,0.0,0.0,0.0,0.0,0.0,0.0,0.0,0.0,0.0,0.0,0.0,0.0,0.0,0.0,0.0,0.0,0.0,0.0,0.0,0.0,0.0,0.0,0.0,0.0,0.0,0.0,0.0,712.624267578125,588.291259765625,1115.91796875,963.3731689453125,604.35009765625,1112.8988037109375,752.2852172851562,405.1402893066406,1140.5186767578125,913.694580078125,397.34613037109375,1137.4769287109375,655.8597412109375,529.1815185546875,856.130126953125,696.6201171875,605.401611328125,603.34130859375,678.1078491210938,581.57421875,429.5744934082031,704.7017211914062,595.76171875,232.87796020507812,767.0736694335938,499.88165283203125,156.94680786132812,736.3873901367188,766.7947387695312,182.9778594970703,1018.86279296875,533.5392456054688,784.420654296875,981.89990234375,467.11090087890625,573.329345703125,1000.2022094726562,375.7113342285156,474.7225036621094,965.2666625976562,235.92820739746094,311.33795166015625,902.975341796875,133.6478271484375,289.54766845703125,949.3737182617188,350.8548889160156,168.83384704589844,0.0,0.0,0.0,0.0,0.0,0.0,0.0,0.0,0.0,0.0,0.0,0.0,1.0,0.9044,9.6517,-0.7034,0.1831,-0.4272,-0.1221,94.1748,-5.3339,-175.9625,0.0574,0.73,-0.6809,-0.0101,0.0,0.0,0.0,0.0,0.0,0.0,0.0,0.0,0.0,0.0,0.0,0.0,1.0,0.0,0.0,0.0,0.0,0.0,0.0,0.0,0.0,0.0,0.0,0.0,0.0,1.0,0.0,0.0,0.0,0.0,0.0,0.0,0.0,0.0,0.0,0.0,0.0,0.0,1.0,0.0,0.0,0.0,0.0,0.0,0.0,0.0,0.0,0.0,0.0,0.0,0.0,1.0,0.0,0.0,0.0,0.0,0.0,0.0,0.0,0.0,0.0,0.0,0.0,0.0,1.0,0,0,0,0,0,0,0,0,0,0,0,0,0,0,0,0,0,0,0,0,0,0,0,0,0,0,0,0,0,0,0,0,0,0,0,0
1777291189.650726,9894,1777291185.4143913,1777291185.3938599,1777291185.6969376,0,0,20.531415939331055,-282.5462818145752,1,1,0.0,0.0,0.0,0.0,0.0,0.0,0.0,0.0,0.0,0.0,0.0,0.0,0.0,0.0,0.0,0.0,0.0,0.0,0.0,0.0,0.0,0.0,0.0,0.0,0.0,0.0,0.0,711.0795288085938,588.7335205078125,1116.76708984375,961.907470703125,603.8561401367188,1113.776123046875,750.4546508789062,405.480712890625,1141.28515625,911.8215942382812,397.0914306640625,1138.040283203125,654.1602783203125,528.2119140625,856.6116943359375,695.8396606445312,602.0144653320312,603.14306640625,677.9401245117188,576.3402709960938,429.5405578613281,704.8872680664062,588.6952514648438,232.88670349121094,767.2022094726562,492.4909973144531,156.98019409179688,736.6032104492188,759.4371948242188,182.8584442138672,1018.5595092773438,537.373046875,785.3976440429688,982.432861328125,476.65167236328125,574.8419799804688,1000.69482421875,383.3490905761719,478.820068359375,965.63671875,239.93299865722656,318.975830078125,902.4754028320312,139.59722900390625,304.6438293457031,950.5624389648438,347.7012023925781,167.81666564941406,0.0,0.0,0.0,0.0,0.0,0.0,0.0,0.0,0.0,0.0,0.0,0.0,1.0,0.9044,9.6517,-0.7034,0.1831,-0.4272,-0.1221,94.1748,-5.3339,-175.9625,0.0574,0.73,-0.6809,-0.0101,0.0,0.0,0.0,0.0,0.0,0.0,0.0,0.0,0.0,0.0,0.0,0.0,1.0,0.0,0.0,0.0,0.0,0.0,0.0,0.0,0.0,0.0,0.0,0.0,0.0,1.0,0.0,0.0,0.0,0.0,0.0,0.0,0.0,0.0,0.0,0.0,0.0,0.0,1.0,0.0,0.0,0.0,0.0,0.0,0.0,0.0,0.0,0.0,0.0,0.0,0.0,1.0,0.0,0.0,0.0,0.0,0.0,0.0,0.0,0.0,0.0,0.0,0.0,0.0,1.0,0,0,0,0,0,0,0,0,0,0,0,0,0,0,0,0,0,0,0,0,0,0,0,0,0,0,0,0,0,0,0,0,0,0,0,0
1777291189.650726,9895,1777291185.4290004,1777291185.3938599,1777291185.6969376,0,0,35.1405143737793,-267.93718338012695,1,1,0.0,0.0,0.0,0.0,0.0,0.0,0.0,0.0,0.0,0.0,0.0,0.0,0.0,0.0,0.0,0.0,0.0,0.0,0.0,0.0,0.0,0.0,0.0,0.0,0.0,0.0,0.0,709.620361328125,589.0274658203125,1117.59130859375,960.5299072265625,603.225830078125,1114.647216796875,748.6777954101562,405.6838073730469,1142.0845947265625,909.9979248046875,396.70941162109375,1138.6654052734375,652.452392578125,526.9393310546875,857.04931640625,695.0322265625,598.2489013671875,602.9091186523438,677.810302734375,570.7626342773438,429.4586181640625,705.0817260742188,581.521728515625,232.870361328125,767.3447265625,485.1051940917969,157.02490234375,736.7874755859375,752.0814208984375,182.7257537841797,1018.3500366210938,541.0516357421875,786.5223999023438,983.0123901367188,486.2479553222656,576.6012573242188,1001.0995483398438,391.2664794921875,483.0501708984375,965.7011108398438,244.55718994140625,326.6147766113281,901.534423828125,146.75071716308594,319.5569152832031,951.8076782226562,345.32769775390625,167.1097412109375,0.0,0.0,0.0,0.0,0.0,0.0,0.0,0.0,0.0,0.0,0.0,0.0,1.0,0.9044,9.6517,-0.7034,0.1831,-0.4272,-0.1221,94.1748,-5.3339,-175.9625,0.0574,0.73,-0.6809,-0.0101,0.0,0.0,0.0,0.0,0.0,0.0,0.0,0.0,0.0,0.0,0.0,0.0,1.0,0.0,0.0,0.0,0.0,0.0,0.0,0.0,0.0,0.0,0.0,0.0,0.0,1.0,0.0,0.0,0.0,0.0,0.0,0.0,0.0,0.0,0.0,0.0,0.0,0.0,1.0,0.0,0.0,0.0,0.0,0.0,0.0,0.0,0.0,0.0,0.0,0.0,0.0,1.0,0.0,0.0,0.0,0.0,0.0,0.0,0.0,0.0,0.0,0.0,0.0,0.0,1.0,0,0,0,0,0,0,0,0,0,0,0,0,0,0,0,0,0,0,0,0,0,0,0,0,0,0,0,0,0,0,0,0,0,0,0,0
1777291189.650726,9896,1777291185.435531,1777291185.3938599,1777291185.6969376,0,0,41.671037673950195,-261.40666007995605,1,1,0.0,0.0,0.0,0.0,0.0,0.0,0.0,0.0,0.0,0.0,0.0,0.0,0.0,0.0,0.0,0.0,0.0,0.0,0.0,0.0,0.0,0.0,0.0,0.0,0.0,0.0,0.0,708.2479248046875,589.1695556640625,1118.38037109375,959.2381591796875,602.4756469726562,1115.5069580078125,746.9630126953125,405.7489013671875,1142.906005859375,908.2326049804688,396.2071533203125,1139.3463134765625,650.7642822265625,525.3922119140625,857.4378051757812,694.2107543945312,594.1718139648438,602.6503295898438,677.6873168945312,564.9379272460938,429.347412109375,705.2708129882812,574.2725219726562,232.8394317626953,767.5000610351562,477.71795654296875,157.0846710205078,736.9457397460938,744.7178344726562,182.590576171875,1018.214111328125,544.5379638671875,787.8023071289062,983.607177734375,495.77447509765625,578.6099243164062,1001.3768310546875,399.3360290527344,487.37750244140625,965.4300537109375,249.71546936035156,334.1244201660156,900.0664672851562,154.8267822265625,333.7574157714844,953.1072998046875,343.8891296386719,166.90122985839844,0.0,0.0,0.0,0.0,0.0,0.0,0.0,0.0,0.0,0.0,0.0,0.0,1.0,0.9044,9.6517,-0.7034,0.1831,-0.4272,-0.1221,94.1748,-5.3339,-175.9625,0.0574,0.73,-0.6809,-0.0101,0.0,0.0,0.0,0.0,0.0,0.0,0.0,0.0,0.0,0.0,0.0,0.0,1.0,0.0,0.0,0.0,0.0,0.0,0.0,0.0,0.0,0.0,0.0,0.0,0.0,1.0,0.0,0.0,0.0,0.0,0.0,0.0,0.0,0.0,0.0,0.0,0.0,0.0,1.0,0.0,0.0,0.0,0.0,0.0,0.0,0.0,0.0,0.0,0.0,0.0,0.0,1.0,0.0,0.0,0.0,0.0,0.0,0.0,0.0,0.0,0.0,0.0,0.0,0.0,1.0,0,0,0,0,0,0,0,0,0,0,0,0,0,0,0,0,0,0,0,0,0,0,0,0,0,0,0,0,0,0,0,0,0,0,0,0
1777291189.650726,9897,1777291185.446415,1777291185.3938599,1777291185.6969376,0,0,52.555084228515625,-250.52261352539062,1,1,0.0,0.0,0.0,0.0,0.0,0.0,0.0,0.0,0.0,0.0,0.0,0.0,0.0,0.0,0.0,0.0,0.0,0.0,0.0,0.0,0.0,0.0,0.0,0.0,0.0,0.0,0.0,706.9612426757812,589.1583862304688,1119.126708984375,958.0280151367188,601.6228637695312,1116.3531494140625,745.3179931640625,405.67755126953125,1143.7388916015625,906.5338134765625,395.59283447265625,1140.0771484375,649.1236572265625,523.6054077148438,857.7767333984375,693.390625,589.8511962890625,602.3790893554688,677.5479736328125,558.9586791992188,429.2272033691406,705.444091796875,566.973388671875,232.8065185546875,767.666259765625,470.3196105957031,157.16212463378906,737.0845336914062,737.3358154296875,182.4653778076172,1018.1317138671875,547.8095703125,789.2455444335938,984.1881713867188,505.1219177246094,580.8585815429688,1001.493896484375,407.4468994140625,491.7540588378906,964.8112182617188,255.33486938476562,341.3616943359375,898.0133666992188,163.5033416748047,346.7166748046875,954.4713134765625,343.58148193359375,167.36569213867188,0.0,0.0,0.0,0.0,0.0,0.0,0.0,0.0,0.0,0.0,0.0,0.0,1.0,0.9044,9.6517,-0.7034,0.1831,-0.4272,-0.1221,94.1748,-5.3339,-175.9625,0.0574,0.73,-0.6809,-0.0101,0.0,0.0,0.0,0.0,0.0,0.0,0.0,0.0,0.0,0.0,0.0,0.0,1.0,0.0,0.0,0.0,0.0,0.0,0.0,0.0,0.0,0.0,0.0,0.0,0.0,1.0,0.0,0.0,0.0,0.0,0.0,0.0,0.0,0.0,0.0,0.0,0.0,0.0,1.0,0.0,0.0,0.0,0.0,0.0,0.0,0.0,0.0,0.0,0.0,0.0,0.0,1.0,0.0,0.0,0.0,0.0,0.0,0.0,0.0,0.0,0.0,0.0,0.0,0.0,1.0,0,0,0,0,0,0,0,0,0,0,0,0,0,0,0,0,0,0,0,0,0,0,0,0,0,0,0,0,0,0,0,0,0,0,0,0
1777291189.650726,9898,1777291185.466245,1777291185.466245,1777291185.6969376,0,0,0.0,-230.69262504577637,1,1,0.0,0.0,0.0,0.0,0.0,0.0,0.0,0.0,0.0,0.0,0.0,0.0,0.0,0.0,0.0,0.0,0.0,0.0,0.0,0.0,0.0,0.0,0.0,0.0,0.0,0.0,0.0,705.75732421875,588.9949951171875,1119.8255615234375,956.8937377929688,600.6845703125,1117.1859130859375,743.74951171875,405.4732971191406,1144.574462890625,904.908935546875,394.87548828125,1140.8526611328125,647.5564575195312,521.6181030273438,858.0692749023438,692.58837890625,585.3509521484375,602.1080322265625,677.3794555664062,552.9046020507812,429.1170959472656,705.5955810546875,559.6434936523438,232.7842559814453,767.8410034179688,462.8994140625,157.25897216796875,737.210693359375,729.9256591796875,182.3609619140625,1018.08447265625,550.8587646484375,790.8605346679688,984.7301025390625,514.1993408203125,583.3258056640625,1001.4273071289062,415.509033203125,496.1180419921875,963.8499755859375,261.3594055175781,348.1745910644531,895.3585815429688,172.4587860107422,357.9606628417969,955.9166870117188,344.6242980957031,168.633056640625,0.0,0.0,0.0,0.0,0.0,0.0,0.0,0.0,0.0,0.0,0.0,0.0,1.0,0.9044,9.6517,-0.7034,0.1221,-0.3662,-0.1831,94.1748,-5.3339,-175.968,0.0574,0.73,-0.6809,-0.0101,0.0,0.0,0.0,0.0,0.0,0.0,0.0,0.0,0.0,0.0,0.0,0.0,1.0,0.0,0.0,0.0,0.0,0.0,0.0,0.0,0.0,0.0,0.0,0.0,0.0,1.0,0.0,0.0,0.0,0.0,0.0,0.0,0.0,0.0,0.0,0.0,0.0,0.0,1.0,0.0,0.0,0.0,0.0,0.0,0.0,0.0,0.0,0.0,0.0,0.0,0.0,1.0,0.0,0.0,0.0,0.0,0.0,0.0,0.0,0.0,0.0,0.0,0.0,0.0,1.0,0,0,0,0,0,0,0,0,0,0,0,0,0,0,0,0,0,0,0,0,0,0,0,0,0,0,0,0,0,0,0,0,0,0,0,0
1777291189.650726,9899,1777291185.468826,1777291185.466245,1777291185.6969376,0,0,2.5811195373535156,-228.11150550842285,1,1,0.0,0.0,0.0,0.0,0.0,0.0,0.0,0.0,0.0,0.0,0.0,0.0,0.0,0.0,0.0,0.0,0.0,0.0,0.0,0.0,0.0,0.0,0.0,0.0,0.0,0.0,0.0,704.6316528320312,588.6829833984375,1120.4744873046875,955.828857421875,599.6767578125,1118.0074462890625,742.26318359375,405.14166259765625,1145.4049072265625,903.364013671875,394.0645446777344,1141.667724609375,646.08544921875,519.4713745117188,858.3211059570312,691.8206787109375,580.7271118164062,601.8489379882812,677.179931640625,546.8360595703125,429.03338623046875,705.7243041992188,552.2952880859375,232.7837371826172,768.0222778320312,455.4472351074219,157.37583923339844,737.3305053710938,722.4796142578125,182.28436279296875,1018.0562744140625,553.6909790039062,792.6549682617188,985.2119750976562,522.9351806640625,585.9793090820312,1001.165283203125,423.4548645019531,500.39495849609375,962.5682983398438,267.7529296875,354.40814208984375,892.1370239257812,181.4196014404297,367.1216735839844,957.4583740234375,347.23028564453125,170.7552947998047,0.0,0.0,0.0,0.0,0.0,0.0,0.0,0.0,0.0,0.0,0.0,0.0,1.0,0.9044,9.6517,-0.7034,0.1221,-0.3662,-0.1831,94.1748,-5.3339,-175.968,0.0574,0.73,-0.6809,-0.0101,0.0,0.0,0.0,0.0,0.0,0.0,0.0,0.0,0.0,0.0,0.0,0.0,1.0,0.0,0.0,0.0,0.0,0.0,0.0,0.0,0.0,0.0,0.0,0.0,0.0,1.0,0.0,0.0,0.0,0.0,0.0,0.0,0.0,0.0,0.0,0.0,0.0,0.0,1.0,0.0,0.0,0.0,0.0,0.0,0.0,0.0,0.0,0.0,0.0,0.0,0.0,1.0,0.0,0.0,0.0,0.0,0.0,0.0,0.0,0.0,0.0,0.0,0.0,0.0,1.0,0,0,0,0,0,0,0,0,0,0,0,0,0,0,0,0,0,0,0,0,0,0,0,0,0,0,0,0,0,0,0,0,0,0,0,0
1777291189.650726,9900,1777291185.4828012,1777291185.466245,1777291185.6969376,0,0,16.556262969970703,-214.13636207580566,1,1,0.0,0.0,0.0,0.0,0.0,0.0,0.0,0.0,0.0,0.0,0.0,0.0,0.0,0.0,0.0,0.0,0.0,0.0,0.0,0.0,0.0,0.0,0.0,0.0,0.0,0.0,0.0,703.5790405273438,588.2285766601562,1121.072998046875,954.8270263671875,598.6137084960938,1118.8206787109375,740.8631591796875,404.6899719238281,1146.2236328125,901.904052734375,393.1695556640625,1142.5169677734375,644.7293090820312,517.2052001953125,858.5390014648438,691.1031494140625,576.0249633789062,601.6113891601562,676.9573974609375,540.791259765625,428.98858642578125,705.8339233398438,544.9351196289062,232.8134002685547,768.2091674804688,447.955322265625,157.51214599609375,737.4495849609375,714.9928588867188,182.23805236816406,1018.0331420898438,556.3218383789062,794.6341552734375,985.6174926757812,531.276611328125,588.7777709960938,1000.7083740234375,431.2391052246094,504.5000305175781,961.00341796875,274.50018310546875,359.9107360839844,888.4368286132812,190.2032470703125,373.9757080078125,959.0991821289062,351.5673828125,173.6806182861328,0.0,0.0,0.0,0.0,0.0,0.0,0.0,0.0,0.0,0.0,0.0,0.0,1.0,0.9044,9.6517,-0.7034,0.1221,-0.3662,-0.1831,94.1748,-5.3339,-175.968,0.0574,0.73,-0.6809,-0.0101,0.0,0.0,0.0,0.0,0.0,0.0,0.0,0.0,0.0,0.0,0.0,0.0,1.0,0.0,0.0,0.0,0.0,0.0,0.0,0.0,0.0,0.0,0.0,0.0,0.0,1.0,0.0,0.0,0.0,0.0,0.0,0.0,0.0,0.0,0.0,0.0,0.0,0.0,1.0,0.0,0.0,0.0,0.0,0.0,0.0,0.0,0.0,0.0,0.0,0.0,0.0,1.0,0.0,0.0,0.0,0.0,0.0,0.0,0.0,0.0,0.0,0.0,0.0,0.0,1.0,0,0,0,0,0,0,0,0,0,0,0,0,0,0,0,0,0,0,0,0,0,0,0,0,0,0,0,0,0,0,0,0,0,0,0,0
1777291189.650726,9901,1777291185.4864957,1777291185.466245,1777291185.6969376,0,0,20.250797271728516,-210.44182777404785,1,1,0.0,0.0,0.0,0.0,0.0,0.0,0.0,0.0,0.0,0.0,0.0,0.0,0.0,0.0,0.0,0.0,0.0,0.0,0.0,0.0,0.0,0.0,0.0,0.0,0.0,0.0,0.0,702.5938720703125,587.6406860351562,1121.621826171875,953.882568359375,597.5074462890625,1119.6287841796875,739.55224609375,404.1270446777344,1147.02490234375,900.532470703125,392.2001037597656,1143.394775390625,643.501708984375,514.8558349609375,858.7296142578125,690.4496459960938,571.2783203125,601.4024658203125,676.7275390625,534.7869262695312,428.99090576171875,705.9323120117188,537.5646362304688,232.87844848632812,768.401611328125,440.4196472167969,157.66603088378906,737.5719604492188,707.4638671875,182.22019958496094,1018.0030517578125,558.7734375,796.7996826171875,985.9349975585938,539.188720703125,591.6729736328125,1000.0697021484375,438.83740234375,508.3423156738281,959.2047729492188,281.6053771972656,364.54156494140625,884.392333984375,198.7427520751953,378.4538269042969,960.8213500976562,357.7257995605469,177.2471923828125,0.0,0.0,0.0,0.0,0.0,0.0,0.0,0.0,0.0,0.0,0.0,0.0,1.0,0.9044,9.6517,-0.7034,0.1221,-0.3662,-0.1831,94.1748,-5.3339,-175.968,0.0574,0.73,-0.6809,-0.0101,0.0,0.0,0.0,0.0,0.0,0.0,0.0,0.0,0.0,0.0,0.0,0.0,1.0,0.0,0.0,0.0,0.0,0.0,0.0,0.0,0.0,0.0,0.0,0.0,0.0,1.0,0.0,0.0,0.0,0.0,0.0,0.0,0.0,0.0,0.0,0.0,0.0,0.0,1.0,0.0,0.0,0.0,0.0,0.0,0.0,0.0,0.0,0.0,0.0,0.0,0.0,1.0,0.0,0.0,0.0,0.0,0.0,0.0,0.0,0.0,0.0,0.0,0.0,0.0,1.0,0,0,0,0,0,0,0,0,0,0,0,0,0,0,0,0,0,0,0,0,0,0,0,0,0,0,0,0,0,0,0,0,0,0,0,0
1777291189.650726,9902,1777291185.4998991,1777291185.466245,1777291185.6969376,0,0,33.654212951660156,-197.0384120941162,1,1,0.0,0.0,0.0,0.0,0.0,0.0,0.0,0.0,0.0,0.0,0.0,0.0,0.0,0.0,0.0,0.0,0.0,0.0,0.0,0.0,0.0,0.0,0.0,0.0,0.0,0.0,0.0,701.671142578125,586.9304809570312,1122.1220703125,952.9910888671875,596.3675537109375,1120.4342041015625,738.3319091796875,403.4630432128906,1147.8038330078125,899.2514038085938,391.1654968261719,1144.295166015625,642.4113159179688,512.453857421875,858.8983154296875,689.871337890625,566.5100708007812,601.2260131835938,676.51025390625,528.8217163085938,429.0445251464844,706.0299682617188,530.182373046875,232.98077392578125,768.6005249023438,432.8408203125,157.83433532714844,737.7000732421875,699.8938598632812,182.22552490234375,1017.95556640625,561.0704345703125,799.1472778320312,986.156982421875,546.6520385742188,594.6123046875,999.2734375,446.2437438964844,511.82965087890625,957.2308959960938,289.08837890625,368.17767333984375,880.170166015625,207.0830535888672,380.62469482421875,962.5856323242188,365.7031555175781,181.20263671875,0.0,0.0,0.0,0.0,0.0,0.0,0.0,0.0,0.0,0.0,0.0,0.0,1.0,0.9044,9.6517,-0.7034,0.1221,-0.3662,-0.1831,94.1748,-5.3339,-175.968,0.0574,0.73,-0.6809,-0.0101,0.0,0.0,0.0,0.0,0.0,0.0,0.0,0.0,0.0,0.0,0.0,0.0,1.0,0.0,0.0,0.0,0.0,0.0,0.0,0.0,0.0,0.0,0.0,0.0,0.0,1.0,0.0,0.0,0.0,0.0,0.0,0.0,0.0,0.0,0.0,0.0,0.0,0.0,1.0,0.0,0.0,0.0,0.0,0.0,0.0,0.0,0.0,0.0,0.0,0.0,0.0,1.0,0.0,0.0,0.0,0.0,0.0,0.0,0.0,0.0,0.0,0.0,0.0,0.0,1.0,0,0,0,0,0,0,0,0,0,0,0,0,0,0,0,0,0,0,0,0,0,0,0,0,0,0,0,0,0,0,0,0,0,0,0,0
1777291189.650726,9903,1777291185.5024083,1777291185.466245,1777291185.6969376,0,0,36.163330078125,-194.52929496765137,1,1,0.0,0.0,0.0,0.0,0.0,0.0,0.0,0.0,0.0,0.0,0.0,0.0,0.0,0.0,0.0,0.0,0.0,0.0,0.0,0.0,0.0,0.0,0.0,0.0,0.0,0.0,0.0,700.806396484375,586.111083984375,1122.5745849609375,952.1495971679688,595.2015380859375,1121.2376708984375,737.2020263671875,402.708984375,1148.556396484375,898.0615234375,390.0748596191406,1145.2108154296875,641.4616088867188,510.02288818359375,859.04833984375,689.3765869140625,561.7342529296875,601.0828247070312,676.3267211914062,522.8824462890625,429.1495666503906,706.1387329101562,522.7854614257812,233.11932373046875,768.8072509765625,425.2244873046875,158.01271057128906,737.8341674804688,692.2869262695312,182.24642944335938,1017.8822021484375,563.236083984375,801.6658325195312,986.2802734375,553.6603393554688,597.5411376953125,998.352783203125,453.4674072265625,514.8739013671875,955.1456298828125,296.9794616699219,370.7205505371094,875.9495849609375,215.3531494140625,380.6573791503906,964.3364868164062,375.4124755859375,185.24488830566406,0.0,0.0,0.0,0.0,0.0,0.0,0.0,0.0,0.0,0.0,0.0,0.0,1.0,0.9044,9.6517,-0.7034,0.1221,-0.3662,-0.1831,94.1748,-5.3339,-175.968,0.0574,0.73,-0.6809,-0.0101,0.0,0.0,0.0,0.0,0.0,0.0,0.0,0.0,0.0,0.0,0.0,0.0,1.0,0.0,0.0,0.0,0.0,0.0,0.0,0.0,0.0,0.0,0.0,0.0,0.0,1.0,0.0,0.0,0.0,0.0,0.0,0.0,0.0,0.0,0.0,0.0,0.0,0.0,1.0,0.0,0.0,0.0,0.0,0.0,0.0,0.0,0.0,0.0,0.0,0.0,0.0,1.0,0.0,0.0,0.0,0.0,0.0,0.0,0.0,0.0,0.0,0.0,0.0,0.0,1.0,0,0,0,0,0,0,0,0,0,0,0,0,0,0,0,0,0,0,0,0,0,0,0,0,0,0,0,0,0,0,0,0,0,0,0,0
1777291189.650726,9904,1777291185.5177724,1777291185.466245,1777291185.6969376,0,0,51.52750015258789,-179.16512489318848,1,1,0.0,0.0,0.0,0.0,0.0,0.0,0.0,0.0,0.0,0.0,0.0,0.0,0.0,0.0,0.0,0.0,0.0,0.0,0.0,0.0,0.0,0.0,0.0,0.0,0.0,0.0,0.0,699.9962768554688,585.1970825195312,1122.9796142578125,951.3567504882812,594.0147094726562,1122.0379638671875,736.1614990234375,401.87664794921875,1149.27880859375,896.9627075195312,388.93707275390625,1146.13427734375,640.6519775390625,507.57928466796875,859.1804809570312,688.9708251953125,556.9581298828125,600.9702758789062,676.1962280273438,516.9503173828125,429.302734375,706.2699584960938,515.3715209960938,233.29083251953125,769.02294921875,417.5810241699219,158.19589233398438,737.9735717773438,684.6487426757812,182.27413940429688,1017.7769165039062,565.2890014648438,804.3360595703125,986.305908203125,560.2169189453125,600.404541015625,997.3466796875,460.5286560058594,517.3958740234375,953.013916015625,305.31341552734375,372.10101318359375,871.90185546875,223.7269287109375,378.7750549316406,966.0132446289062,386.70758056640625,189.0720672607422,0.0,0.0,0.0,0.0,0.0,0.0,0.0,0.0,0.0,0.0,0.0,0.0,1.0,0.9044,9.6517,-0.7034,0.1221,-0.3662,-0.1831,94.1748,-5.3339,-175.968,0.0574,0.73,-0.6809,-0.0101,0.0,0.0,0.0,0.0,0.0,0.0,0.0,0.0,0.0,0.0,0.0,0.0,1.0,0.0,0.0,0.0,0.0,0.0,0.0,0.0,0.0,0.0,0.0,0.0,0.0,1.0,0.0,0.0,0.0,0.0,0.0,0.0,0.0,0.0,0.0,0.0,0.0,0.0,1.0,0.0,0.0,0.0,0.0,0.0,0.0,0.0,0.0,0.0,0.0,0.0,0.0,1.0,0.0,0.0,0.0,0.0,0.0,0.0,0.0,0.0,0.0,0.0,0.0,0.0,1.0,0,0,0,0,0,0,0,0,0,0,0,0,0,0,0,0,0,0,0,0,0,0,0,0,0,0,0,0,0,0,0,0,0,0,0,0
1777291189.650726,9905,1777291185.5204449,1777291185.466245,1777291185.6969376,0,0,54.199934005737305,-176.49269104003906,1,1,0.0,0.0,0.0,0.0,0.0,0.0,0.0,0.0,0.0,0.0,0.0,0.0,0.0,0.0,0.0,0.0,0.0,0.0,0.0,0.0,0.0,0.0,0.0,0.0,0.0,0.0,0.0,699.23876953125,584.203857421875,1123.336181640625,950.612548828125,592.8109130859375,1122.830810546875,735.2084350585938,400.9780578613281,1149.967529296875,895.95361328125,387.7608642578125,1147.0567626953125,639.9784545898438,505.1325378417969,859.29296875,688.6568603515625,552.1854858398438,600.8829345703125,676.1336669921875,511.0074768066406,429.49737548828125,706.4334106445312,507.9399108886719,233.49049377441406,769.2484741210938,409.92449951171875,158.37881469726562,738.1171264648438,676.9866943359375,182.29986572265625,1017.6365966796875,567.2411499023438,807.1301879882812,986.2390747070312,566.331298828125,603.1490478515625,996.2968139648438,467.45452880859375,519.3297729492188,950.8980102539062,314.12420654296875,372.2817077636719,868.17236328125,232.38551330566406,375.2110290527344,967.5621337890625,399.4151611328125,192.42745971679688,0.0,0.0,0.0,0.0,0.0,0.0,0.0,0.0,0.0,0.0,0.0,0.0,1.0,0.9044,9.6517,-0.7034,0.1221,-0.3662,-0.1831,94.1748,-5.3339,-175.968,0.0574,0.73,-0.6809,-0.0101,0.0,0.0,0.0,0.0,0.0,0.0,0.0,0.0,0.0,0.0,0.0,0.0,1.0,0.0,0.0,0.0,0.0,0.0,0.0,0.0,0.0,0.0,0.0,0.0,0.0,1.0,0.0,0.0,0.0,0.0,0.0,0.0,0.0,0.0,0.0,0.0,0.0,0.0,1.0,0.0,0.0,0.0,0.0,0.0,0.0,0.0,0.0,0.0,0.0,0.0,0.0,1.0,0.0,0.0,0.0,0.0,0.0,0.0,0.0,0.0,0.0,0.0,0.0,0.0,1.0,0,0,0,0,0,0,0,0,0,0,0,0,0,0,0,0,0,0,0,0,0,0,0,0,0,0,0,0,0,0,0,0,0,0,0,0
1777291189.650726,9906,1777291185.5356152,1777291185.466245,1777291185.6969376,0,0,69.37026977539062,-161.32235527038574,1,1,0.0,0.0,0.0,0.0,0.0,0.0,0.0,0.0,0.0,0.0,0.0,0.0,0.0,0.0,0.0,0.0,0.0,0.0,0.0,0.0,0.0,0.0,0.0,0.0,0.0,0.0,0.0,698.532958984375,583.1471557617188,1123.6419677734375,949.918212890625,591.5931396484375,1123.609619140625,734.3402099609375,400.02532958984375,1150.6190185546875,895.0326538085938,386.55487060546875,1147.968994140625,639.43505859375,502.6865234375,859.3817138671875,688.4348754882812,547.4188842773438,600.8126831054688,676.1486206054688,505.0419006347656,429.72406005859375,706.63623046875,500.4921569824219,233.71278381347656,769.4840698242188,402.27093505859375,158.5574493408203,738.2643432617188,669.30859375,182.31576538085938,1017.4616088867188,569.0963134765625,810.012451171875,986.088623046875,572.0155639648438,605.723876953125,995.2442016601562,474.274169921875,520.6261596679688,948.853759765625,323.441162109375,371.2574157714844,864.8671875,241.48959350585938,370.1751403808594,968.9464111328125,413.36260986328125,195.1298828125,0.0,0.0,0.0,0.0,0.0,0.0,0.0,0.0,0.0,0.0,0.0,0.0,1.0,0.9044,9.6517,-0.7034,0.1221,-0.3662,-0.1831,94.1748,-5.3339,-175.968,0.0574,0.73,-0.6809,-0.0101,0.0,0.0,0.0,0.0,0.0,0.0,0.0,0.0,0.0,0.0,0.0,0.0,1.0,0.0,0.0,0.0,0.0,0.0,0.0,0.0,0.0,0.0,0.0,0.0,0.0,1.0,0.0,0.0,0.0,0.0,0.0,0.0,0.0,0.0,0.0,0.0,0.0,0.0,1.0,0.0,0.0,0.0,0.0,0.0,0.0,0.0,0.0,0.0,0.0,0.0,0.0,1.0,0.0,0.0,0.0,0.0,0.0,0.0,0.0,0.0,0.0,0.0,0.0,0.0,1.0,0,0,0,0,0,0,0,0,0,0,0,0,0,0,0,0,0,0,0,0,0,0,0,0,0,0,0,0,0,0,0,0,0,0,0,0
1777291189.650726,9907,1777291185.5526812,1777291185.466245,1777291185.6969376,0,0,86.43627166748047,-144.2563533782959,1,1,0.0,0.0,0.0,0.0,0.0,0.0,0.0,0.0,0.0,0.0,0.0,0.0,0.0,0.0,0.0,0.0,0.0,0.0,0.0,0.0,0.0,0.0,0.0,0.0,0.0,0.0,0.0,697.8787231445312,582.0423583984375,1123.8931884765625,949.2755737304688,590.3640747070312,1124.36474609375,733.553955078125,399.0303649902344,1151.2301025390625,894.1976928710938,385.3277893066406,1148.8607177734375,639.0150146484375,500.2409362792969,859.4405517578125,688.3031616210938,542.6620483398438,600.7493896484375,676.2445068359375,499.0501708984375,429.9712219238281,706.8822631835938,493.0323486328125,233.95213317871094,769.7296142578125,394.63525390625,158.7295684814453,738.4156494140625,661.6226196289062,182.3157196044922,1017.255615234375,570.850341796875,812.9395141601562,985.8663330078125,577.281494140625,608.08154296875,994.2260131835938,481.01507568359375,521.2538452148438,946.9281005859375,333.2872619628906,369.0525817871094,862.0471801757812,251.1657257080078,363.8356628417969,970.1527709960938,428.3963317871094,197.08518981933594,0.0,0.0,0.0,0.0,0.0,0.0,0.0,0.0,0.0,0.0,0.0,0.0,1.0,0.9044,9.6517,-0.7034,0.1221,-0.3662,-0.1831,94.1748,-5.3339,-175.968,0.0574,0.73,-0.6809,-0.0101,0.0,0.0,0.0,0.0,0.0,0.0,0.0,0.0,0.0,0.0,0.0,0.0,1.0,0.0,0.0,0.0,0.0,0.0,0.0,0.0,0.0,0.0,0.0,0.0,0.0,1.0,0.0,0.0,0.0,0.0,0.0,0.0,0.0,0.0,0.0,0.0,0.0,0.0,1.0,0.0,0.0,0.0,0.0,0.0,0.0,0.0,0.0,0.0,0.0,0.0,0.0,1.0,0.0,0.0,0.0,0.0,0.0,0.0,0.0,0.0,0.0,0.0,0.0,0.0,1.0,0,0,0,0,0,0,0,0,0,0,0,0,0,0,0,0,0,0,0,0,0,0,0,0,0,0,0,0,0,0,0,0,0,0,0,0
1777291189.650726,9908,1777291185.5604033,1777291185.5597932,1777291185.6969376,0,0,0.6101131439208984,-136.5342140197754,1,1,0.0,0.0,0.0,0.0,0.0,0.0,0.0,0.0,0.0,0.0,0.0,0.0,0.0,0.0,0.0,0.0,0.0,0.0,0.0,0.0,0.0,0.0,0.0,0.0,0.0,0.0,0.0,697.2769775390625,580.9039916992188,1124.0848388671875,948.6868896484375,589.1265869140625,1125.0841064453125,732.8471069335938,398.00457763671875,1151.796875,893.4468383789062,384.0883483886719,1149.7216796875,638.7112426757812,497.7931213378906,859.4622802734375,688.2583618164062,537.9207153320312,600.6815795898438,676.4196166992188,493.03826904296875,430.2261962890625,707.1721801757812,485.56658935546875,234.20338439941406,769.9849243164062,387.02801513671875,158.8955535888672,738.5725708007812,653.936279296875,182.29591369628906,1017.0252075195312,572.49169921875,815.8624877929688,985.5856323242188,582.1383056640625,610.1785278320312,993.2730102539062,487.7002868652344,521.19970703125,945.1575927734375,343.6788330078125,365.71771240234375,859.7278442382812,261.5058288574219,356.318115234375,971.192138671875,444.3883361816406,198.28018188476562,0.0,0.0,0.0,0.0,0.0,0.0,0.0,0.0,0.0,0.0,0.0,0.0,1.0,0.9044,9.6517,-0.7082,0.1831,-0.3662,-0.1221,94.1748,-5.3339,-175.968,0.0574,0.73,-0.6809,-0.0101,0.0,0.0,0.0,0.0,0.0,0.0,0.0,0.0,0.0,0.0,0.0,0.0,1.0,0.0,0.0,0.0,0.0,0.0,0.0,0.0,0.0,0.0,0.0,0.0,0.0,1.0,0.0,0.0,0.0,0.0,0.0,0.0,0.0,0.0,0.0,0.0,0.0,0.0,1.0,0.0,0.0,0.0,0.0,0.0,0.0,0.0,0.0,0.0,0.0,0.0,0.0,1.0,0.0,0.0,0.0,0.0,0.0,0.0,0.0,0.0,0.0,0.0,0.0,0.0,1.0,0,0,0,0,0,0,0,0,0,0,0,0,0,0,0,0,0,0,0,0,0,0,0,0,0,0,0,0,0,0,0,0,0,0,0,0
1777291189.650726,9909,1777291185.5698757,1777291185.5597932,1777291185.6969376,0,0,10.082483291625977,-127.06184387207031,1,1,0.0,0.0,0.0,0.0,0.0,0.0,0.0,0.0,0.0,0.0,0.0,0.0,0.0,0.0,0.0,0.0,0.0,0.0,0.0,0.0,0.0,0.0,0.0,0.0,0.0,0.0,0.0,696.728759765625,579.74560546875,1124.2108154296875,948.1541748046875,587.884521484375,1125.75390625,732.2173461914062,396.9590148925781,1152.3157958984375,892.7781982421875,382.8456115722656,1150.541015625,638.517333984375,495.3396911621094,859.4391479492188,688.2959594726562,533.203369140625,600.5971069335938,676.6680908203125,487.0201721191406,430.4761047363281,707.5037841796875,478.10186767578125,234.4620819091797,770.2495727539062,379.4521484375,159.05947875976562,738.7371215820312,646.256103515625,182.25491333007812,1016.7791748046875,574.0032348632812,818.7286987304688,985.2603759765625,586.5912475585938,611.9757080078125,992.4080200195312,494.3468322753906,520.4674682617188,943.5682373046875,354.6266784667969,361.3246154785156,857.885009765625,272.5750732421875,347.717529296875,972.09716796875,461.2337951660156,198.76377868652344,0.0,0.0,0.0,0.0,0.0,0.0,0.0,0.0,0.0,0.0,0.0,0.0,1.0,0.9044,9.6517,-0.7082,0.1831,-0.3662,-0.1221,94.1748,-5.3339,-175.968,0.0574,0.73,-0.6809,-0.0101,0.0,0.0,0.0,0.0,0.0,0.0,0.0,0.0,0.0,0.0,0.0,0.0,1.0,0.0,0.0,0.0,0.0,0.0,0.0,0.0,0.0,0.0,0.0,0.0,0.0,1.0,0.0,0.0,0.0,0.0,0.0,0.0,0.0,0.0,0.0,0.0,0.0,0.0,1.0,0.0,0.0,0.0,0.0,0.0,0.0,0.0,0.0,0.0,0.0,0.0,0.0,1.0,0.0,0.0,0.0,0.0,0.0,0.0,0.0,0.0,0.0,0.0,0.0,0.0,1.0,0,0,0,0,0,0,0,0,0,0,0,0,0,0,0,0,0,0,0,0,0,0,0,0,0,0,0,0,0,0,0,0,0,0,0,0
1777291189.650726,9910,1777291185.5822272,1777291185.5597932,1777291185.6969376,0,0,22.433996200561523,-114.71033096313477,1,1,0.0,0.0,0.0,0.0,0.0,0.0,0.0,0.0,0.0,0.0,0.0,0.0,0.0,0.0,0.0,0.0,0.0,0.0,0.0,0.0,0.0,0.0,0.0,0.0,0.0,0.0,0.0,696.2352294921875,578.5792846679688,1124.2646484375,947.6790771484375,586.6428833007812,1126.359375,731.6629028320312,395.9039611816406,1152.7825927734375,892.1905517578125,381.6089172363281,1151.3079833984375,638.4273071289062,492.87786865234375,859.3636474609375,688.4108276367188,528.520751953125,600.4840698242188,676.9816284179688,481.0152282714844,430.7088623046875,707.8721923828125,470.64520263671875,234.72471618652344,770.522216796875,371.90087890625,159.22909545898438,738.9108276367188,638.5867919921875,182.19349670410156,1016.527587890625,575.3640747070312,821.48388671875,984.9039306640625,590.6409301757812,613.4390869140625,991.6455688476562,500.9653625488281,519.0757446289062,942.1761474609375,366.137939453125,355.96221923828125,856.4637451171875,284.4222106933594,338.11785888671875,972.9154663085938,478.84332275390625,198.6233367919922,0.0,0.0,0.0,0.0,0.0,0.0,0.0,0.0,0.0,0.0,0.0,0.0,1.0,0.9044,9.6517,-0.7082,0.1831,-0.3662,-0.1221,94.1748,-5.3339,-175.968,0.0574,0.73,-0.6809,-0.0101,0.0,0.0,0.0,0.0,0.0,0.0,0.0,0.0,0.0,0.0,0.0,0.0,1.0,0.0,0.0,0.0,0.0,0.0,0.0,0.0,0.0,0.0,0.0,0.0,0.0,1.0,0.0,0.0,0.0,0.0,0.0,0.0,0.0,0.0,0.0,0.0,0.0,0.0,1.0,0.0,0.0,0.0,0.0,0.0,0.0,0.0,0.0,0.0,0.0,0.0,0.0,1.0,0.0,0.0,0.0,0.0,0.0,0.0,0.0,0.0,0.0,0.0,0.0,0.0,1.0,0,0,0,0,0,0,0,0,0,0,0,0,0,0,0,0,0,0,0,0,0,0,0,0,0,0,0,0,0,0,0,0,0,0,0,0
